Round Number,Trial Number,Reaction Time,Choice,Reward,Time Condition,Payoff Condition,Q mapped,W mapped,O mapped,P mapped,One value,Two value,Three value,Four value,One mean,Two mean,Three mean,Four mean,Mean Shift,One shifted mean,Two shifted mean,Three shifted mean,Four shifted mean,One SD,Two SD,Three SD,Four SD
1,1,1.3670586999996885,p,68.4,Unlimited Time,i,49.37033036744107,46.27258957515458,89.97287016117079,68.35330197679414,49.37033036744107,46.27258957515458,68.35330197679414,89.97287016117079,-10,-10,10,10,57,47,47,67,67,3.1622776601683795,10,3.1622776601683795,10
1,2,1.6357920999998896,o,70.3,Unlimited Time,i,47.74927285657247,49.92591038844341,70.31532227825898,68.15822680935528,47.74927285657247,49.92591038844341,68.15822680935528,70.31532227825898,-10,-10,10,10,57,47,47,67,67,3.1622776601683795,10,3.1622776601683795,10
1,3,1.2878451999995377,p,62.0,Unlimited Time,i,49.04761695454275,57.459240061448995,61.040383562972956,62.008332130370235,49.04761695454275,57.459240061448995,62.008332130370235,61.040383562972956,-10,-10,10,10,57,47,47,67,67,3.1622776601683795,10,3.1622776601683795,10
1,4,0.11445299999968483,w,70.4,Unlimited Time,i,45.31093973235453,70.3523701604351,50.1047743224648,67.55817935194708,45.31093973235453,70.3523701604351,67.55817935194708,50.1047743224648,-10,-10,10,10,57,47,47,67,67,3.1622776601683795,10,3.1622776601683795,10
1,5,0.9686078999998244,q,52.5,Unlimited Time,i,52.53340766212899,34.2222333874926,79.73519411497266,69.44454347210285,52.53340766212899,34.2222333874926,69.44454347210285,79.73519411497266,-10,-10,10,10,57,47,47,67,67,3.1622776601683795,10,3.1622776601683795,10
1,6,1.1592594999997345,o,73.4,Unlimited Time,i,50.27558209567519,42.75865127587312,73.39485840519092,64.09037004412646,50.27558209567519,42.75865127587312,64.09037004412646,73.39485840519092,-10,-10,10,10,57,47,47,67,67,3.1622776601683795,10,3.1622776601683795,10
1,7,0.712129399999867,w,67.0,Unlimited Time,i,46.95975245537711,66.95715002478548,63.08825970326073,66.46933811250318,46.95975245537711,66.95715002478548,66.46933811250318,63.08825970326073,-10,-10,10,10,57,47,47,67,67,3.1622776601683795,10,3.1622776601683795,10
1,8,0.2151528999997936,o,74.2,Unlimited Time,i,51.58162174194558,28.891120685858446,74.16613100146367,70.01718814868724,51.58162174194558,28.891120685858446,70.01718814868724,74.16613100146367,-10,-10,10,10,57,47,47,67,67,3.1622776601683795,10,3.1622776601683795,10
1,9,0.025166700000227138,o,66.4,Unlimited Time,i,53.006789367940634,34.365112231281365,66.41921018433221,69.26987555652939,53.006789367940634,34.365112231281365,69.26987555652939,66.41921018433221,-10,-10,10,10,57,47,47,67,67,3.1622776601683795,10,3.1622776601683795,10
1,10,1.0214816999996401,p,63.8,Unlimited Time,i,47.610403231891944,34.413142733390146,52.90497000505259,63.77759123377516,47.610403231891944,34.413142733390146,63.77759123377516,52.90497000505259,-10,-10,10,10,57,47,47,67,67,3.1622776601683795,10,3.1622776601683795,10
1,11,0.0893911999996817,o,59.7,Unlimited Time,i,41.664870784160684,42.75248707645083,59.74271376676367,66.8569183636581,41.664870784160684,42.75248707645083,66.8569183636581,59.74271376676367,-10,-10,10,10,57,47,47,67,67,3.1622776601683795,10,3.1622776601683795,10
1,12,1.148781599999893,q,49.4,Unlimited Time,i,49.38940500163702,52.62472772769108,74.80822368012255,66.7784246248178,49.38940500163702,52.62472772769108,66.7784246248178,74.80822368012255,-10,-10,10,10,57,47,47,67,67,3.1622776601683795,10,3.1622776601683795,10
1,13,0.33948119999968185,w,42.2,Unlimited Time,i,44.688424599783374,42.24939305844852,63.50278301790134,62.98289830588046,44.688424599783374,42.24939305844852,62.98289830588046,63.50278301790134,-10,-10,10,10,57,47,47,67,67,3.1622776601683795,10,3.1622776601683795,10
1,14,0.45818800000006377,o,48.8,Unlimited Time,i,49.38371441148057,47.58065763218528,48.79094126858503,70.26315649299553,49.38371441148057,47.58065763218528,70.26315649299553,48.79094126858503,-10,-10,10,10,57,47,47,67,67,3.1622776601683795,10,3.1622776601683795,10
1,15,0.4281758999995873,p,65.7,Unlimited Time,i,46.944430079719126,48.13158136047373,55.535949133072805,65.66747146790658,46.944430079719126,48.13158136047373,65.66747146790658,55.535949133072805,-10,-10,10,10,57,47,47,67,67,3.1622776601683795,10,3.1622776601683795,10
1,16,0.44410919999972975,p,69.3,Unlimited Time,i,44.93694319629025,54.7996846470634,60.625003471207954,69.29542887116177,44.93694319629025,54.7996846470634,69.29542887116177,60.625003471207954,-10,-10,10,10,57,47,47,67,67,3.1622776601683795,10,3.1622776601683795,10
1,17,0.3079344999996465,p,69.6,Unlimited Time,i,43.664641885771125,52.29073578935595,62.890798345890396,69.58597844189963,43.664641885771125,52.29073578935595,69.58597844189963,62.890798345890396,-10,-10,10,10,57,47,47,67,67,3.1622776601683795,10,3.1622776601683795,10
1,18,0.19296599999961472,p,68.5,Unlimited Time,i,43.27590099245247,33.86125750807121,69.81709240924803,68.49516012521468,43.27590099245247,33.86125750807121,68.49516012521468,69.81709240924803,-10,-10,10,10,57,47,47,67,67,3.1622776601683795,10,3.1622776601683795,10
1,19,0.4553341000000728,p,65.6,Unlimited Time,i,44.913612970570156,57.5998241825293,80.58482166843665,65.6225647264139,44.913612970570156,57.5998241825293,65.6225647264139,80.58482166843665,-10,-10,10,10,57,47,47,67,67,3.1622776601683795,10,3.1622776601683795,10
1,20,1.3103535999994165,o,80.1,Unlimited Time,i,47.39317069093268,41.63213433185156,80.13790423221762,70.16781905474404,47.39317069093268,41.63213433185156,70.16781905474404,80.13790423221762,-10,-10,10,10,57,47,47,67,67,3.1622776601683795,10,3.1622776601683795,10
2,1,,,0.0,Limited Time,i,89.97287016117079,49.37033036744107,68.35330197679414,46.27258957515458,49.37033036744107,46.27258957515458,68.35330197679414,89.97287016117079,-10,-10,10,10,57,47,47,67,67,3.1622776601683795,10,3.1622776601683795,10
2,2,0.3111840999999913,p,49.9,Limited Time,i,70.31532227825898,47.74927285657247,68.15822680935528,49.92591038844341,47.74927285657247,49.92591038844341,68.15822680935528,70.31532227825898,-10,-10,10,10,57,47,47,67,67,3.1622776601683795,10,3.1622776601683795,10
2,3,0.24846359999992274,o,62.0,Limited Time,i,61.040383562972956,49.04761695454275,62.008332130370235,57.459240061448995,49.04761695454275,57.459240061448995,62.008332130370235,61.040383562972956,-10,-10,10,10,57,47,47,67,67,3.1622776601683795,10,3.1622776601683795,10
2,4,0.02018339999995078,p,70.4,Limited Time,i,50.1047743224648,45.31093973235453,67.55817935194708,70.3523701604351,45.31093973235453,70.3523701604351,67.55817935194708,50.1047743224648,-10,-10,10,10,57,47,47,67,67,3.1622776601683795,10,3.1622776601683795,10
2,5,0.10737989999961428,p,34.2,Limited Time,i,79.73519411497266,52.53340766212899,69.44454347210285,34.2222333874926,52.53340766212899,34.2222333874926,69.44454347210285,79.73519411497266,-10,-10,10,10,57,47,47,67,67,3.1622776601683795,10,3.1622776601683795,10
2,6,0.07138649999978952,p,42.8,Limited Time,i,73.39485840519092,50.27558209567519,64.09037004412646,42.75865127587312,50.27558209567519,42.75865127587312,64.09037004412646,73.39485840519092,-10,-10,10,10,57,47,47,67,67,3.1622776601683795,10,3.1622776601683795,10
2,7,0.05457329999990179,p,67.0,Limited Time,i,63.08825970326073,46.95975245537711,66.46933811250318,66.95715002478548,46.95975245537711,66.95715002478548,66.46933811250318,63.08825970326073,-10,-10,10,10,57,47,47,67,67,3.1622776601683795,10,3.1622776601683795,10
2,8,0.30384609999964596,o,70.0,Limited Time,i,74.16613100146367,51.58162174194558,70.01718814868724,28.891120685858446,51.58162174194558,28.891120685858446,70.01718814868724,74.16613100146367,-10,-10,10,10,57,47,47,67,67,3.1622776601683795,10,3.1622776601683795,10
2,9,0.06841879999956291,o,69.3,Limited Time,i,66.41921018433221,53.006789367940634,69.26987555652939,34.365112231281365,53.006789367940634,34.365112231281365,69.26987555652939,66.41921018433221,-10,-10,10,10,57,47,47,67,67,3.1622776601683795,10,3.1622776601683795,10
2,10,0.29689929999995,o,63.8,Limited Time,i,52.90497000505259,47.610403231891944,63.77759123377516,34.413142733390146,47.610403231891944,34.413142733390146,63.77759123377516,52.90497000505259,-10,-10,10,10,57,47,47,67,67,3.1622776601683795,10,3.1622776601683795,10
2,11,0.254054399999859,o,66.9,Limited Time,i,59.74271376676367,41.664870784160684,66.8569183636581,42.75248707645083,41.664870784160684,42.75248707645083,66.8569183636581,59.74271376676367,-10,-10,10,10,57,47,47,67,67,3.1622776601683795,10,3.1622776601683795,10
2,12,0.19124569999985397,p,52.6,Limited Time,i,74.80822368012255,49.38940500163702,66.7784246248178,52.62472772769108,49.38940500163702,52.62472772769108,66.7784246248178,74.80822368012255,-10,-10,10,10,57,47,47,67,67,3.1622776601683795,10,3.1622776601683795,10
2,13,0.25357020000001285,p,42.2,Limited Time,i,63.50278301790134,44.688424599783374,62.98289830588046,42.24939305844852,44.688424599783374,42.24939305844852,62.98289830588046,63.50278301790134,-10,-10,10,10,57,47,47,67,67,3.1622776601683795,10,3.1622776601683795,10
2,14,,,0.0,Limited Time,i,48.79094126858503,49.38371441148057,70.26315649299553,47.58065763218528,49.38371441148057,47.58065763218528,70.26315649299553,48.79094126858503,-10,-10,10,10,57,47,47,67,67,3.1622776601683795,10,3.1622776601683795,10
2,15,0.09976759999972273,o,65.7,Limited Time,i,55.535949133072805,46.944430079719126,65.66747146790658,48.13158136047373,46.944430079719126,48.13158136047373,65.66747146790658,55.535949133072805,-10,-10,10,10,57,47,47,67,67,3.1622776601683795,10,3.1622776601683795,10
2,16,0.2221679999997832,p,54.8,Limited Time,i,60.625003471207954,44.93694319629025,69.29542887116177,54.7996846470634,44.93694319629025,54.7996846470634,69.29542887116177,60.625003471207954,-10,-10,10,10,57,47,47,67,67,3.1622776601683795,10,3.1622776601683795,10
2,17,0.0591935000002195,o,69.6,Limited Time,i,62.890798345890396,43.664641885771125,69.58597844189963,52.29073578935595,43.664641885771125,52.29073578935595,69.58597844189963,62.890798345890396,-10,-10,10,10,57,47,47,67,67,3.1622776601683795,10,3.1622776601683795,10
2,18,0.10299699999950462,o,68.5,Limited Time,i,69.81709240924803,43.27590099245247,68.49516012521468,33.86125750807121,43.27590099245247,33.86125750807121,68.49516012521468,69.81709240924803,-10,-10,10,10,57,47,47,67,67,3.1622776601683795,10,3.1622776601683795,10
2,19,0.10482309999952122,p,57.6,Limited Time,i,80.58482166843665,44.913612970570156,65.6225647264139,57.5998241825293,44.913612970570156,57.5998241825293,65.6225647264139,80.58482166843665,-10,-10,10,10,57,47,47,67,67,3.1622776601683795,10,3.1622776601683795,10
2,20,0.3550350000000435,o,70.2,Limited Time,i,80.13790423221762,47.39317069093268,70.16781905474404,41.63213433185156,47.39317069093268,41.63213433185156,70.16781905474404,80.13790423221762,-10,-10,10,10,57,47,47,67,67,3.1622776601683795,10,3.1622776601683795,10
3,1,1.5686103000002731,w,49.4,Unlimited Time,i,46.27258957515458,49.37033036744107,68.35330197679414,89.97287016117079,49.37033036744107,46.27258957515458,68.35330197679414,89.97287016117079,-10,-10,10,10,57,47,47,67,67,3.1622776601683795,10,3.1622776601683795,10
3,2,0.23122830000011163,w,47.7,Unlimited Time,i,49.92591038844341,47.74927285657247,68.15822680935528,70.31532227825898,47.74927285657247,49.92591038844341,68.15822680935528,70.31532227825898,-10,-10,10,10,57,47,47,67,67,3.1622776601683795,10,3.1622776601683795,10
3,3,0.013079299999844807,p,61.0,Unlimited Time,i,57.459240061448995,49.04761695454275,62.008332130370235,61.040383562972956,49.04761695454275,57.459240061448995,62.008332130370235,61.040383562972956,-10,-10,10,10,57,47,47,67,67,3.1622776601683795,10,3.1622776601683795,10
3,4,0.009172499999749562,o,67.6,Unlimited Time,i,70.3523701604351,45.31093973235453,67.55817935194708,50.1047743224648,45.31093973235453,70.3523701604351,67.55817935194708,50.1047743224648,-10,-10,10,10,57,47,47,67,67,3.1622776601683795,10,3.1622776601683795,10
3,5,0.2482836999997744,p,79.7,Unlimited Time,i,34.2222333874926,52.53340766212899,69.44454347210285,79.73519411497266,52.53340766212899,34.2222333874926,69.44454347210285,79.73519411497266,-10,-10,10,10,57,47,47,67,67,3.1622776601683795,10,3.1622776601683795,10
3,6,0.5519930000000386,o,64.1,Unlimited Time,i,42.75865127587312,50.27558209567519,64.09037004412646,73.39485840519092,50.27558209567519,42.75865127587312,64.09037004412646,73.39485840519092,-10,-10,10,10,57,47,47,67,67,3.1622776601683795,10,3.1622776601683795,10
3,7,0.3734589999999116,p,63.1,Unlimited Time,i,66.95715002478548,46.95975245537711,66.46933811250318,63.08825970326073,46.95975245537711,66.95715002478548,66.46933811250318,63.08825970326073,-10,-10,10,10,57,47,47,67,67,3.1622776601683795,10,3.1622776601683795,10
3,8,0.3345623999998679,q,28.9,Unlimited Time,i,28.891120685858446,51.58162174194558,70.01718814868724,74.16613100146367,51.58162174194558,28.891120685858446,70.01718814868724,74.16613100146367,-10,-10,10,10,57,47,47,67,67,3.1622776601683795,10,3.1622776601683795,10
3,9,0.5987113000001045,o,69.3,Unlimited Time,i,34.365112231281365,53.006789367940634,69.26987555652939,66.41921018433221,53.006789367940634,34.365112231281365,69.26987555652939,66.41921018433221,-10,-10,10,10,57,47,47,67,67,3.1622776601683795,10,3.1622776601683795,10
3,10,0.03366039999991699,w,47.6,Unlimited Time,i,34.413142733390146,47.610403231891944,63.77759123377516,52.90497000505259,47.610403231891944,34.413142733390146,63.77759123377516,52.90497000505259,-10,-10,10,10,57,47,47,67,67,3.1622776601683795,10,3.1622776601683795,10
3,11,0.3277005999998437,o,66.9,Unlimited Time,i,42.75248707645083,41.664870784160684,66.8569183636581,59.74271376676367,41.664870784160684,42.75248707645083,66.8569183636581,59.74271376676367,-10,-10,10,10,57,47,47,67,67,3.1622776601683795,10,3.1622776601683795,10
3,12,0.6020637999999963,p,74.8,Unlimited Time,i,52.62472772769108,49.38940500163702,66.7784246248178,74.80822368012255,49.38940500163702,52.62472772769108,66.7784246248178,74.80822368012255,-10,-10,10,10,57,47,47,67,67,3.1622776601683795,10,3.1622776601683795,10
3,13,0.01719089999960488,o,63.0,Unlimited Time,i,42.24939305844852,44.688424599783374,62.98289830588046,63.50278301790134,44.688424599783374,42.24939305844852,62.98289830588046,63.50278301790134,-10,-10,10,10,57,47,47,67,67,3.1622776601683795,10,3.1622776601683795,10
3,14,0.11329870000008668,o,70.3,Unlimited Time,i,47.58065763218528,49.38371441148057,70.26315649299553,48.79094126858503,49.38371441148057,47.58065763218528,70.26315649299553,48.79094126858503,-10,-10,10,10,57,47,47,67,67,3.1622776601683795,10,3.1622776601683795,10
3,15,0.3343863000000056,o,65.7,Unlimited Time,i,48.13158136047373,46.944430079719126,65.66747146790658,55.535949133072805,46.944430079719126,48.13158136047373,65.66747146790658,55.535949133072805,-10,-10,10,10,57,47,47,67,67,3.1622776601683795,10,3.1622776601683795,10
3,16,0.319130800000039,w,44.9,Unlimited Time,i,54.7996846470634,44.93694319629025,69.29542887116177,60.625003471207954,44.93694319629025,54.7996846470634,69.29542887116177,60.625003471207954,-10,-10,10,10,57,47,47,67,67,3.1622776601683795,10,3.1622776601683795,10
3,17,0.029580100000202947,p,62.9,Unlimited Time,i,52.29073578935595,43.664641885771125,69.58597844189963,62.890798345890396,43.664641885771125,52.29073578935595,69.58597844189963,62.890798345890396,-10,-10,10,10,57,47,47,67,67,3.1622776601683795,10,3.1622776601683795,10
3,18,0.11224759999959133,o,68.5,Unlimited Time,i,33.86125750807121,43.27590099245247,68.49516012521468,69.81709240924803,43.27590099245247,33.86125750807121,68.49516012521468,69.81709240924803,-10,-10,10,10,57,47,47,67,67,3.1622776601683795,10,3.1622776601683795,10
3,19,0.16709369999989576,o,65.6,Unlimited Time,i,57.5998241825293,44.913612970570156,65.6225647264139,80.58482166843665,44.913612970570156,57.5998241825293,65.6225647264139,80.58482166843665,-10,-10,10,10,57,47,47,67,67,3.1622776601683795,10,3.1622776601683795,10
3,20,0.07715389999975741,o,70.2,Unlimited Time,i,41.63213433185156,47.39317069093268,70.16781905474404,80.13790423221762,47.39317069093268,41.63213433185156,70.16781905474404,80.13790423221762,-10,-10,10,10,57,47,47,67,67,3.1622776601683795,10,3.1622776601683795,10
4,1,,,0.0,Limited Time,l,56.368967124060646,66.41990226189503,60.718241818581255,45.25561786527978,45.25561786527978,56.368967124060646,60.718241818581255,66.41990226189503,-10,-0.33,0.33,10,57,47,56.67,57.33,67,3.1622776601683795,3.1622776601683795,3.1622776601683795,3.1622776601683795
4,2,0.13587060000008933,o,60.4,Limited Time,l,57.3091400220611,68.70387627780765,60.428842543298984,48.17890519912254,48.17890519912254,57.3091400220611,60.428842543298984,68.70387627780765,-10,-0.33,0.33,10,57,47,56.67,57.33,67,3.1622776601683795,3.1622776601683795,3.1622776601683795,3.1622776601683795
4,3,0.10082849999980681,p,49.0,Limited Time,l,56.51240599935588,70.60683135091233,51.3204318304536,49.04136087057888,49.04136087057888,56.51240599935588,51.3204318304536,70.60683135091233,-10,-0.33,0.33,10,57,47,56.67,57.33,67,3.1622776601683795,3.1622776601683795,3.1622776601683795,3.1622776601683795
4,4,0.06549199999972188,o,59.7,Limited Time,l,61.05206863206493,71.69819175829328,59.71374501866567,49.23235754380101,49.23235754380101,61.05206863206493,59.71374501866567,71.69819175829328,-10,-0.33,0.33,10,57,47,56.67,57.33,67,3.1622776601683795,3.1622776601683795,3.1622776601683795,3.1622776601683795
4,5,0.05103449999978693,o,62.6,Limited Time,l,52.9396043216236,64.17950806498395,62.60673981951709,44.94895713259908,44.94895713259908,52.9396043216236,62.60673981951709,64.17950806498395,-10,-0.33,0.33,10,57,47,56.67,57.33,67,3.1622776601683795,3.1622776601683795,3.1622776601683795,3.1622776601683795
4,6,0.08807519999982105,o,61.1,Limited Time,l,56.527215942561114,63.44809690067138,61.074882240845504,47.424773739904346,47.424773739904346,56.527215942561114,61.074882240845504,63.44809690067138,-10,-0.33,0.33,10,57,47,56.67,57.33,67,3.1622776601683795,3.1622776601683795,3.1622776601683795,3.1622776601683795
4,7,0.10870589999967706,p,45.5,Limited Time,l,56.324476702405555,67.41638684194061,59.985245263518465,45.54010108827692,45.54010108827692,56.324476702405555,59.985245263518465,67.41638684194061,-10,-0.33,0.33,10,57,47,56.67,57.33,67,3.1622776601683795,3.1622776601683795,3.1622776601683795,3.1622776601683795
4,8,0.08929359999956432,o,58.9,Limited Time,l,54.28911120111801,66.98145157803084,58.875824361378676,46.70148796010409,46.70148796010409,54.28911120111801,58.875824361378676,66.98145157803084,-10,-0.33,0.33,10,57,47,56.67,57.33,67,3.1622776601683795,3.1622776601683795,3.1622776601683795,3.1622776601683795
4,9,0.04291030000013052,o,56.9,Limited Time,l,62.996411909591004,66.04310520441923,56.87331539697867,46.064216696973446,46.064216696973446,62.996411909591004,56.87331539697867,66.04310520441923,-10,-0.33,0.33,10,57,47,56.67,57.33,67,3.1622776601683795,3.1622776601683795,3.1622776601683795,3.1622776601683795
4,10,0.003602099999625352,p,45.5,Limited Time,l,54.35858180783752,68.92041713783229,60.201936679369695,45.54522589541673,45.54522589541673,54.35858180783752,60.201936679369695,68.92041713783229,-10,-0.33,0.33,10,57,47,56.67,57.33,67,3.1622776601683795,3.1622776601683795,3.1622776601683795,3.1622776601683795
4,11,0.24412839999968128,o,61.3,Limited Time,l,60.084867682804656,62.79274433913428,61.308949909872375,43.65919554185375,43.65919554185375,60.084867682804656,61.308949909872375,62.79274433913428,-10,-0.33,0.33,10,57,47,56.67,57.33,67,3.1622776601683795,3.1622776601683795,3.1622776601683795,3.1622776601683795
4,12,0.061894199999642296,o,58.2,Limited Time,l,62.12776779382942,69.88788021850013,58.181022526859145,42.490356397925865,42.490356397925865,62.12776779382942,58.181022526859145,69.88788021850013,-10,-0.33,0.33,10,57,47,56.67,57.33,67,3.1622776601683795,3.1622776601683795,3.1622776601683795,3.1622776601683795
4,13,0.09329399999978705,o,62.9,Limited Time,l,49.62176500815641,71.87892042424077,62.85856364881946,47.54748059617083,47.54748059617083,49.62176500815641,62.85856364881946,71.87892042424077,-10,-0.33,0.33,10,57,47,56.67,57.33,67,3.1622776601683795,3.1622776601683795,3.1622776601683795,3.1622776601683795
4,14,0.13054069999952844,o,56.8,Limited Time,l,51.43380977552433,66.57980011999996,56.79545370759691,50.172714661524225,50.172714661524225,51.43380977552433,56.79545370759691,66.57980011999996,-10,-0.33,0.33,10,57,47,56.67,57.33,67,3.1622776601683795,3.1622776601683795,3.1622776601683795,3.1622776601683795
4,15,0.1443687999994836,o,59.0,Limited Time,l,56.98528427598654,63.93157556088044,58.99852351295906,44.67462996850201,44.67462996850201,56.98528427598654,58.99852351295906,63.93157556088044,-10,-0.33,0.33,10,57,47,56.67,57.33,67,3.1622776601683795,3.1622776601683795,3.1622776601683795,3.1622776601683795
4,16,0.1179747999999563,o,61.2,Limited Time,l,50.14533388464185,63.20735556081412,61.15739769649614,44.36594770422471,44.36594770422471,50.14533388464185,61.15739769649614,63.20735556081412,-10,-0.33,0.33,10,57,47,56.67,57.33,67,3.1622776601683795,3.1622776601683795,3.1622776601683795,3.1622776601683795
4,17,0.12609780000002502,p,49.0,Limited Time,l,46.00734124614873,67.50935539783175,58.26033416824695,49.02446140584044,49.02446140584044,46.00734124614873,58.26033416824695,67.50935539783175,-10,-0.33,0.33,10,57,47,56.67,57.33,67,3.1622776601683795,3.1622776601683795,3.1622776601683795,3.1622776601683795
4,18,0.14631699999972625,p,41.4,Limited Time,l,57.12447928280664,70.55186291648928,54.92392357962173,41.44929196007621,41.44929196007621,57.12447928280664,54.92392357962173,70.55186291648928,-10,-0.33,0.33,10,57,47,56.67,57.33,67,3.1622776601683795,3.1622776601683795,3.1622776601683795,3.1622776601683795
4,19,0.013299100000040198,o,55.4,Limited Time,l,58.94491530928247,62.47503876351918,55.37851158448547,45.76569045393515,45.76569045393515,58.94491530928247,55.37851158448547,62.47503876351918,-10,-0.33,0.33,10,57,47,56.67,57.33,67,3.1622776601683795,3.1622776601683795,3.1622776601683795,3.1622776601683795
4,20,0.1048848000000362,o,52.3,Limited Time,l,57.74372241628246,64.76243879503168,52.26652616343877,49.727214756702864,49.727214756702864,57.74372241628246,52.26652616343877,64.76243879503168,-10,-0.33,0.33,10,57,47,56.67,57.33,67,3.1622776601683795,3.1622776601683795,3.1622776601683795,3.1622776601683795
5,1,1.3107006000000183,p,59.3,Unlimited Time,e,39.596733369922,56.465531972624085,67.58647700235105,59.30653451657721,56.465531972624085,67.58647700235105,59.30653451657721,39.596733369922,0,0,0,0,57,57,57,57,57,3.1622776601683795,6.324555320336759,8.366600265340756,10
5,2,0.4729471000000558,o,49.7,Unlimited Time,e,62.434774362456615,52.345562745505845,49.682976784518296,50.77855631697375,52.345562745505845,49.682976784518296,50.77855631697375,62.434774362456615,0,0,0,0,57,57,57,57,57,3.1622776601683795,6.324555320336759,8.366600265340756,10
5,3,0.3562549999996918,w,52.2,Unlimited Time,e,71.68380638799803,52.225764922100154,54.01763441833137,59.03962260680747,52.225764922100154,54.01763441833137,59.03962260680747,71.68380638799803,0,0,0,0,57,57,57,57,57,3.1622776601683795,6.324555320336759,8.366600265340756,10
5,4,0.19652339999993274,q,46.7,Unlimited Time,e,46.74728020905572,56.69776147131247,63.53643913717448,52.644653700349885,56.69776147131247,63.53643913717448,52.644653700349885,46.74728020905572,0,0,0,0,57,57,57,57,57,3.1622776601683795,6.324555320336759,8.366600265340756,10
5,5,0.05230219999975816,q,30.3,Unlimited Time,e,30.317295033276796,53.41604808555704,52.667026475286846,60.68405821980522,53.41604808555704,52.667026475286846,60.68405821980522,30.317295033276796,0,0,0,0,57,57,57,57,57,3.1622776601683795,6.324555320336759,8.366600265340756,10
5,6,0.38760309999997844,w,63.0,Unlimited Time,e,57.833871241364,63.04447106423426,66.06464959044122,58.209910498924685,63.04447106423426,66.06464959044122,58.209910498924685,57.833871241364,0,0,0,0,57,57,57,57,57,3.1622776601683795,6.324555320336759,8.366600265340756,10
5,7,0.2937569999999141,o,50.1,Unlimited Time,e,41.873512249152704,60.40384460637954,50.078377444363355,48.434144082708,60.40384460637954,50.078377444363355,48.434144082708,41.873512249152704,0,0,0,0,57,57,57,57,57,3.1622776601683795,6.324555320336759,8.366600265340756,10
5,8,0.37111400000003414,p,69.8,Unlimited Time,e,62.75277548495568,54.16414054425274,47.90388895012321,69.84818250883363,54.16414054425274,47.90388895012321,69.84818250883363,62.75277548495568,0,0,0,0,57,57,57,57,57,3.1622776601683795,6.324555320336759,8.366600265340756,10
5,9,0.2706300999998348,o,63.3,Unlimited Time,e,54.91648426597019,58.021561873824794,63.26966235115186,60.08514411783962,58.021561873824794,63.26966235115186,60.08514411783962,54.91648426597019,0,0,0,0,57,57,57,57,57,3.1622776601683795,6.324555320336759,8.366600265340756,10
5,10,0.18152479999980642,p,65.0,Unlimited Time,e,62.8759939143071,57.80119738804358,64.12957499375655,64.99936921549961,57.80119738804358,64.12957499375655,64.99936921549961,62.8759939143071,0,0,0,0,57,57,57,57,57,3.1622776601683795,6.324555320336759,8.366600265340756,10
5,11,0.32494239999959973,p,42.8,Unlimited Time,e,75.86597195415673,51.323563537141226,57.5611624444123,42.77524979287827,51.323563537141226,57.5611624444123,42.77524979287827,75.86597195415673,0,0,0,0,57,57,57,57,57,3.1622776601683795,6.324555320336759,8.366600265340756,10
5,12,0.3221130999995694,w,53.7,Unlimited Time,e,49.21084409372868,53.73680167181395,60.848551426339505,57.594689145344596,53.73680167181395,60.848551426339505,57.594689145344596,49.21084409372868,0,0,0,0,57,57,57,57,57,3.1622776601683795,6.324555320336759,8.366600265340756,10
5,13,0.27606539999987945,p,58.4,Unlimited Time,e,70.54879534781504,57.911771702601975,65.57567466291727,58.40200978819262,57.911771702601975,65.57567466291727,58.40200978819262,70.54879534781504,0,0,0,0,57,57,57,57,57,3.1622776601683795,6.324555320336759,8.366600265340756,10
5,14,0.2293306999995366,o,70.8,Unlimited Time,e,56.302252402269055,54.01031683122003,70.76438082458621,60.9156103399484,54.01031683122003,70.76438082458621,60.9156103399484,56.302252402269055,0,0,0,0,57,57,57,57,57,3.1622776601683795,6.324555320336759,8.366600265340756,10
5,15,0.2253700999999637,p,61.0,Unlimited Time,e,71.89807410394312,58.250227049479975,54.283745782535796,61.01045991163371,58.250227049479975,54.283745782535796,61.01045991163371,71.89807410394312,0,0,0,0,57,57,57,57,57,3.1622776601683795,6.324555320336759,8.366600265340756,10
5,16,0.22134570000025633,o,57.0,Unlimited Time,e,62.464062755990476,58.53452492708775,57.01966652725422,56.75218743994431,58.53452492708775,57.01966652725422,56.75218743994431,62.464062755990476,0,0,0,0,57,57,57,57,57,3.1622776601683795,6.324555320336759,8.366600265340756,10
5,17,0.49775369999997565,p,58.1,Unlimited Time,e,55.92212698080517,58.8934703177368,58.485449137566704,58.08235986307151,58.8934703177368,58.485449137566704,58.08235986307151,55.92212698080517,0,0,0,0,57,57,57,57,57,3.1622776601683795,6.324555320336759,8.366600265340756,10
5,18,0.24715639999976702,w,53.9,Unlimited Time,e,60.38043540441062,53.903041057473935,47.53208311192344,54.247454304787226,53.903041057473935,47.53208311192344,54.247454304787226,60.38043540441062,0,0,0,0,57,57,57,57,57,3.1622776601683795,6.324555320336759,8.366600265340756,10
5,19,0.19455310000012105,q,61.0,Unlimited Time,e,61.001738858984794,50.921560638029,55.19107698710192,74.07401727165592,50.921560638029,55.19107698710192,74.07401727165592,61.001738858984794,0,0,0,0,57,57,57,57,57,3.1622776601683795,6.324555320336759,8.366600265340756,10
5,20,0.20080189999998765,w,53.3,Unlimited Time,e,49.66306858190879,53.293278462347345,56.57136698218436,52.80191412496484,53.293278462347345,56.57136698218436,52.80191412496484,49.66306858190879,0,0,0,0,57,57,57,57,57,3.1622776601683795,6.324555320336759,8.366600265340756,10
6,1,,,0.0,Limited Time,l,45.25561786527978,56.368967124060646,60.718241818581255,66.41990226189503,45.25561786527978,56.368967124060646,60.718241818581255,66.41990226189503,-10,-0.33,0.33,10,57,47,56.67,57.33,67,3.1622776601683795,3.1622776601683795,3.1622776601683795,3.1622776601683795
6,2,0.043314099999861355,o,60.4,Limited Time,l,48.17890519912254,57.3091400220611,60.428842543298984,68.70387627780765,48.17890519912254,57.3091400220611,60.428842543298984,68.70387627780765,-10,-0.33,0.33,10,57,47,56.67,57.33,67,3.1622776601683795,3.1622776601683795,3.1622776601683795,3.1622776601683795
6,3,0.14776080000001457,o,51.3,Limited Time,l,49.04136087057888,56.51240599935588,51.3204318304536,70.60683135091233,49.04136087057888,56.51240599935588,51.3204318304536,70.60683135091233,-10,-0.33,0.33,10,57,47,56.67,57.33,67,3.1622776601683795,3.1622776601683795,3.1622776601683795,3.1622776601683795
6,4,0.12225739999985308,o,59.7,Limited Time,l,49.23235754380101,61.05206863206493,59.71374501866567,71.69819175829328,49.23235754380101,61.05206863206493,59.71374501866567,71.69819175829328,-10,-0.33,0.33,10,57,47,56.67,57.33,67,3.1622776601683795,3.1622776601683795,3.1622776601683795,3.1622776601683795
6,5,0.11120559999972102,o,62.6,Limited Time,l,44.94895713259908,52.9396043216236,62.60673981951709,64.17950806498395,44.94895713259908,52.9396043216236,62.60673981951709,64.17950806498395,-10,-0.33,0.33,10,57,47,56.67,57.33,67,3.1622776601683795,3.1622776601683795,3.1622776601683795,3.1622776601683795
6,6,0.07269499999983964,o,61.1,Limited Time,l,47.424773739904346,56.527215942561114,61.074882240845504,63.44809690067138,47.424773739904346,56.527215942561114,61.074882240845504,63.44809690067138,-10,-0.33,0.33,10,57,47,56.67,57.33,67,3.1622776601683795,3.1622776601683795,3.1622776601683795,3.1622776601683795
6,7,0.08025009999983013,o,60.0,Limited Time,l,45.54010108827692,56.324476702405555,59.985245263518465,67.41638684194061,45.54010108827692,56.324476702405555,59.985245263518465,67.41638684194061,-10,-0.33,0.33,10,57,47,56.67,57.33,67,3.1622776601683795,3.1622776601683795,3.1622776601683795,3.1622776601683795
6,8,0.0719664999996894,p,67.0,Limited Time,l,46.70148796010409,54.28911120111801,58.875824361378676,66.98145157803084,46.70148796010409,54.28911120111801,58.875824361378676,66.98145157803084,-10,-0.33,0.33,10,57,47,56.67,57.33,67,3.1622776601683795,3.1622776601683795,3.1622776601683795,3.1622776601683795
6,9,0.07684509999990041,o,56.9,Limited Time,l,46.064216696973446,62.996411909591004,56.87331539697867,66.04310520441923,46.064216696973446,62.996411909591004,56.87331539697867,66.04310520441923,-10,-0.33,0.33,10,57,47,56.67,57.33,67,3.1622776601683795,3.1622776601683795,3.1622776601683795,3.1622776601683795
6,10,0.06900349999978062,o,60.2,Limited Time,l,45.54522589541673,54.35858180783752,60.201936679369695,68.92041713783229,45.54522589541673,54.35858180783752,60.201936679369695,68.92041713783229,-10,-0.33,0.33,10,57,47,56.67,57.33,67,3.1622776601683795,3.1622776601683795,3.1622776601683795,3.1622776601683795
6,11,0.10731649999979709,p,62.8,Limited Time,l,43.65919554185375,60.084867682804656,61.308949909872375,62.79274433913428,43.65919554185375,60.084867682804656,61.308949909872375,62.79274433913428,-10,-0.33,0.33,10,57,47,56.67,57.33,67,3.1622776601683795,3.1622776601683795,3.1622776601683795,3.1622776601683795
6,12,0.13198490000013408,o,58.2,Limited Time,l,42.490356397925865,62.12776779382942,58.181022526859145,69.88788021850013,42.490356397925865,62.12776779382942,58.181022526859145,69.88788021850013,-10,-0.33,0.33,10,57,47,56.67,57.33,67,3.1622776601683795,3.1622776601683795,3.1622776601683795,3.1622776601683795
6,13,0.18137389999992592,p,71.9,Limited Time,l,47.54748059617083,49.62176500815641,62.85856364881946,71.87892042424077,47.54748059617083,49.62176500815641,62.85856364881946,71.87892042424077,-10,-0.33,0.33,10,57,47,56.67,57.33,67,3.1622776601683795,3.1622776601683795,3.1622776601683795,3.1622776601683795
6,14,0.15620669999998427,o,56.8,Limited Time,l,50.172714661524225,51.43380977552433,56.79545370759691,66.57980011999996,50.172714661524225,51.43380977552433,56.79545370759691,66.57980011999996,-10,-0.33,0.33,10,57,47,56.67,57.33,67,3.1622776601683795,3.1622776601683795,3.1622776601683795,3.1622776601683795
6,15,0.028176799999982904,o,59.0,Limited Time,l,44.67462996850201,56.98528427598654,58.99852351295906,63.93157556088044,44.67462996850201,56.98528427598654,58.99852351295906,63.93157556088044,-10,-0.33,0.33,10,57,47,56.67,57.33,67,3.1622776601683795,3.1622776601683795,3.1622776601683795,3.1622776601683795
6,16,0.14958419999993566,o,61.2,Limited Time,l,44.36594770422471,50.14533388464185,61.15739769649614,63.20735556081412,44.36594770422471,50.14533388464185,61.15739769649614,63.20735556081412,-10,-0.33,0.33,10,57,47,56.67,57.33,67,3.1622776601683795,3.1622776601683795,3.1622776601683795,3.1622776601683795
6,17,0.14838919999965583,p,67.5,Limited Time,l,49.02446140584044,46.00734124614873,58.26033416824695,67.50935539783175,49.02446140584044,46.00734124614873,58.26033416824695,67.50935539783175,-10,-0.33,0.33,10,57,47,56.67,57.33,67,3.1622776601683795,3.1622776601683795,3.1622776601683795,3.1622776601683795
6,18,0.1477695999997195,p,70.6,Limited Time,l,41.44929196007621,57.12447928280664,54.92392357962173,70.55186291648928,41.44929196007621,57.12447928280664,54.92392357962173,70.55186291648928,-10,-0.33,0.33,10,57,47,56.67,57.33,67,3.1622776601683795,3.1622776601683795,3.1622776601683795,3.1622776601683795
6,19,0.1508867999996255,o,55.4,Limited Time,l,45.76569045393515,58.94491530928247,55.37851158448547,62.47503876351918,45.76569045393515,58.94491530928247,55.37851158448547,62.47503876351918,-10,-0.33,0.33,10,57,47,56.67,57.33,67,3.1622776601683795,3.1622776601683795,3.1622776601683795,3.1622776601683795
6,20,0.20979979999992793,o,52.3,Limited Time,l,49.727214756702864,57.74372241628246,52.26652616343877,64.76243879503168,49.727214756702864,57.74372241628246,52.26652616343877,64.76243879503168,-10,-0.33,0.33,10,57,47,56.67,57.33,67,3.1622776601683795,3.1622776601683795,3.1622776601683795,3.1622776601683795
7,1,0.9700320999995711,o,52.7,Unlimited Time,h,57.563852884737905,67.33765819243881,52.6633374872379,42.9728912464562,42.9728912464562,57.563852884737905,67.33765819243881,52.6633374872379,-10,-0.33,0.33,10,57,47,56.67,57.33,67,10,10,10,10
7,2,0.034781699999712146,o,84.4,Unlimited Time,h,50.99721031937535,63.269744481103196,84.38987191037262,30.427664813485997,30.427664813485997,50.99721031937535,63.269744481103196,84.38987191037262,-10,-0.33,0.33,10,57,47,56.67,57.33,67,10,10,10,10
7,3,0.22719869999991715,p,51.5,Unlimited Time,h,66.72412377388042,57.42139916940577,52.36266604069699,51.499593842145124,51.499593842145124,66.72412377388042,57.42139916940577,52.36266604069699,-10,-0.33,0.33,10,57,47,56.67,57.33,67,10,10,10,10
7,4,0.20550030000003972,o,75.6,Unlimited Time,h,41.75541850201361,43.22144328808977,75.58877444541122,56.91712293208295,56.91712293208295,41.75541850201361,43.22144328808977,75.58877444541122,-10,-0.33,0.33,10,57,47,56.67,57.33,67,10,10,10,10
7,5,0.02882469999985915,p,67.4,Unlimited Time,h,69.73294175484509,77.78727317693739,74.55102227501352,67.37441233731187,67.37441233731187,69.73294175484509,77.78727317693739,74.55102227501352,-10,-0.33,0.33,10,57,47,56.67,57.33,67,10,10,10,10
7,6,0.12637829999948735,o,79.9,Unlimited Time,h,62.75207029277821,57.906276939512594,79.94313009710952,38.103650653684724,38.103650653684724,62.75207029277821,57.906276939512594,79.94313009710952,-10,-0.33,0.33,10,57,47,56.67,57.33,67,10,10,10,10
7,7,0.15292730000010124,p,40.2,Unlimited Time,h,45.093406462945936,66.3821439821838,79.58897689262741,40.20449234456857,40.20449234456857,45.093406462945936,66.3821439821838,79.58897689262741,-10,-0.33,0.33,10,57,47,56.67,57.33,67,10,10,10,10
7,8,0.11066589999973075,p,51.2,Unlimited Time,h,44.979071197022236,46.433064457039784,56.69850829150133,51.15921699950482,51.15921699950482,44.979071197022236,46.433064457039784,56.69850829150133,-10,-0.33,0.33,10,57,47,56.67,57.33,67,10,10,10,10
7,9,0.16259790000003704,p,64.2,Unlimited Time,h,51.569120413659434,44.343339704151504,82.19559265307574,64.17056839193523,64.17056839193523,51.569120413659434,44.343339704151504,82.19559265307574,-10,-0.33,0.33,10,57,47,56.67,57.33,67,10,10,10,10
7,10,0.1667301000002226,p,51.3,Unlimited Time,h,52.17571418266315,57.68554146119674,74.37241477784347,51.265552391609845,51.265552391609845,52.17571418266315,57.68554146119674,74.37241477784347,-10,-0.33,0.33,10,57,47,56.67,57.33,67,10,10,10,10
7,11,0.09839990000000398,o,65.6,Unlimited Time,h,75.71164656094832,65.02602164600187,65.56925505058581,59.37504734049243,59.37504734049243,75.71164656094832,65.02602164600187,65.56925505058581,-10,-0.33,0.33,10,57,47,56.67,57.33,67,10,10,10,10
7,12,0.07646040000008725,w,63.9,Unlimited Time,h,63.744969093540874,63.91285129429563,66.52807017023136,31.902280448679157,31.902280448679157,63.744969093540874,63.91285129429563,66.52807017023136,-10,-0.33,0.33,10,57,47,56.67,57.33,67,10,10,10,10
7,13,0.0060026000001016655,w,60.4,Unlimited Time,h,42.43809845200622,60.35690332319919,63.749244339249444,23.178354266819106,23.178354266819106,42.43809845200622,60.35690332319919,63.749244339249444,-10,-0.33,0.33,10,57,47,56.67,57.33,67,10,10,10,10
7,14,0.02965589999985241,w,56.2,Unlimited Time,h,61.37203058942002,56.19496431218655,77.19494276411594,37.57521010451204,37.57521010451204,61.37203058942002,56.19496431218655,77.19494276411594,-10,-0.33,0.33,10,57,47,56.67,57.33,67,10,10,10,10
7,15,0.08952730000009979,q,44.0,Unlimited Time,h,43.97650351576827,60.38947742174229,55.50212136648946,56.43681286341695,56.43681286341695,43.97650351576827,60.38947742174229,55.50212136648946,-10,-0.33,0.33,10,57,47,56.67,57.33,67,10,10,10,10
7,16,0.04254609999952663,w,35.4,Unlimited Time,h,60.53095291727671,35.36386992312366,81.34808766953319,30.454998600837026,30.454998600837026,60.53095291727671,35.36386992312366,81.34808766953319,-10,-0.33,0.33,10,57,47,56.67,57.33,67,10,10,10,10
7,17,0.021287699999902543,p,39.8,Unlimited Time,h,76.7919011019001,52.42216329664252,57.4473522377711,39.75167774068086,39.75167774068086,76.7919011019001,52.42216329664252,57.4473522377711,-10,-0.33,0.33,10,57,47,56.67,57.33,67,10,10,10,10
7,18,1.7976610999999139,p,36.6,Unlimited Time,h,49.65020803789663,49.36919591936875,52.44341269991529,36.624268672543366,36.624268672543366,49.65020803789663,49.36919591936875,52.44341269991529,-10,-0.33,0.33,10,57,47,56.67,57.33,67,10,10,10,10
7,19,0.17737549999992552,p,12.9,Unlimited Time,h,59.2353865621997,26.808918609549625,62.66660264827718,12.891681256208287,12.891681256208287,59.2353865621997,26.808918609549625,62.66660264827718,-10,-0.33,0.33,10,57,47,56.67,57.33,67,10,10,10,10
7,20,0.4413582999995924,o,63.2,Unlimited Time,h,50.36207144623556,49.72814230404106,63.20049037382662,48.675524840519074,48.675524840519074,50.36207144623556,49.72814230404106,63.20049037382662,-10,-0.33,0.33,10,57,47,56.67,57.33,67,10,10,10,10
8,1,0.19529299999976502,o,56.5,Limited Time,e,67.58647700235105,59.30653451657721,56.465531972624085,39.596733369922,56.465531972624085,67.58647700235105,59.30653451657721,39.596733369922,0,0,0,0,57,57,57,57,57,3.1622776601683795,6.324555320336759,8.366600265340756,10
8,2,0.056272700000135956,o,52.3,Limited Time,e,49.682976784518296,50.77855631697375,52.345562745505845,62.434774362456615,52.345562745505845,49.682976784518296,50.77855631697375,62.434774362456615,0,0,0,0,57,57,57,57,57,3.1622776601683795,6.324555320336759,8.366600265340756,10
8,3,0.13430269999980737,o,52.2,Limited Time,e,54.01763441833137,59.03962260680747,52.225764922100154,71.68380638799803,52.225764922100154,54.01763441833137,59.03962260680747,71.68380638799803,0,0,0,0,57,57,57,57,57,3.1622776601683795,6.324555320336759,8.366600265340756,10
8,4,0.05591049999975439,p,46.7,Limited Time,e,63.53643913717448,52.644653700349885,56.69776147131247,46.74728020905572,56.69776147131247,63.53643913717448,52.644653700349885,46.74728020905572,0,0,0,0,57,57,57,57,57,3.1622776601683795,6.324555320336759,8.366600265340756,10
8,5,0.1425072000001819,o,53.4,Limited Time,e,52.667026475286846,60.68405821980522,53.41604808555704,30.317295033276796,53.41604808555704,52.667026475286846,60.68405821980522,30.317295033276796,0,0,0,0,57,57,57,57,57,3.1622776601683795,6.324555320336759,8.366600265340756,10
8,6,0.11045679999961067,p,57.8,Limited Time,e,66.06464959044122,58.209910498924685,63.04447106423426,57.833871241364,63.04447106423426,66.06464959044122,58.209910498924685,57.833871241364,0,0,0,0,57,57,57,57,57,3.1622776601683795,6.324555320336759,8.366600265340756,10
8,7,0.08213889999979074,o,60.4,Limited Time,e,50.078377444363355,48.434144082708,60.40384460637954,41.873512249152704,60.40384460637954,50.078377444363355,48.434144082708,41.873512249152704,0,0,0,0,57,57,57,57,57,3.1622776601683795,6.324555320336759,8.366600265340756,10
8,8,0.12108869999974559,p,62.8,Limited Time,e,47.90388895012321,69.84818250883363,54.16414054425274,62.75277548495568,54.16414054425274,47.90388895012321,69.84818250883363,62.75277548495568,0,0,0,0,57,57,57,57,57,3.1622776601683795,6.324555320336759,8.366600265340756,10
8,9,0.10644689999980983,o,58.0,Limited Time,e,63.26966235115186,60.08514411783962,58.021561873824794,54.91648426597019,58.021561873824794,63.26966235115186,60.08514411783962,54.91648426597019,0,0,0,0,57,57,57,57,57,3.1622776601683795,6.324555320336759,8.366600265340756,10
8,10,0.1394159999999829,o,57.8,Limited Time,e,64.12957499375655,64.99936921549961,57.80119738804358,62.8759939143071,57.80119738804358,64.12957499375655,64.99936921549961,62.8759939143071,0,0,0,0,57,57,57,57,57,3.1622776601683795,6.324555320336759,8.366600265340756,10
8,11,0.13628379999954632,o,51.3,Limited Time,e,57.5611624444123,42.77524979287827,51.323563537141226,75.86597195415673,51.323563537141226,57.5611624444123,42.77524979287827,75.86597195415673,0,0,0,0,57,57,57,57,57,3.1622776601683795,6.324555320336759,8.366600265340756,10
8,12,0.2113784999996824,o,53.7,Limited Time,e,60.848551426339505,57.594689145344596,53.73680167181395,49.21084409372868,53.73680167181395,60.848551426339505,57.594689145344596,49.21084409372868,0,0,0,0,57,57,57,57,57,3.1622776601683795,6.324555320336759,8.366600265340756,10
8,13,0.19241859999965527,p,70.5,Limited Time,e,65.57567466291727,58.40200978819262,57.911771702601975,70.54879534781504,57.911771702601975,65.57567466291727,58.40200978819262,70.54879534781504,0,0,0,0,57,57,57,57,57,3.1622776601683795,6.324555320336759,8.366600265340756,10
8,14,0.16670419999991282,p,56.3,Limited Time,e,70.76438082458621,60.9156103399484,54.01031683122003,56.302252402269055,54.01031683122003,70.76438082458621,60.9156103399484,56.302252402269055,0,0,0,0,57,57,57,57,57,3.1622776601683795,6.324555320336759,8.366600265340756,10
8,15,0.18167259999972885,p,71.9,Limited Time,e,54.283745782535796,61.01045991163371,58.250227049479975,71.89807410394312,58.250227049479975,54.283745782535796,61.01045991163371,71.89807410394312,0,0,0,0,57,57,57,57,57,3.1622776601683795,6.324555320336759,8.366600265340756,10
8,16,0.027786599999672035,p,62.5,Limited Time,e,57.01966652725422,56.75218743994431,58.53452492708775,62.464062755990476,58.53452492708775,57.01966652725422,56.75218743994431,62.464062755990476,0,0,0,0,57,57,57,57,57,3.1622776601683795,6.324555320336759,8.366600265340756,10
8,17,0.027315399999679357,p,55.9,Limited Time,e,58.485449137566704,58.08235986307151,58.8934703177368,55.92212698080517,58.8934703177368,58.485449137566704,58.08235986307151,55.92212698080517,0,0,0,0,57,57,57,57,57,3.1622776601683795,6.324555320336759,8.366600265340756,10
8,18,0.20118849999971644,o,53.9,Limited Time,e,47.53208311192344,54.247454304787226,53.903041057473935,60.38043540441062,53.903041057473935,47.53208311192344,54.247454304787226,60.38043540441062,0,0,0,0,57,57,57,57,57,3.1622776601683795,6.324555320336759,8.366600265340756,10
8,19,0.13364499999988766,p,61.0,Limited Time,e,55.19107698710192,74.07401727165592,50.921560638029,61.001738858984794,50.921560638029,55.19107698710192,74.07401727165592,61.001738858984794,0,0,0,0,57,57,57,57,57,3.1622776601683795,6.324555320336759,8.366600265340756,10
8,20,0.19646610000017972,p,49.7,Limited Time,e,56.57136698218436,52.80191412496484,53.293278462347345,49.66306858190879,53.293278462347345,56.57136698218436,52.80191412496484,49.66306858190879,0,0,0,0,57,57,57,57,57,3.1622776601683795,6.324555320336759,8.366600265340756,10
9,1,1.2591566000000967,o,59.3,Unlimited Time,e,67.58647700235105,39.596733369922,59.30653451657721,56.465531972624085,56.465531972624085,67.58647700235105,59.30653451657721,39.596733369922,0,0,0,0,57,57,57,57,57,3.1622776601683795,6.324555320336759,8.366600265340756,10
9,2,0.5547406000000592,w,62.4,Unlimited Time,e,49.682976784518296,62.434774362456615,50.77855631697375,52.345562745505845,52.345562745505845,49.682976784518296,50.77855631697375,62.434774362456615,0,0,0,0,57,57,57,57,57,3.1622776601683795,6.324555320336759,8.366600265340756,10
9,3,0.24578780000001643,q,54.0,Unlimited Time,e,54.01763441833137,71.68380638799803,59.03962260680747,52.225764922100154,52.225764922100154,54.01763441833137,59.03962260680747,71.68380638799803,0,0,0,0,57,57,57,57,57,3.1622776601683795,6.324555320336759,8.366600265340756,10
9,4,0.1709912000001168,o,52.6,Unlimited Time,e,63.53643913717448,46.74728020905572,52.644653700349885,56.69776147131247,56.69776147131247,63.53643913717448,52.644653700349885,46.74728020905572,0,0,0,0,57,57,57,57,57,3.1622776601683795,6.324555320336759,8.366600265340756,10
9,5,0.0014286999999058025,p,53.4,Unlimited Time,e,52.667026475286846,30.317295033276796,60.68405821980522,53.41604808555704,53.41604808555704,52.667026475286846,60.68405821980522,30.317295033276796,0,0,0,0,57,57,57,57,57,3.1622776601683795,6.324555320336759,8.366600265340756,10
9,6,0.026788899999701243,o,58.2,Unlimited Time,e,66.06464959044122,57.833871241364,58.209910498924685,63.04447106423426,63.04447106423426,66.06464959044122,58.209910498924685,57.833871241364,0,0,0,0,57,57,57,57,57,3.1622776601683795,6.324555320336759,8.366600265340756,10
9,7,0.3271898999996665,p,60.4,Unlimited Time,e,50.078377444363355,41.873512249152704,48.434144082708,60.40384460637954,60.40384460637954,50.078377444363355,48.434144082708,41.873512249152704,0,0,0,0,57,57,57,57,57,3.1622776601683795,6.324555320336759,8.366600265340756,10
9,8,0.35843249999970794,w,62.8,Unlimited Time,e,47.90388895012321,62.75277548495568,69.84818250883363,54.16414054425274,54.16414054425274,47.90388895012321,69.84818250883363,62.75277548495568,0,0,0,0,57,57,57,57,57,3.1622776601683795,6.324555320336759,8.366600265340756,10
9,9,0.14124189999984083,q,63.3,Unlimited Time,e,63.26966235115186,54.91648426597019,60.08514411783962,58.021561873824794,58.021561873824794,63.26966235115186,60.08514411783962,54.91648426597019,0,0,0,0,57,57,57,57,57,3.1622776601683795,6.324555320336759,8.366600265340756,10
9,10,0.442019000000073,q,64.1,Unlimited Time,e,64.12957499375655,62.8759939143071,64.99936921549961,57.80119738804358,57.80119738804358,64.12957499375655,64.99936921549961,62.8759939143071,0,0,0,0,57,57,57,57,57,3.1622776601683795,6.324555320336759,8.366600265340756,10
9,11,0.2174846000002617,q,57.6,Unlimited Time,e,57.5611624444123,75.86597195415673,42.77524979287827,51.323563537141226,51.323563537141226,57.5611624444123,42.77524979287827,75.86597195415673,0,0,0,0,57,57,57,57,57,3.1622776601683795,6.324555320336759,8.366600265340756,10
9,12,0.40106499999956213,p,53.7,Unlimited Time,e,60.848551426339505,49.21084409372868,57.594689145344596,53.73680167181395,53.73680167181395,60.848551426339505,57.594689145344596,49.21084409372868,0,0,0,0,57,57,57,57,57,3.1622776601683795,6.324555320336759,8.366600265340756,10
9,13,0.03069119999963732,w,70.5,Unlimited Time,e,65.57567466291727,70.54879534781504,58.40200978819262,57.911771702601975,57.911771702601975,65.57567466291727,58.40200978819262,70.54879534781504,0,0,0,0,57,57,57,57,57,3.1622776601683795,6.324555320336759,8.366600265340756,10
9,14,0.20917929999995977,q,70.8,Unlimited Time,e,70.76438082458621,56.302252402269055,60.9156103399484,54.01031683122003,54.01031683122003,70.76438082458621,60.9156103399484,56.302252402269055,0,0,0,0,57,57,57,57,57,3.1622776601683795,6.324555320336759,8.366600265340756,10
9,15,0.3172712999999021,p,58.3,Unlimited Time,e,54.283745782535796,71.89807410394312,61.01045991163371,58.250227049479975,58.250227049479975,54.283745782535796,61.01045991163371,71.89807410394312,0,0,0,0,57,57,57,57,57,3.1622776601683795,6.324555320336759,8.366600265340756,10
9,16,0.1694711999998617,q,57.0,Unlimited Time,e,57.01966652725422,62.464062755990476,56.75218743994431,58.53452492708775,58.53452492708775,57.01966652725422,56.75218743994431,62.464062755990476,0,0,0,0,57,57,57,57,57,3.1622776601683795,6.324555320336759,8.366600265340756,10
9,17,0.044990799999595765,w,55.9,Unlimited Time,e,58.485449137566704,55.92212698080517,58.08235986307151,58.8934703177368,58.8934703177368,58.485449137566704,58.08235986307151,55.92212698080517,0,0,0,0,57,57,57,57,57,3.1622776601683795,6.324555320336759,8.366600265340756,10
9,18,0.29356919999963793,q,47.5,Unlimited Time,e,47.53208311192344,60.38043540441062,54.247454304787226,53.903041057473935,53.903041057473935,47.53208311192344,54.247454304787226,60.38043540441062,0,0,0,0,57,57,57,57,57,3.1622776601683795,6.324555320336759,8.366600265340756,10
9,19,0.008225399999901128,q,55.2,Unlimited Time,e,55.19107698710192,61.001738858984794,74.07401727165592,50.921560638029,50.921560638029,55.19107698710192,74.07401727165592,61.001738858984794,0,0,0,0,57,57,57,57,57,3.1622776601683795,6.324555320336759,8.366600265340756,10
9,20,0.12244559999999183,w,49.7,Unlimited Time,e,56.57136698218436,49.66306858190879,52.80191412496484,53.293278462347345,53.293278462347345,56.57136698218436,52.80191412496484,49.66306858190879,0,0,0,0,57,57,57,57,57,3.1622776601683795,6.324555320336759,8.366600265340756,10
10,1,0.21068650000006528,w,90.0,Limited Time,i,68.35330197679414,89.97287016117079,49.37033036744107,46.27258957515458,49.37033036744107,46.27258957515458,68.35330197679414,89.97287016117079,-10,-10,10,10,57,47,47,67,67,3.1622776601683795,10,3.1622776601683795,10
10,2,0.01525679999986096,q,68.2,Limited Time,i,68.15822680935528,70.31532227825898,47.74927285657247,49.92591038844341,47.74927285657247,49.92591038844341,68.15822680935528,70.31532227825898,-10,-10,10,10,57,47,47,67,67,3.1622776601683795,10,3.1622776601683795,10
10,3,0.013353299999835144,q,62.0,Limited Time,i,62.008332130370235,61.040383562972956,49.04761695454275,57.459240061448995,49.04761695454275,57.459240061448995,62.008332130370235,61.040383562972956,-10,-10,10,10,57,47,47,67,67,3.1622776601683795,10,3.1622776601683795,10
10,4,0.014128499999515043,w,50.1,Limited Time,i,67.55817935194708,50.1047743224648,45.31093973235453,70.3523701604351,45.31093973235453,70.3523701604351,67.55817935194708,50.1047743224648,-10,-10,10,10,57,47,47,67,67,3.1622776601683795,10,3.1622776601683795,10
10,5,0.08819760000005772,w,79.7,Limited Time,i,69.44454347210285,79.73519411497266,52.53340766212899,34.2222333874926,52.53340766212899,34.2222333874926,69.44454347210285,79.73519411497266,-10,-10,10,10,57,47,47,67,67,3.1622776601683795,10,3.1622776601683795,10
10,6,0.20563169999968522,w,73.4,Limited Time,i,64.09037004412646,73.39485840519092,50.27558209567519,42.75865127587312,50.27558209567519,42.75865127587312,64.09037004412646,73.39485840519092,-10,-10,10,10,57,47,47,67,67,3.1622776601683795,10,3.1622776601683795,10
10,7,0.06653029999961291,w,63.1,Limited Time,i,66.46933811250318,63.08825970326073,46.95975245537711,66.95715002478548,46.95975245537711,66.95715002478548,66.46933811250318,63.08825970326073,-10,-10,10,10,57,47,47,67,67,3.1622776601683795,10,3.1622776601683795,10
10,8,0.24862899999970978,w,74.2,Limited Time,i,70.01718814868724,74.16613100146367,51.58162174194558,28.891120685858446,51.58162174194558,28.891120685858446,70.01718814868724,74.16613100146367,-10,-10,10,10,57,47,47,67,67,3.1622776601683795,10,3.1622776601683795,10
10,9,0.20828099999971528,q,69.3,Limited Time,i,69.26987555652939,66.41921018433221,53.006789367940634,34.365112231281365,53.006789367940634,34.365112231281365,69.26987555652939,66.41921018433221,-10,-10,10,10,57,47,47,67,67,3.1622776601683795,10,3.1622776601683795,10
10,10,0.07058210000013787,w,52.9,Limited Time,i,63.77759123377516,52.90497000505259,47.610403231891944,34.413142733390146,47.610403231891944,34.413142733390146,63.77759123377516,52.90497000505259,-10,-10,10,10,57,47,47,67,67,3.1622776601683795,10,3.1622776601683795,10
10,11,0.10602310000012949,q,66.9,Limited Time,i,66.8569183636581,59.74271376676367,41.664870784160684,42.75248707645083,41.664870784160684,42.75248707645083,66.8569183636581,59.74271376676367,-10,-10,10,10,57,47,47,67,67,3.1622776601683795,10,3.1622776601683795,10
10,12,0.10671370000000024,q,66.8,Limited Time,i,66.7784246248178,74.80822368012255,49.38940500163702,52.62472772769108,49.38940500163702,52.62472772769108,66.7784246248178,74.80822368012255,-10,-10,10,10,57,47,47,67,67,3.1622776601683795,10,3.1622776601683795,10
10,13,0.06248920000007274,q,63.0,Limited Time,i,62.98289830588046,63.50278301790134,44.688424599783374,42.24939305844852,44.688424599783374,42.24939305844852,62.98289830588046,63.50278301790134,-10,-10,10,10,57,47,47,67,67,3.1622776601683795,10,3.1622776601683795,10
10,14,0.09235529999978098,q,70.3,Limited Time,i,70.26315649299553,48.79094126858503,49.38371441148057,47.58065763218528,49.38371441148057,47.58065763218528,70.26315649299553,48.79094126858503,-10,-10,10,10,57,47,47,67,67,3.1622776601683795,10,3.1622776601683795,10
10,15,0.08851809999987381,q,65.7,Limited Time,i,65.66747146790658,55.535949133072805,46.944430079719126,48.13158136047373,46.944430079719126,48.13158136047373,65.66747146790658,55.535949133072805,-10,-10,10,10,57,47,47,67,67,3.1622776601683795,10,3.1622776601683795,10
10,16,0.033057300000109535,q,69.3,Limited Time,i,69.29542887116177,60.625003471207954,44.93694319629025,54.7996846470634,44.93694319629025,54.7996846470634,69.29542887116177,60.625003471207954,-10,-10,10,10,57,47,47,67,67,3.1622776601683795,10,3.1622776601683795,10
10,17,0.05875689999993483,q,69.6,Limited Time,i,69.58597844189963,62.890798345890396,43.664641885771125,52.29073578935595,43.664641885771125,52.29073578935595,69.58597844189963,62.890798345890396,-10,-10,10,10,57,47,47,67,67,3.1622776601683795,10,3.1622776601683795,10
10,18,0.041732999999567255,q,68.5,Limited Time,i,68.49516012521468,69.81709240924803,43.27590099245247,33.86125750807121,43.27590099245247,33.86125750807121,68.49516012521468,69.81709240924803,-10,-10,10,10,57,47,47,67,67,3.1622776601683795,10,3.1622776601683795,10
10,19,0.13667609999993147,q,65.6,Limited Time,i,65.6225647264139,80.58482166843665,44.913612970570156,57.5998241825293,44.913612970570156,57.5998241825293,65.6225647264139,80.58482166843665,-10,-10,10,10,57,47,47,67,67,3.1622776601683795,10,3.1622776601683795,10
10,20,0.1792224000000715,q,70.2,Limited Time,i,70.16781905474404,80.13790423221762,47.39317069093268,41.63213433185156,47.39317069093268,41.63213433185156,70.16781905474404,80.13790423221762,-10,-10,10,10,57,47,47,67,67,3.1622776601683795,10,3.1622776601683795,10
11,1,1.1648443999997653,p,66.4,Unlimited Time,l,60.718241818581255,56.368967124060646,45.25561786527978,66.41990226189503,45.25561786527978,56.368967124060646,60.718241818581255,66.41990226189503,-10,-0.33,0.33,10,57,47,56.67,57.33,67,3.1622776601683795,3.1622776601683795,3.1622776601683795,3.1622776601683795
11,2,0.8699475999997048,q,60.4,Unlimited Time,l,60.428842543298984,57.3091400220611,48.17890519912254,68.70387627780765,48.17890519912254,57.3091400220611,60.428842543298984,68.70387627780765,-10,-0.33,0.33,10,57,47,56.67,57.33,67,3.1622776601683795,3.1622776601683795,3.1622776601683795,3.1622776601683795
11,3,0.3725206999997681,w,56.5,Unlimited Time,l,51.3204318304536,56.51240599935588,49.04136087057888,70.60683135091233,49.04136087057888,56.51240599935588,51.3204318304536,70.60683135091233,-10,-0.33,0.33,10,57,47,56.67,57.33,67,3.1622776601683795,3.1622776601683795,3.1622776601683795,3.1622776601683795
11,4,0.31262859999969805,q,59.7,Unlimited Time,l,59.71374501866567,61.05206863206493,49.23235754380101,71.69819175829328,49.23235754380101,61.05206863206493,59.71374501866567,71.69819175829328,-10,-0.33,0.33,10,57,47,56.67,57.33,67,3.1622776601683795,3.1622776601683795,3.1622776601683795,3.1622776601683795
11,5,0.17187449999983073,o,44.9,Unlimited Time,l,62.60673981951709,52.9396043216236,44.94895713259908,64.17950806498395,44.94895713259908,52.9396043216236,62.60673981951709,64.17950806498395,-10,-0.33,0.33,10,57,47,56.67,57.33,67,3.1622776601683795,3.1622776601683795,3.1622776601683795,3.1622776601683795
11,6,0.24945749999960753,q,61.1,Unlimited Time,l,61.074882240845504,56.527215942561114,47.424773739904346,63.44809690067138,47.424773739904346,56.527215942561114,61.074882240845504,63.44809690067138,-10,-0.33,0.33,10,57,47,56.67,57.33,67,3.1622776601683795,3.1622776601683795,3.1622776601683795,3.1622776601683795
11,7,0.10985519999985627,w,56.3,Unlimited Time,l,59.985245263518465,56.324476702405555,45.54010108827692,67.41638684194061,45.54010108827692,56.324476702405555,59.985245263518465,67.41638684194061,-10,-0.33,0.33,10,57,47,56.67,57.33,67,3.1622776601683795,3.1622776601683795,3.1622776601683795,3.1622776601683795
11,8,0.03253599999970902,w,54.3,Unlimited Time,l,58.875824361378676,54.28911120111801,46.70148796010409,66.98145157803084,46.70148796010409,54.28911120111801,58.875824361378676,66.98145157803084,-10,-0.33,0.33,10,57,47,56.67,57.33,67,3.1622776601683795,3.1622776601683795,3.1622776601683795,3.1622776601683795
11,9,0.1067309000000023,p,66.0,Unlimited Time,l,56.87331539697867,62.996411909591004,46.064216696973446,66.04310520441923,46.064216696973446,62.996411909591004,56.87331539697867,66.04310520441923,-10,-0.33,0.33,10,57,47,56.67,57.33,67,3.1622776601683795,3.1622776601683795,3.1622776601683795,3.1622776601683795
11,10,0.003211799999462528,o,45.5,Unlimited Time,l,60.201936679369695,54.35858180783752,45.54522589541673,68.92041713783229,45.54522589541673,54.35858180783752,60.201936679369695,68.92041713783229,-10,-0.33,0.33,10,57,47,56.67,57.33,67,3.1622776601683795,3.1622776601683795,3.1622776601683795,3.1622776601683795
11,11,0.22571879999986777,q,61.3,Unlimited Time,l,61.308949909872375,60.084867682804656,43.65919554185375,62.79274433913428,43.65919554185375,60.084867682804656,61.308949909872375,62.79274433913428,-10,-0.33,0.33,10,57,47,56.67,57.33,67,3.1622776601683795,3.1622776601683795,3.1622776601683795,3.1622776601683795
11,12,0.2353784999995696,q,58.2,Unlimited Time,l,58.181022526859145,62.12776779382942,42.490356397925865,69.88788021850013,42.490356397925865,62.12776779382942,58.181022526859145,69.88788021850013,-10,-0.33,0.33,10,57,47,56.67,57.33,67,3.1622776601683795,3.1622776601683795,3.1622776601683795,3.1622776601683795
11,13,0.2140813999999409,p,71.9,Unlimited Time,l,62.85856364881946,49.62176500815641,47.54748059617083,71.87892042424077,47.54748059617083,49.62176500815641,62.85856364881946,71.87892042424077,-10,-0.33,0.33,10,57,47,56.67,57.33,67,3.1622776601683795,3.1622776601683795,3.1622776601683795,3.1622776601683795
11,14,0.3561875999998847,q,56.8,Unlimited Time,l,56.79545370759691,51.43380977552433,50.172714661524225,66.57980011999996,50.172714661524225,51.43380977552433,56.79545370759691,66.57980011999996,-10,-0.33,0.33,10,57,47,56.67,57.33,67,3.1622776601683795,3.1622776601683795,3.1622776601683795,3.1622776601683795
11,15,0.28029579999974885,o,44.7,Unlimited Time,l,58.99852351295906,56.98528427598654,44.67462996850201,63.93157556088044,44.67462996850201,56.98528427598654,58.99852351295906,63.93157556088044,-10,-0.33,0.33,10,57,47,56.67,57.33,67,3.1622776601683795,3.1622776601683795,3.1622776601683795,3.1622776601683795
11,16,0.1415828999997757,q,61.2,Unlimited Time,l,61.15739769649614,50.14533388464185,44.36594770422471,63.20735556081412,44.36594770422471,50.14533388464185,61.15739769649614,63.20735556081412,-10,-0.33,0.33,10,57,47,56.67,57.33,67,3.1622776601683795,3.1622776601683795,3.1622776601683795,3.1622776601683795
11,17,0.07108869999956369,p,67.5,Unlimited Time,l,58.26033416824695,46.00734124614873,49.02446140584044,67.50935539783175,49.02446140584044,46.00734124614873,58.26033416824695,67.50935539783175,-10,-0.33,0.33,10,57,47,56.67,57.33,67,3.1622776601683795,3.1622776601683795,3.1622776601683795,3.1622776601683795
11,18,0.1328603999995721,q,54.9,Unlimited Time,l,54.92392357962173,57.12447928280664,41.44929196007621,70.55186291648928,41.44929196007621,57.12447928280664,54.92392357962173,70.55186291648928,-10,-0.33,0.33,10,57,47,56.67,57.33,67,3.1622776601683795,3.1622776601683795,3.1622776601683795,3.1622776601683795
11,19,0.13599569999996675,p,62.5,Unlimited Time,l,55.37851158448547,58.94491530928247,45.76569045393515,62.47503876351918,45.76569045393515,58.94491530928247,55.37851158448547,62.47503876351918,-10,-0.33,0.33,10,57,47,56.67,57.33,67,3.1622776601683795,3.1622776601683795,3.1622776601683795,3.1622776601683795
11,20,0.09693759999981921,p,64.8,Unlimited Time,l,52.26652616343877,57.74372241628246,49.727214756702864,64.76243879503168,49.727214756702864,57.74372241628246,52.26652616343877,64.76243879503168,-10,-0.33,0.33,10,57,47,56.67,57.33,67,3.1622776601683795,3.1622776601683795,3.1622776601683795,3.1622776601683795
12,1,0.18134829999962676,p,43.0,Limited Time,h,57.563852884737905,67.33765819243881,52.6633374872379,42.9728912464562,42.9728912464562,57.563852884737905,67.33765819243881,52.6633374872379,-10,-0.33,0.33,10,57,47,56.67,57.33,67,10,10,10,10
12,2,0.0027760999996644387,q,51.0,Limited Time,h,50.99721031937535,63.269744481103196,84.38987191037262,30.427664813485997,30.427664813485997,50.99721031937535,63.269744481103196,84.38987191037262,-10,-0.33,0.33,10,57,47,56.67,57.33,67,10,10,10,10
12,3,0.031188100000235863,q,66.7,Limited Time,h,66.72412377388042,57.42139916940577,52.36266604069699,51.499593842145124,51.499593842145124,66.72412377388042,57.42139916940577,52.36266604069699,-10,-0.33,0.33,10,57,47,56.67,57.33,67,10,10,10,10
12,4,0.005350199999611505,w,43.2,Limited Time,h,41.75541850201361,43.22144328808977,75.58877444541122,56.91712293208295,56.91712293208295,41.75541850201361,43.22144328808977,75.58877444541122,-10,-0.33,0.33,10,57,47,56.67,57.33,67,10,10,10,10
12,5,0.19711809999989782,w,77.8,Limited Time,h,69.73294175484509,77.78727317693739,74.55102227501352,67.37441233731187,67.37441233731187,69.73294175484509,77.78727317693739,74.55102227501352,-10,-0.33,0.33,10,57,47,56.67,57.33,67,10,10,10,10
12,6,0.25446599999986574,q,62.8,Limited Time,h,62.75207029277821,57.906276939512594,79.94313009710952,38.103650653684724,38.103650653684724,62.75207029277821,57.906276939512594,79.94313009710952,-10,-0.33,0.33,10,57,47,56.67,57.33,67,10,10,10,10
12,7,0.0007318999996641651,w,66.4,Limited Time,h,45.093406462945936,66.3821439821838,79.58897689262741,40.20449234456857,40.20449234456857,45.093406462945936,66.3821439821838,79.58897689262741,-10,-0.33,0.33,10,57,47,56.67,57.33,67,10,10,10,10
12,8,0.03323629999977129,w,46.4,Limited Time,h,44.979071197022236,46.433064457039784,56.69850829150133,51.15921699950482,51.15921699950482,44.979071197022236,46.433064457039784,56.69850829150133,-10,-0.33,0.33,10,57,47,56.67,57.33,67,10,10,10,10
12,9,0.022318499999983032,w,44.3,Limited Time,h,51.569120413659434,44.343339704151504,82.19559265307574,64.17056839193523,64.17056839193523,51.569120413659434,44.343339704151504,82.19559265307574,-10,-0.33,0.33,10,57,47,56.67,57.33,67,10,10,10,10
12,10,0.011019300000043586,q,52.2,Limited Time,h,52.17571418266315,57.68554146119674,74.37241477784347,51.265552391609845,51.265552391609845,52.17571418266315,57.68554146119674,74.37241477784347,-10,-0.33,0.33,10,57,47,56.67,57.33,67,10,10,10,10
12,11,0.07024609999962195,p,59.4,Limited Time,h,75.71164656094832,65.02602164600187,65.56925505058581,59.37504734049243,59.37504734049243,75.71164656094832,65.02602164600187,65.56925505058581,-10,-0.33,0.33,10,57,47,56.67,57.33,67,10,10,10,10
12,12,0.057936400000016874,q,63.7,Limited Time,h,63.744969093540874,63.91285129429563,66.52807017023136,31.902280448679157,31.902280448679157,63.744969093540874,63.91285129429563,66.52807017023136,-10,-0.33,0.33,10,57,47,56.67,57.33,67,10,10,10,10
12,13,0.04496870000002673,q,42.4,Limited Time,h,42.43809845200622,60.35690332319919,63.749244339249444,23.178354266819106,23.178354266819106,42.43809845200622,60.35690332319919,63.749244339249444,-10,-0.33,0.33,10,57,47,56.67,57.33,67,10,10,10,10
12,14,0.0030419999998230196,w,56.2,Limited Time,h,61.37203058942002,56.19496431218655,77.19494276411594,37.57521010451204,37.57521010451204,61.37203058942002,56.19496431218655,77.19494276411594,-10,-0.33,0.33,10,57,47,56.67,57.33,67,10,10,10,10
12,15,0.005186200000025565,q,44.0,Limited Time,h,43.97650351576827,60.38947742174229,55.50212136648946,56.43681286341695,56.43681286341695,43.97650351576827,60.38947742174229,55.50212136648946,-10,-0.33,0.33,10,57,47,56.67,57.33,67,10,10,10,10
12,16,0.0815890999997464,p,30.5,Limited Time,h,60.53095291727671,35.36386992312366,81.34808766953319,30.454998600837026,30.454998600837026,60.53095291727671,35.36386992312366,81.34808766953319,-10,-0.33,0.33,10,57,47,56.67,57.33,67,10,10,10,10
12,17,0.023686999999881664,o,57.4,Limited Time,h,76.7919011019001,52.42216329664252,57.4473522377711,39.75167774068086,39.75167774068086,76.7919011019001,52.42216329664252,57.4473522377711,-10,-0.33,0.33,10,57,47,56.67,57.33,67,10,10,10,10
12,18,0.21071109999957116,q,49.7,Limited Time,h,49.65020803789663,49.36919591936875,52.44341269991529,36.624268672543366,36.624268672543366,49.65020803789663,49.36919591936875,52.44341269991529,-10,-0.33,0.33,10,57,47,56.67,57.33,67,10,10,10,10
12,19,0.16115969999964364,o,62.7,Limited Time,h,59.2353865621997,26.808918609549625,62.66660264827718,12.891681256208287,12.891681256208287,59.2353865621997,26.808918609549625,62.66660264827718,-10,-0.33,0.33,10,57,47,56.67,57.33,67,10,10,10,10
12,20,0.1293986999999106,p,48.7,Limited Time,h,50.36207144623556,49.72814230404106,63.20049037382662,48.675524840519074,48.675524840519074,50.36207144623556,49.72814230404106,63.20049037382662,-10,-0.33,0.33,10,57,47,56.67,57.33,67,10,10,10,10
13,1,0.6751635000000533,o,52.7,Unlimited Time,h,57.563852884737905,67.33765819243881,52.6633374872379,42.9728912464562,42.9728912464562,57.563852884737905,67.33765819243881,52.6633374872379,-10,-0.33,0.33,10,57,47,56.67,57.33,67,10,10,10,10
13,2,0.006670399999620713,o,84.4,Unlimited Time,h,50.99721031937535,63.269744481103196,84.38987191037262,30.427664813485997,30.427664813485997,50.99721031937535,63.269744481103196,84.38987191037262,-10,-0.33,0.33,10,57,47,56.67,57.33,67,10,10,10,10
13,3,0.03798369999958595,w,57.4,Unlimited Time,h,66.72412377388042,57.42139916940577,52.36266604069699,51.499593842145124,51.499593842145124,66.72412377388042,57.42139916940577,52.36266604069699,-10,-0.33,0.33,10,57,47,56.67,57.33,67,10,10,10,10
13,4,0.22337829999969472,q,41.8,Unlimited Time,h,41.75541850201361,43.22144328808977,75.58877444541122,56.91712293208295,56.91712293208295,41.75541850201361,43.22144328808977,75.58877444541122,-10,-0.33,0.33,10,57,47,56.67,57.33,67,10,10,10,10
13,5,0.07778129999996963,o,74.6,Unlimited Time,h,69.73294175484509,77.78727317693739,74.55102227501352,67.37441233731187,67.37441233731187,69.73294175484509,77.78727317693739,74.55102227501352,-10,-0.33,0.33,10,57,47,56.67,57.33,67,10,10,10,10
13,6,0.18793189999996684,w,57.9,Unlimited Time,h,62.75207029277821,57.906276939512594,79.94313009710952,38.103650653684724,38.103650653684724,62.75207029277821,57.906276939512594,79.94313009710952,-10,-0.33,0.33,10,57,47,56.67,57.33,67,10,10,10,10
13,7,0.0023516000001109205,q,45.1,Unlimited Time,h,45.093406462945936,66.3821439821838,79.58897689262741,40.20449234456857,40.20449234456857,45.093406462945936,66.3821439821838,79.58897689262741,-10,-0.33,0.33,10,57,47,56.67,57.33,67,10,10,10,10
13,8,0.23432899999988877,w,46.4,Unlimited Time,h,44.979071197022236,46.433064457039784,56.69850829150133,51.15921699950482,51.15921699950482,44.979071197022236,46.433064457039784,56.69850829150133,-10,-0.33,0.33,10,57,47,56.67,57.33,67,10,10,10,10
13,9,0.08467599999949016,w,44.3,Unlimited Time,h,51.569120413659434,44.343339704151504,82.19559265307574,64.17056839193523,64.17056839193523,51.569120413659434,44.343339704151504,82.19559265307574,-10,-0.33,0.33,10,57,47,56.67,57.33,67,10,10,10,10
13,10,0.2796285999997963,o,74.4,Unlimited Time,h,52.17571418266315,57.68554146119674,74.37241477784347,51.265552391609845,51.265552391609845,52.17571418266315,57.68554146119674,74.37241477784347,-10,-0.33,0.33,10,57,47,56.67,57.33,67,10,10,10,10
13,11,0.05330939999976181,p,59.4,Unlimited Time,h,75.71164656094832,65.02602164600187,65.56925505058581,59.37504734049243,59.37504734049243,75.71164656094832,65.02602164600187,65.56925505058581,-10,-0.33,0.33,10,57,47,56.67,57.33,67,10,10,10,10
13,12,0.20224439999992683,w,63.9,Unlimited Time,h,63.744969093540874,63.91285129429563,66.52807017023136,31.902280448679157,31.902280448679157,63.744969093540874,63.91285129429563,66.52807017023136,-10,-0.33,0.33,10,57,47,56.67,57.33,67,10,10,10,10
13,13,0.11042209999959596,q,42.4,Unlimited Time,h,42.43809845200622,60.35690332319919,63.749244339249444,23.178354266819106,23.178354266819106,42.43809845200622,60.35690332319919,63.749244339249444,-10,-0.33,0.33,10,57,47,56.67,57.33,67,10,10,10,10
13,14,0.15219729999989795,w,56.2,Unlimited Time,h,61.37203058942002,56.19496431218655,77.19494276411594,37.57521010451204,37.57521010451204,61.37203058942002,56.19496431218655,77.19494276411594,-10,-0.33,0.33,10,57,47,56.67,57.33,67,10,10,10,10
13,15,0.2359428999998272,q,44.0,Unlimited Time,h,43.97650351576827,60.38947742174229,55.50212136648946,56.43681286341695,56.43681286341695,43.97650351576827,60.38947742174229,55.50212136648946,-10,-0.33,0.33,10,57,47,56.67,57.33,67,10,10,10,10
13,16,0.7221524999995381,o,81.3,Unlimited Time,h,60.53095291727671,35.36386992312366,81.34808766953319,30.454998600837026,30.454998600837026,60.53095291727671,35.36386992312366,81.34808766953319,-10,-0.33,0.33,10,57,47,56.67,57.33,67,10,10,10,10
13,17,0.5189602000000377,q,76.8,Unlimited Time,h,76.7919011019001,52.42216329664252,57.4473522377711,39.75167774068086,39.75167774068086,76.7919011019001,52.42216329664252,57.4473522377711,-10,-0.33,0.33,10,57,47,56.67,57.33,67,10,10,10,10
13,18,0.0016514999997525592,w,49.4,Unlimited Time,h,49.65020803789663,49.36919591936875,52.44341269991529,36.624268672543366,36.624268672543366,49.65020803789663,49.36919591936875,52.44341269991529,-10,-0.33,0.33,10,57,47,56.67,57.33,67,10,10,10,10
13,19,1.5762073999999302,p,12.9,Unlimited Time,h,59.2353865621997,26.808918609549625,62.66660264827718,12.891681256208287,12.891681256208287,59.2353865621997,26.808918609549625,62.66660264827718,-10,-0.33,0.33,10,57,47,56.67,57.33,67,10,10,10,10
13,20,0.25764329999992697,q,50.4,Unlimited Time,h,50.36207144623556,49.72814230404106,63.20049037382662,48.675524840519074,48.675524840519074,50.36207144623556,49.72814230404106,63.20049037382662,-10,-0.33,0.33,10,57,47,56.67,57.33,67,10,10,10,10
14,1,0.2952391999997417,o,39.6,Limited Time,e,56.465531972624085,67.58647700235105,39.596733369922,59.30653451657721,56.465531972624085,67.58647700235105,59.30653451657721,39.596733369922,0,0,0,0,57,57,57,57,57,3.1622776601683795,6.324555320336759,8.366600265340756,10
14,2,0.011708899999575806,p,50.8,Limited Time,e,52.345562745505845,49.682976784518296,62.434774362456615,50.77855631697375,52.345562745505845,49.682976784518296,50.77855631697375,62.434774362456615,0,0,0,0,57,57,57,57,57,3.1622776601683795,6.324555320336759,8.366600265340756,10
14,3,0.0926062999997157,o,71.7,Limited Time,e,52.225764922100154,54.01763441833137,71.68380638799803,59.03962260680747,52.225764922100154,54.01763441833137,59.03962260680747,71.68380638799803,0,0,0,0,57,57,57,57,57,3.1622776601683795,6.324555320336759,8.366600265340756,10
14,4,0.11550239999996847,q,56.7,Limited Time,e,56.69776147131247,63.53643913717448,46.74728020905572,52.644653700349885,56.69776147131247,63.53643913717448,52.644653700349885,46.74728020905572,0,0,0,0,57,57,57,57,57,3.1622776601683795,6.324555320336759,8.366600265340756,10
14,5,0.11305989999982557,o,30.3,Limited Time,e,53.41604808555704,52.667026475286846,30.317295033276796,60.68405821980522,53.41604808555704,52.667026475286846,60.68405821980522,30.317295033276796,0,0,0,0,57,57,57,57,57,3.1622776601683795,6.324555320336759,8.366600265340756,10
14,6,0.138289800000166,q,63.0,Limited Time,e,63.04447106423426,66.06464959044122,57.833871241364,58.209910498924685,63.04447106423426,66.06464959044122,58.209910498924685,57.833871241364,0,0,0,0,57,57,57,57,57,3.1622776601683795,6.324555320336759,8.366600265340756,10
14,7,0.07381309999982477,q,60.4,Limited Time,e,60.40384460637954,50.078377444363355,41.873512249152704,48.434144082708,60.40384460637954,50.078377444363355,48.434144082708,41.873512249152704,0,0,0,0,57,57,57,57,57,3.1622776601683795,6.324555320336759,8.366600265340756,10
14,8,0.004607599999872036,q,54.2,Limited Time,e,54.16414054425274,47.90388895012321,62.75277548495568,69.84818250883363,54.16414054425274,47.90388895012321,69.84818250883363,62.75277548495568,0,0,0,0,57,57,57,57,57,3.1622776601683795,6.324555320336759,8.366600265340756,10
14,9,0.04754449999973076,w,63.3,Limited Time,e,58.021561873824794,63.26966235115186,54.91648426597019,60.08514411783962,58.021561873824794,63.26966235115186,60.08514411783962,54.91648426597019,0,0,0,0,57,57,57,57,57,3.1622776601683795,6.324555320336759,8.366600265340756,10
14,10,0.054219999999531865,q,57.8,Limited Time,e,57.80119738804358,64.12957499375655,62.8759939143071,64.99936921549961,57.80119738804358,64.12957499375655,64.99936921549961,62.8759939143071,0,0,0,0,57,57,57,57,57,3.1622776601683795,6.324555320336759,8.366600265340756,10
14,11,0.08139219999975467,q,51.3,Limited Time,e,51.323563537141226,57.5611624444123,75.86597195415673,42.77524979287827,51.323563537141226,57.5611624444123,42.77524979287827,75.86597195415673,0,0,0,0,57,57,57,57,57,3.1622776601683795,6.324555320336759,8.366600265340756,10
14,12,0.11799639999981082,w,60.8,Limited Time,e,53.73680167181395,60.848551426339505,49.21084409372868,57.594689145344596,53.73680167181395,60.848551426339505,57.594689145344596,49.21084409372868,0,0,0,0,57,57,57,57,57,3.1622776601683795,6.324555320336759,8.366600265340756,10
14,13,0.12020619999975679,q,57.9,Limited Time,e,57.911771702601975,65.57567466291727,70.54879534781504,58.40200978819262,57.911771702601975,65.57567466291727,58.40200978819262,70.54879534781504,0,0,0,0,57,57,57,57,57,3.1622776601683795,6.324555320336759,8.366600265340756,10
14,14,0.10772839999981443,q,54.0,Limited Time,e,54.01031683122003,70.76438082458621,56.302252402269055,60.9156103399484,54.01031683122003,70.76438082458621,60.9156103399484,56.302252402269055,0,0,0,0,57,57,57,57,57,3.1622776601683795,6.324555320336759,8.366600265340756,10
14,15,0.12892739999961123,q,58.3,Limited Time,e,58.250227049479975,54.283745782535796,71.89807410394312,61.01045991163371,58.250227049479975,54.283745782535796,61.01045991163371,71.89807410394312,0,0,0,0,57,57,57,57,57,3.1622776601683795,6.324555320336759,8.366600265340756,10
14,16,0.14831009999988964,w,57.0,Limited Time,e,58.53452492708775,57.01966652725422,62.464062755990476,56.75218743994431,58.53452492708775,57.01966652725422,56.75218743994431,62.464062755990476,0,0,0,0,57,57,57,57,57,3.1622776601683795,6.324555320336759,8.366600265340756,10
14,17,0.1201427999999396,w,58.5,Limited Time,e,58.8934703177368,58.485449137566704,55.92212698080517,58.08235986307151,58.8934703177368,58.485449137566704,58.08235986307151,55.92212698080517,0,0,0,0,57,57,57,57,57,3.1622776601683795,6.324555320336759,8.366600265340756,10
14,18,0.11425009999993563,w,47.5,Limited Time,e,53.903041057473935,47.53208311192344,60.38043540441062,54.247454304787226,53.903041057473935,47.53208311192344,54.247454304787226,60.38043540441062,0,0,0,0,57,57,57,57,57,3.1622776601683795,6.324555320336759,8.366600265340756,10
14,19,0.11542379999991681,w,55.2,Limited Time,e,50.921560638029,55.19107698710192,61.001738858984794,74.07401727165592,50.921560638029,55.19107698710192,74.07401727165592,61.001738858984794,0,0,0,0,57,57,57,57,57,3.1622776601683795,6.324555320336759,8.366600265340756,10
14,20,0.1250817999998617,w,56.6,Limited Time,e,53.293278462347345,56.57136698218436,49.66306858190879,52.80191412496484,53.293278462347345,56.57136698218436,52.80191412496484,49.66306858190879,0,0,0,0,57,57,57,57,57,3.1622776601683795,6.324555320336759,8.366600265340756,10
15,1,1.008582099999785,o,60.7,Unlimited Time,l,45.25561786527978,66.41990226189503,60.718241818581255,56.368967124060646,45.25561786527978,56.368967124060646,60.718241818581255,66.41990226189503,-10,-0.33,0.33,10,57,47,56.67,57.33,67,3.1622776601683795,3.1622776601683795,3.1622776601683795,3.1622776601683795
15,2,0.051757700000052864,q,48.2,Unlimited Time,l,48.17890519912254,68.70387627780765,60.428842543298984,57.3091400220611,48.17890519912254,57.3091400220611,60.428842543298984,68.70387627780765,-10,-0.33,0.33,10,57,47,56.67,57.33,67,3.1622776601683795,3.1622776601683795,3.1622776601683795,3.1622776601683795
15,3,0.20824369999991177,w,70.6,Unlimited Time,l,49.04136087057888,70.60683135091233,51.3204318304536,56.51240599935588,49.04136087057888,56.51240599935588,51.3204318304536,70.60683135091233,-10,-0.33,0.33,10,57,47,56.67,57.33,67,3.1622776601683795,3.1622776601683795,3.1622776601683795,3.1622776601683795
15,4,0.09304539999993722,q,49.2,Unlimited Time,l,49.23235754380101,71.69819175829328,59.71374501866567,61.05206863206493,49.23235754380101,61.05206863206493,59.71374501866567,71.69819175829328,-10,-0.33,0.33,10,57,47,56.67,57.33,67,3.1622776601683795,3.1622776601683795,3.1622776601683795,3.1622776601683795
15,5,0.13881919999994352,w,64.2,Unlimited Time,l,44.94895713259908,64.17950806498395,62.60673981951709,52.9396043216236,44.94895713259908,52.9396043216236,62.60673981951709,64.17950806498395,-10,-0.33,0.33,10,57,47,56.67,57.33,67,3.1622776601683795,3.1622776601683795,3.1622776601683795,3.1622776601683795
15,6,0.11231709999992745,q,47.4,Unlimited Time,l,47.424773739904346,63.44809690067138,61.074882240845504,56.527215942561114,47.424773739904346,56.527215942561114,61.074882240845504,63.44809690067138,-10,-0.33,0.33,10,57,47,56.67,57.33,67,3.1622776601683795,3.1622776601683795,3.1622776601683795,3.1622776601683795
15,7,0.19208750000007058,q,45.5,Unlimited Time,l,45.54010108827692,67.41638684194061,59.985245263518465,56.324476702405555,45.54010108827692,56.324476702405555,59.985245263518465,67.41638684194061,-10,-0.33,0.33,10,57,47,56.67,57.33,67,3.1622776601683795,3.1622776601683795,3.1622776601683795,3.1622776601683795
15,8,0.15823069999987638,q,46.7,Unlimited Time,l,46.70148796010409,66.98145157803084,58.875824361378676,54.28911120111801,46.70148796010409,54.28911120111801,58.875824361378676,66.98145157803084,-10,-0.33,0.33,10,57,47,56.67,57.33,67,3.1622776601683795,3.1622776601683795,3.1622776601683795,3.1622776601683795
15,9,0.10564669999985199,p,63.0,Unlimited Time,l,46.064216696973446,66.04310520441923,56.87331539697867,62.996411909591004,46.064216696973446,62.996411909591004,56.87331539697867,66.04310520441923,-10,-0.33,0.33,10,57,47,56.67,57.33,67,3.1622776601683795,3.1622776601683795,3.1622776601683795,3.1622776601683795
15,10,0.10413550000021132,w,68.9,Unlimited Time,l,45.54522589541673,68.92041713783229,60.201936679369695,54.35858180783752,45.54522589541673,54.35858180783752,60.201936679369695,68.92041713783229,-10,-0.33,0.33,10,57,47,56.67,57.33,67,3.1622776601683795,3.1622776601683795,3.1622776601683795,3.1622776601683795
15,11,0.09110719999989669,q,43.7,Unlimited Time,l,43.65919554185375,62.79274433913428,61.308949909872375,60.084867682804656,43.65919554185375,60.084867682804656,61.308949909872375,62.79274433913428,-10,-0.33,0.33,10,57,47,56.67,57.33,67,3.1622776601683795,3.1622776601683795,3.1622776601683795,3.1622776601683795
15,12,0.13695079999979498,q,42.5,Unlimited Time,l,42.490356397925865,69.88788021850013,58.181022526859145,62.12776779382942,42.490356397925865,62.12776779382942,58.181022526859145,69.88788021850013,-10,-0.33,0.33,10,57,47,56.67,57.33,67,3.1622776601683795,3.1622776601683795,3.1622776601683795,3.1622776601683795
15,13,0.04871119999961593,o,62.9,Unlimited Time,l,47.54748059617083,71.87892042424077,62.85856364881946,49.62176500815641,47.54748059617083,49.62176500815641,62.85856364881946,71.87892042424077,-10,-0.33,0.33,10,57,47,56.67,57.33,67,3.1622776601683795,3.1622776601683795,3.1622776601683795,3.1622776601683795
15,14,0.015483199999835051,q,50.2,Unlimited Time,l,50.172714661524225,66.57980011999996,56.79545370759691,51.43380977552433,50.172714661524225,51.43380977552433,56.79545370759691,66.57980011999996,-10,-0.33,0.33,10,57,47,56.67,57.33,67,3.1622776601683795,3.1622776601683795,3.1622776601683795,3.1622776601683795
15,15,0.0010167999998884625,q,44.7,Unlimited Time,l,44.67462996850201,63.93157556088044,58.99852351295906,56.98528427598654,44.67462996850201,56.98528427598654,58.99852351295906,63.93157556088044,-10,-0.33,0.33,10,57,47,56.67,57.33,67,3.1622776601683795,3.1622776601683795,3.1622776601683795,3.1622776601683795
15,16,0.060118599999896105,w,63.2,Unlimited Time,l,44.36594770422471,63.20735556081412,61.15739769649614,50.14533388464185,44.36594770422471,50.14533388464185,61.15739769649614,63.20735556081412,-10,-0.33,0.33,10,57,47,56.67,57.33,67,3.1622776601683795,3.1622776601683795,3.1622776601683795,3.1622776601683795
15,17,0.08390259999987393,q,49.0,Unlimited Time,l,49.02446140584044,67.50935539783175,58.26033416824695,46.00734124614873,49.02446140584044,46.00734124614873,58.26033416824695,67.50935539783175,-10,-0.33,0.33,10,57,47,56.67,57.33,67,3.1622776601683795,3.1622776601683795,3.1622776601683795,3.1622776601683795
15,18,0.025027699999554898,q,41.4,Unlimited Time,l,41.44929196007621,70.55186291648928,54.92392357962173,57.12447928280664,41.44929196007621,57.12447928280664,54.92392357962173,70.55186291648928,-10,-0.33,0.33,10,57,47,56.67,57.33,67,3.1622776601683795,3.1622776601683795,3.1622776601683795,3.1622776601683795
15,19,0.04107350000003862,q,45.8,Unlimited Time,l,45.76569045393515,62.47503876351918,55.37851158448547,58.94491530928247,45.76569045393515,58.94491530928247,55.37851158448547,62.47503876351918,-10,-0.33,0.33,10,57,47,56.67,57.33,67,3.1622776601683795,3.1622776601683795,3.1622776601683795,3.1622776601683795
15,20,0.35128469999972367,q,49.7,Unlimited Time,l,49.727214756702864,64.76243879503168,52.26652616343877,57.74372241628246,49.727214756702864,57.74372241628246,52.26652616343877,64.76243879503168,-10,-0.33,0.33,10,57,47,56.67,57.33,67,3.1622776601683795,3.1622776601683795,3.1622776601683795,3.1622776601683795
16,1,0.21725979999973788,q,52.7,Limited Time,h,52.6633374872379,67.33765819243881,57.563852884737905,42.9728912464562,42.9728912464562,57.563852884737905,67.33765819243881,52.6633374872379,-10,-0.33,0.33,10,57,47,56.67,57.33,67,10,10,10,10
16,2,0.011306599999898026,w,63.3,Limited Time,h,84.38987191037262,63.269744481103196,50.99721031937535,30.427664813485997,30.427664813485997,50.99721031937535,63.269744481103196,84.38987191037262,-10,-0.33,0.33,10,57,47,56.67,57.33,67,10,10,10,10
16,3,0.28408790000003137,q,52.4,Limited Time,h,52.36266604069699,57.42139916940577,66.72412377388042,51.499593842145124,51.499593842145124,66.72412377388042,57.42139916940577,52.36266604069699,-10,-0.33,0.33,10,57,47,56.67,57.33,67,10,10,10,10
16,4,0.03456129999995028,w,43.2,Limited Time,h,75.58877444541122,43.22144328808977,41.75541850201361,56.91712293208295,56.91712293208295,41.75541850201361,43.22144328808977,75.58877444541122,-10,-0.33,0.33,10,57,47,56.67,57.33,67,10,10,10,10
16,5,0.020419399999809684,w,77.8,Limited Time,h,74.55102227501352,77.78727317693739,69.73294175484509,67.37441233731187,67.37441233731187,69.73294175484509,77.78727317693739,74.55102227501352,-10,-0.33,0.33,10,57,47,56.67,57.33,67,10,10,10,10
16,6,0.030314999999973224,w,57.9,Limited Time,h,79.94313009710952,57.906276939512594,62.75207029277821,38.103650653684724,38.103650653684724,62.75207029277821,57.906276939512594,79.94313009710952,-10,-0.33,0.33,10,57,47,56.67,57.33,67,10,10,10,10
16,7,0.054122199999710574,q,79.6,Limited Time,h,79.58897689262741,66.3821439821838,45.093406462945936,40.20449234456857,40.20449234456857,45.093406462945936,66.3821439821838,79.58897689262741,-10,-0.33,0.33,10,57,47,56.67,57.33,67,10,10,10,10
16,8,0.07396959999960018,w,46.4,Limited Time,h,56.69850829150133,46.433064457039784,44.979071197022236,51.15921699950482,51.15921699950482,44.979071197022236,46.433064457039784,56.69850829150133,-10,-0.33,0.33,10,57,47,56.67,57.33,67,10,10,10,10
16,9,0.0169674999997369,q,82.2,Limited Time,h,82.19559265307574,44.343339704151504,51.569120413659434,64.17056839193523,64.17056839193523,51.569120413659434,44.343339704151504,82.19559265307574,-10,-0.33,0.33,10,57,47,56.67,57.33,67,10,10,10,10
16,10,0.045130499999686435,q,74.4,Limited Time,h,74.37241477784347,57.68554146119674,52.17571418266315,51.265552391609845,51.265552391609845,52.17571418266315,57.68554146119674,74.37241477784347,-10,-0.33,0.33,10,57,47,56.67,57.33,67,10,10,10,10
16,11,0.1251734000002216,q,65.6,Limited Time,h,65.56925505058581,65.02602164600187,75.71164656094832,59.37504734049243,59.37504734049243,75.71164656094832,65.02602164600187,65.56925505058581,-10,-0.33,0.33,10,57,47,56.67,57.33,67,10,10,10,10
16,12,0.14817390000007435,q,66.5,Limited Time,h,66.52807017023136,63.91285129429563,63.744969093540874,31.902280448679157,31.902280448679157,63.744969093540874,63.91285129429563,66.52807017023136,-10,-0.33,0.33,10,57,47,56.67,57.33,67,10,10,10,10
16,13,0.015043599999899016,q,63.7,Limited Time,h,63.749244339249444,60.35690332319919,42.43809845200622,23.178354266819106,23.178354266819106,42.43809845200622,60.35690332319919,63.749244339249444,-10,-0.33,0.33,10,57,47,56.67,57.33,67,10,10,10,10
16,14,0.23364479999963805,w,56.2,Limited Time,h,77.19494276411594,56.19496431218655,61.37203058942002,37.57521010451204,37.57521010451204,61.37203058942002,56.19496431218655,77.19494276411594,-10,-0.33,0.33,10,57,47,56.67,57.33,67,10,10,10,10
16,15,0.13955499999974563,q,55.5,Limited Time,h,55.50212136648946,60.38947742174229,43.97650351576827,56.43681286341695,56.43681286341695,43.97650351576827,60.38947742174229,55.50212136648946,-10,-0.33,0.33,10,57,47,56.67,57.33,67,10,10,10,10
16,16,0.13531479999983276,w,35.4,Limited Time,h,81.34808766953319,35.36386992312366,60.53095291727671,30.454998600837026,30.454998600837026,60.53095291727671,35.36386992312366,81.34808766953319,-10,-0.33,0.33,10,57,47,56.67,57.33,67,10,10,10,10
16,17,0.11964510000007067,q,57.4,Limited Time,h,57.4473522377711,52.42216329664252,76.7919011019001,39.75167774068086,39.75167774068086,76.7919011019001,52.42216329664252,57.4473522377711,-10,-0.33,0.33,10,57,47,56.67,57.33,67,10,10,10,10
16,18,0.05628199999955541,w,49.4,Limited Time,h,52.44341269991529,49.36919591936875,49.65020803789663,36.624268672543366,36.624268672543366,49.65020803789663,49.36919591936875,52.44341269991529,-10,-0.33,0.33,10,57,47,56.67,57.33,67,10,10,10,10
16,19,0.21207229999981791,q,62.7,Limited Time,h,62.66660264827718,26.808918609549625,59.2353865621997,12.891681256208287,12.891681256208287,59.2353865621997,26.808918609549625,62.66660264827718,-10,-0.33,0.33,10,57,47,56.67,57.33,67,10,10,10,10
16,20,0.0565707000000657,w,49.7,Limited Time,h,63.20049037382662,49.72814230404106,50.36207144623556,48.675524840519074,48.675524840519074,50.36207144623556,49.72814230404106,63.20049037382662,-10,-0.33,0.33,10,57,47,56.67,57.33,67,10,10,10,10
