Round Number,Trial Number,Reaction Time,Choice,Reward,Time Condition,Payoff Condition,Q mapped,W mapped,O mapped,P mapped,One value,Two value,Three value,Four value,One mean,Two mean,Three mean,Four mean,Mean Shift,One shifted mean,Two shifted mean,Three shifted mean,Four shifted mean,One SD,Two SD,Three SD,Four SD
1,1,0.3576309999998557,o,39.3,Unlimited Time,h,53.234132450821654,69.51006570527034,39.26791985285376,35.53743108798949,35.53743108798949,39.26791985285376,69.51006570527034,53.234132450821654,-10,-0.33,0.33,10,49,39,48.67,49.33,59,10,10,10,10
1,2,0.21074769999995624,p,48.5,Unlimited Time,h,55.52947286759596,43.68207609225743,54.85527498635203,48.53936603696888,48.53936603696888,54.85527498635203,43.68207609225743,55.52947286759596,-10,-0.33,0.33,10,49,39,48.67,49.33,59,10,10,10,10
1,3,0.2612954999997328,w,61.8,Unlimited Time,h,66.67006426010974,61.829465230333284,72.43748625515497,34.92312172206432,34.92312172206432,72.43748625515497,61.829465230333284,66.67006426010974,-10,-0.33,0.33,10,49,39,48.67,49.33,59,10,10,10,10
1,4,0.48667810000006284,p,40.5,Unlimited Time,h,57.176561183906315,58.03827128407201,54.83982921543213,40.46287878604732,40.46287878604732,54.83982921543213,58.03827128407201,57.176561183906315,-10,-0.33,0.33,10,49,39,48.67,49.33,59,10,10,10,10
1,5,0.2703019000000495,q,44.1,Unlimited Time,h,44.083593952859786,64.94405878206574,48.64063427727838,47.061471771349616,47.061471771349616,48.64063427727838,64.94405878206574,44.083593952859786,-10,-0.33,0.33,10,49,39,48.67,49.33,59,10,10,10,10
1,6,0.6033993999999439,w,55.9,Unlimited Time,h,69.53782513276876,55.8616388110654,37.15708400898311,23.1797087103135,23.1797087103135,37.15708400898311,55.8616388110654,69.53782513276876,-10,-0.33,0.33,10,49,39,48.67,49.33,59,10,10,10,10
1,7,0.5940276000001177,o,67.9,Unlimited Time,h,45.418521941585,59.71125518547095,67.90823344353511,13.327607910763078,13.327607910763078,67.90823344353511,59.71125518547095,45.418521941585,-10,-0.33,0.33,10,49,39,48.67,49.33,59,10,10,10,10
1,8,0.33045160000006035,p,43.4,Unlimited Time,h,64.87237590411496,44.62033494667177,43.035207142411586,43.40884299270497,43.40884299270497,43.035207142411586,44.62033494667177,64.87237590411496,-10,-0.33,0.33,10,49,39,48.67,49.33,59,10,10,10,10
1,9,0.27670519999992393,o,52.2,Unlimited Time,h,65.075161584943,56.043091828062146,52.181730122343865,34.30409025335244,34.30409025335244,52.181730122343865,56.043091828062146,65.075161584943,-10,-0.33,0.33,10,49,39,48.67,49.33,59,10,10,10,10
1,10,0.31522149999977955,w,47.5,Unlimited Time,h,49.67935674581642,47.47130826778355,49.58571130641226,39.622607607202966,39.622607607202966,49.58571130641226,47.47130826778355,49.67935674581642,-10,-0.33,0.33,10,49,39,48.67,49.33,59,10,10,10,10
1,11,0.47309180000002016,q,66.2,Unlimited Time,h,66.2124046467485,44.57583482182544,39.802873507752075,37.14850029836909,37.14850029836909,39.802873507752075,44.57583482182544,66.2124046467485,-10,-0.33,0.33,10,49,39,48.67,49.33,59,10,10,10,10
1,12,0.48614629999997305,q,76.2,Unlimited Time,h,76.21974330425387,54.54262768948815,45.47185156674864,29.031422050173735,29.031422050173735,45.47185156674864,54.54262768948815,76.21974330425387,-10,-0.33,0.33,10,49,39,48.67,49.33,59,10,10,10,10
1,13,0.3877962999999909,q,64.8,Unlimited Time,h,64.78728487661684,43.154138072845,41.302334527683456,46.88825268823149,46.88825268823149,41.302334527683456,43.154138072845,64.78728487661684,-10,-0.33,0.33,10,49,39,48.67,49.33,59,10,10,10,10
1,14,0.298198100000036,w,42.7,Unlimited Time,h,60.48577414996713,42.73089041578181,52.954043748343224,25.232828339389407,25.232828339389407,52.954043748343224,42.73089041578181,60.48577414996713,-10,-0.33,0.33,10,49,39,48.67,49.33,59,10,10,10,10
1,15,0.25059349999992264,p,62.9,Unlimited Time,h,64.54362084759504,66.69419072275211,60.693691328529795,62.93025263515952,62.93025263515952,60.693691328529795,66.69419072275211,64.54362084759504,-10,-0.33,0.33,10,49,39,48.67,49.33,59,10,10,10,10
1,16,0.045195799999874,o,44.9,Unlimited Time,h,51.9392367216658,27.25434300339995,44.870486005367,54.98516323874968,54.98516323874968,44.870486005367,27.25434300339995,51.9392367216658,-10,-0.33,0.33,10,49,39,48.67,49.33,59,10,10,10,10
1,17,0.3293558000000303,p,27.7,Unlimited Time,h,45.38431308445869,30.472983963977896,42.60083853004007,27.722361381033803,27.722361381033803,42.60083853004007,30.472983963977896,45.38431308445869,-10,-0.33,0.33,10,49,39,48.67,49.33,59,10,10,10,10
1,18,0.22490749999997206,q,49.6,Unlimited Time,h,49.58064574451551,60.49827445879302,61.278282947877074,38.88478696853319,38.88478696853319,61.278282947877074,60.49827445879302,49.58064574451551,-10,-0.33,0.33,10,49,39,48.67,49.33,59,10,10,10,10
1,19,0.4511460999999599,w,49.4,Unlimited Time,h,58.404787296620036,49.36482303017579,33.00001716555114,45.98831693419145,45.98831693419145,33.00001716555114,49.36482303017579,58.404787296620036,-10,-0.33,0.33,10,49,39,48.67,49.33,59,10,10,10,10
1,20,0.24683279999999286,q,54.9,Unlimited Time,h,54.89095101645253,46.10536579237322,58.344911411723814,34.65300201678871,34.65300201678871,58.344911411723814,46.10536579237322,54.89095101645253,-10,-0.33,0.33,10,49,39,48.67,49.33,59,10,10,10,10
2,1,,,0.0,Limited Time,e,61.67664736372679,45.18513860806832,56.38002223838505,53.28414743098881,45.18513860806832,53.28414743098881,56.38002223838505,61.67664736372679,0,0,0,0,49,49,49,49,49,3.1622776601683795,6.324555320336759,8.366600265340756,10
2,2,0.2752081000000999,o,45.0,Limited Time,e,45.32605410033033,44.20102952097671,44.950559413073286,45.617695868617645,44.20102952097671,45.617695868617645,44.950559413073286,45.32605410033033,0,0,0,0,49,49,49,49,49,3.1622776601683795,6.324555320336759,8.366600265340756,10
2,3,0.1781474999997954,p,47.7,Limited Time,e,46.46860000768156,44.57208775361621,34.39467689163183,47.67847784698451,44.57208775361621,47.67847784698451,34.39467689163183,46.46860000768156,0,0,0,0,49,49,49,49,49,3.1622776601683795,6.324555320336759,8.366600265340756,10
2,4,0.11442910000005213,w,46.0,Limited Time,e,37.629775797696915,46.04262684912956,46.99757020949289,42.825605170256324,46.04262684912956,42.825605170256324,46.99757020949289,37.629775797696915,0,0,0,0,49,49,49,49,49,3.1622776601683795,6.324555320336759,8.366600265340756,10
2,5,0.06978879999996934,p,43.4,Limited Time,e,40.90096413491525,49.972639053909916,47.5211477117656,43.40402670777869,49.972639053909916,43.40402670777869,47.5211477117656,40.90096413491525,0,0,0,0,49,49,49,49,49,3.1622776601683795,6.324555320336759,8.366600265340756,10
2,6,0.02814699999998993,o,37.6,Limited Time,e,44.99499799964824,49.729430759724515,37.58357263417677,48.29247579749381,49.729430759724515,48.29247579749381,37.58357263417677,44.99499799964824,0,0,0,0,49,49,49,49,49,3.1622776601683795,6.324555320336759,8.366600265340756,10
2,7,,,0.0,Limited Time,e,55.11413530297236,49.86138272021157,33.2820698068691,48.282608962221346,49.86138272021157,48.282608962221346,33.2820698068691,55.11413530297236,0,0,0,0,49,49,49,49,49,3.1622776601683795,6.324555320336759,8.366600265340756,10
2,8,0.032753700000057506,o,46.6,Limited Time,e,61.85179193103706,50.87544173985113,46.56846451694524,54.27044870991112,50.87544173985113,54.27044870991112,46.56846451694524,61.85179193103706,0,0,0,0,49,49,49,49,49,3.1622776601683795,6.324555320336759,8.366600265340756,10
2,9,0.23003450000010162,p,56.2,Limited Time,e,42.35133763855778,42.787530538342835,56.33645361119122,56.154379733733194,42.787530538342835,56.154379733733194,56.33645361119122,42.35133763855778,0,0,0,0,49,49,49,49,49,3.1622776601683795,6.324555320336759,8.366600265340756,10
2,10,0.30191679999984444,w,44.1,Limited Time,e,62.39588165866395,44.11626167681933,61.29692950895374,54.19721535326426,44.11626167681933,54.19721535326426,61.29692950895374,62.39588165866395,0,0,0,0,49,49,49,49,49,3.1622776601683795,6.324555320336759,8.366600265340756,10
2,11,0.05769109999982902,p,50.4,Limited Time,e,32.61158281535765,50.36811269736314,36.617514548408316,50.35283516709384,50.36811269736314,50.35283516709384,36.617514548408316,32.61158281535765,0,0,0,0,49,49,49,49,49,3.1622776601683795,6.324555320336759,8.366600265340756,10
2,12,0.014139699999986988,o,45.2,Limited Time,e,53.01635405119084,52.342263711058905,45.17876735027225,50.84916264068904,52.342263711058905,50.84916264068904,45.17876735027225,53.01635405119084,0,0,0,0,49,49,49,49,49,3.1622776601683795,6.324555320336759,8.366600265340756,10
2,13,0.3052282999999534,q,49.6,Limited Time,e,49.560879874704604,46.985340262618855,52.994563908751154,65.90093428171052,46.985340262618855,65.90093428171052,52.994563908751154,49.560879874704604,0,0,0,0,49,49,49,49,49,3.1622776601683795,6.324555320336759,8.366600265340756,10
2,14,0.0327442999998766,w,46.2,Limited Time,e,44.22411481252439,46.22056359018617,48.10526862943119,52.07773511139111,46.22056359018617,52.07773511139111,48.10526862943119,44.22411481252439,0,0,0,0,49,49,49,49,49,3.1622776601683795,6.324555320336759,8.366600265340756,10
2,15,0.29771889999983614,o,56.2,Limited Time,e,61.8042327891263,46.91134138908018,56.17036009381523,52.868628151025895,46.91134138908018,52.868628151025895,56.17036009381523,61.8042327891263,0,0,0,0,49,49,49,49,49,3.1622776601683795,6.324555320336759,8.366600265340756,10
2,16,0.28739699999982804,o,44.3,Limited Time,e,29.82535946336683,53.269523310625,44.31083224014649,51.066065049658484,53.269523310625,51.066065049658484,44.31083224014649,29.82535946336683,0,0,0,0,49,49,49,49,49,3.1622776601683795,6.324555320336759,8.366600265340756,10
2,17,,,0.0,Limited Time,e,46.39373677977143,47.10284658875038,52.65705186568444,43.58393335108771,47.10284658875038,43.58393335108771,52.65705186568444,46.39373677977143,0,0,0,0,49,49,49,49,49,3.1622776601683795,6.324555320336759,8.366600265340756,10
2,18,0.2932763999999679,p,41.3,Limited Time,e,53.64901271978592,50.191046711134234,43.88887529149371,41.32041198052147,50.191046711134234,41.32041198052147,43.88887529149371,53.64901271978592,0,0,0,0,49,49,49,49,49,3.1622776601683795,6.324555320336759,8.366600265340756,10
2,19,0.34095269999988886,q,57.1,Limited Time,e,57.09025868319936,44.864896898788025,63.28933299055514,54.066410414032504,44.864896898788025,54.066410414032504,63.28933299055514,57.09025868319936,0,0,0,0,49,49,49,49,49,3.1622776601683795,6.324555320336759,8.366600265340756,10
2,20,,,0.0,Limited Time,e,51.333955447749275,47.86555632145023,40.044406655925286,50.18844964037884,47.86555632145023,50.18844964037884,40.044406655925286,51.333955447749275,0,0,0,0,49,49,49,49,49,3.1622776601683795,6.324555320336759,8.366600265340756,10
3,1,0.41319499999985965,p,61.7,Unlimited Time,l,50.9309111328369,43.06352313459812,40.81198476980782,61.674519370319814,40.81198476980782,50.9309111328369,43.06352313459812,61.674519370319814,-10,-0.33,0.33,10,49,39,48.67,49.33,59,3.1622776601683795,3.1622776601683795,3.1622776601683795,3.1622776601683795
3,2,0.45166489999996884,p,58.7,Unlimited Time,l,43.91875440469137,46.462533807964,35.739464362738026,58.70585966568147,35.739464362738026,43.91875440469137,46.462533807964,58.70585966568147,-10,-0.33,0.33,10,49,39,48.67,49.33,59,3.1622776601683795,3.1622776601683795,3.1622776601683795,3.1622776601683795
3,3,0.3077087000001484,w,53.1,Unlimited Time,l,46.5790376741952,53.07139682164839,38.453746978730045,61.79831872519349,38.453746978730045,46.5790376741952,53.07139682164839,61.79831872519349,-10,-0.33,0.33,10,49,39,48.67,49.33,59,3.1622776601683795,3.1622776601683795,3.1622776601683795,3.1622776601683795
3,4,0.16942109999990862,o,40.3,Unlimited Time,l,48.212189457211835,50.914672646074976,40.29637583021121,67.44873008644716,40.29637583021121,48.212189457211835,50.914672646074976,67.44873008644716,-10,-0.33,0.33,10,49,39,48.67,49.33,59,3.1622776601683795,3.1622776601683795,3.1622776601683795,3.1622776601683795
3,5,0.27780110000003333,q,51.0,Unlimited Time,l,50.99620849730265,48.66926129242263,36.87779349449995,59.01958385233043,36.87779349449995,50.99620849730265,48.66926129242263,59.01958385233043,-10,-0.33,0.33,10,49,39,48.67,49.33,59,3.1622776601683795,3.1622776601683795,3.1622776601683795,3.1622776601683795
3,6,0.6600255999999263,w,50.5,Unlimited Time,l,46.3228861854361,50.513471811674755,41.6064994713946,53.499883474438626,41.6064994713946,46.3228861854361,50.513471811674755,53.499883474438626,-10,-0.33,0.33,10,49,39,48.67,49.33,59,3.1622776601683795,3.1622776601683795,3.1622776601683795,3.1622776601683795
3,7,0.10271890000012718,p,57.5,Unlimited Time,l,43.728374737339266,40.473817045831964,37.327158308025325,57.48064614491121,37.327158308025325,43.728374737339266,40.473817045831964,57.48064614491121,-10,-0.33,0.33,10,49,39,48.67,49.33,59,3.1622776601683795,3.1622776601683795,3.1622776601683795,3.1622776601683795
3,8,0.4238975999999184,p,61.9,Unlimited Time,l,44.30657404561096,50.02233695454622,37.026554168444946,61.92024303009814,37.026554168444946,44.30657404561096,50.02233695454622,61.92024303009814,-10,-0.33,0.33,10,49,39,48.67,49.33,59,3.1622776601683795,3.1622776601683795,3.1622776601683795,3.1622776601683795
3,9,0.4549761999999191,w,49.0,Unlimited Time,l,47.20672589359754,49.02071876968515,40.30094768148804,58.38177859887815,40.30094768148804,47.20672589359754,49.02071876968515,58.38177859887815,-10,-0.33,0.33,10,49,39,48.67,49.33,59,3.1622776601683795,3.1622776601683795,3.1622776601683795,3.1622776601683795
3,10,0.22987140000009276,p,60.4,Unlimited Time,l,49.175200186983965,46.42285065036301,36.24761713593658,60.3666633069952,36.24761713593658,49.175200186983965,46.42285065036301,60.3666633069952,-10,-0.33,0.33,10,49,39,48.67,49.33,59,3.1622776601683795,3.1622776601683795,3.1622776601683795,3.1622776601683795
3,11,0.009300799999891751,q,49.5,Unlimited Time,l,49.50831509074461,51.61546145989599,38.421608148642285,57.2754412417476,38.421608148642285,49.50831509074461,51.61546145989599,57.2754412417476,-10,-0.33,0.33,10,49,39,48.67,49.33,59,3.1622776601683795,3.1622776601683795,3.1622776601683795,3.1622776601683795
3,12,0.3346129999999903,o,43.4,Unlimited Time,l,45.43932982037092,50.963629909172745,43.38765515587948,56.33884042750026,43.38765515587948,45.43932982037092,50.963629909172745,56.33884042750026,-10,-0.33,0.33,10,49,39,48.67,49.33,59,3.1622776601683795,3.1622776601683795,3.1622776601683795,3.1622776601683795
3,13,0.2768111999998837,p,56.1,Unlimited Time,l,43.55697774144742,47.85137203193757,40.91625383270179,56.06682861210091,40.91625383270179,43.55697774144742,47.85137203193757,56.06682861210091,-10,-0.33,0.33,10,49,39,48.67,49.33,59,3.1622776601683795,3.1622776601683795,3.1622776601683795,3.1622776601683795
3,14,0.30931479999981093,p,60.5,Unlimited Time,l,46.42726368818882,44.19109306890125,44.21737340835065,60.52451231539244,44.21737340835065,46.42726368818882,44.19109306890125,60.52451231539244,-10,-0.33,0.33,10,49,39,48.67,49.33,59,3.1622776601683795,3.1622776601683795,3.1622776601683795,3.1622776601683795
3,15,0.5547036999998909,o,34.8,Unlimited Time,l,49.41524761826437,51.119755968736406,34.80806042174254,56.375653891586886,34.80806042174254,49.41524761826437,51.119755968736406,56.375653891586886,-10,-0.33,0.33,10,49,39,48.67,49.33,59,3.1622776601683795,3.1622776601683795,3.1622776601683795,3.1622776601683795
3,16,0.20921529999986888,p,60.0,Unlimited Time,l,49.49812714738863,46.04625941335092,39.71476532612733,59.973231629000765,39.71476532612733,49.49812714738863,46.04625941335092,59.973231629000765,-10,-0.33,0.33,10,49,39,48.67,49.33,59,3.1622776601683795,3.1622776601683795,3.1622776601683795,3.1622776601683795
3,17,0.29814680000004046,o,38.0,Unlimited Time,l,56.770444692393816,48.2590543401224,37.97823557279935,59.11095998364295,37.97823557279935,56.770444692393816,48.2590543401224,59.11095998364295,-10,-0.33,0.33,10,49,39,48.67,49.33,59,3.1622776601683795,3.1622776601683795,3.1622776601683795,3.1622776601683795
3,18,0.269189200000028,p,60.5,Unlimited Time,l,55.68383906326608,46.42743226245237,41.463155422251965,60.50057792552515,41.463155422251965,55.68383906326608,46.42743226245237,60.50057792552515,-10,-0.33,0.33,10,49,39,48.67,49.33,59,3.1622776601683795,3.1622776601683795,3.1622776601683795,3.1622776601683795
3,19,0.2927775999999085,w,49.2,Unlimited Time,l,46.25102420064256,49.249931818324725,32.445669170054714,57.953487976011445,32.445669170054714,46.25102420064256,49.249931818324725,57.953487976011445,-10,-0.33,0.33,10,49,39,48.67,49.33,59,3.1622776601683795,3.1622776601683795,3.1622776601683795,3.1622776601683795
3,20,0.1785446999999749,p,56.6,Unlimited Time,l,57.24326888529443,46.565116565690545,40.76716668742359,56.63416576060261,40.76716668742359,57.24326888529443,46.565116565690545,56.63416576060261,-10,-0.33,0.33,10,49,39,48.67,49.33,59,3.1622776601683795,3.1622776601683795,3.1622776601683795,3.1622776601683795
4,1,,,0.0,Limited Time,i,44.38903370519425,54.739088209690834,64.81095380604035,40.42166686164292,40.42166686164292,44.38903370519425,54.739088209690834,64.81095380604035,-10,-10,10,10,49,39,39,59,59,3.1622776601683795,10,3.1622776601683795,10
4,2,0.22390340000015385,p,32.0,Limited Time,i,39.56562398803245,57.79556432335139,54.99835838884036,32.012938475931804,32.012938475931804,39.56562398803245,57.79556432335139,54.99835838884036,-10,-10,10,10,49,39,39,59,59,3.1622776601683795,10,3.1622776601683795,10
4,3,0.11175520000006145,o,52.3,Limited Time,i,45.357967965543764,58.81577733889383,52.29416126477752,38.322638708476596,38.322638708476596,45.357967965543764,58.81577733889383,52.29416126477752,-10,-10,10,10,49,39,39,59,59,3.1622776601683795,10,3.1622776601683795,10
4,4,0.04613249999988511,w,62.5,Limited Time,i,39.03144656982576,62.46137469438888,60.90189516872904,38.219902039852755,38.219902039852755,39.03144656982576,62.46137469438888,60.90189516872904,-10,-10,10,10,49,39,39,59,59,3.1622776601683795,10,3.1622776601683795,10
4,5,0.2370789999997669,p,35.2,Limited Time,i,53.75341880525352,61.646700086542346,52.73368892064575,35.209373205667355,35.209373205667355,53.75341880525352,61.646700086542346,52.73368892064575,-10,-10,10,10,49,39,39,59,59,3.1622776601683795,10,3.1622776601683795,10
4,6,0.043552099999942584,o,66.4,Limited Time,i,44.158864307290415,65.7409029673847,66.38366428171597,41.97355853982576,41.97355853982576,44.158864307290415,65.7409029673847,66.38366428171597,-10,-10,10,10,49,39,39,59,59,3.1622776601683795,10,3.1622776601683795,10
4,7,0.1487041999998837,p,37.3,Limited Time,i,25.530149497040576,63.48246431737671,62.779066529122474,37.25263979884404,37.25263979884404,25.530149497040576,63.48246431737671,62.779066529122474,-10,-10,10,10,49,39,39,59,59,3.1622776601683795,10,3.1622776601683795,10
4,8,0.09830529999999271,o,62.2,Limited Time,i,39.17214993595893,57.26674960258072,62.17350158244671,41.95831830564895,41.95831830564895,39.17214993595893,57.26674960258072,62.17350158244671,-10,-10,10,10,49,39,39,59,59,3.1622776601683795,10,3.1622776601683795,10
4,9,0.030322299999852476,p,38.5,Limited Time,i,34.26989706086862,58.35600018253771,69.00176892817423,38.50648901109648,38.50648901109648,34.26989706086862,58.35600018253771,69.00176892817423,-10,-10,10,10,49,39,39,59,59,3.1622776601683795,10,3.1622776601683795,10
4,10,,,0.0,Limited Time,i,37.02778865431118,51.63174446089982,56.418743572427715,41.768066907510885,41.768066907510885,37.02778865431118,51.63174446089982,56.418743572427715,-10,-10,10,10,49,39,39,59,59,3.1622776601683795,10,3.1622776601683795,10
4,11,,,0.0,Limited Time,i,31.602809934392326,58.97952289715687,59.7172888534487,38.074441013094344,38.074441013094344,31.602809934392326,58.97952289715687,59.7172888534487,-10,-10,10,10,49,39,39,59,59,3.1622776601683795,10,3.1622776601683795,10
4,12,0.045871999999917534,o,69.1,Limited Time,i,41.27736641870216,56.98985535305393,69.05623107273867,39.673889120549525,39.673889120549525,41.27736641870216,56.98985535305393,69.05623107273867,-10,-10,10,10,49,39,39,59,59,3.1622776601683795,10,3.1622776601683795,10
4,13,0.23991099999989274,o,82.8,Limited Time,i,28.80985269076579,61.92367175372433,82.83883180646266,35.67230610223953,35.67230610223953,28.80985269076579,61.92367175372433,82.83883180646266,-10,-10,10,10,49,39,39,59,59,3.1622776601683795,10,3.1622776601683795,10
4,14,0.16813619999993534,w,57.2,Limited Time,i,35.14980111519972,57.24284937856776,63.47741586955513,43.962272525885375,43.962272525885375,35.14980111519972,57.24284937856776,63.47741586955513,-10,-10,10,10,49,39,39,59,59,3.1622776601683795,10,3.1622776601683795,10
4,15,0.0517432999997709,p,38.2,Limited Time,i,41.74038576658528,53.72335066952166,61.29837980230096,38.17137043393792,38.17137043393792,41.74038576658528,53.72335066952166,61.29837980230096,-10,-10,10,10,49,39,39,59,59,3.1622776601683795,10,3.1622776601683795,10
4,16,0.08276979999982359,o,59.3,Limited Time,i,44.10949157245628,56.292006514001685,59.259406731239395,35.12947960373894,35.12947960373894,44.10949157245628,56.292006514001685,59.259406731239395,-10,-10,10,10,49,39,39,59,59,3.1622776601683795,10,3.1622776601683795,10
4,17,0.13084029999981794,o,63.1,Limited Time,i,37.552872942516295,60.2351699258966,63.060583967886,40.8196535270707,40.8196535270707,37.552872942516295,60.2351699258966,63.060583967886,-10,-10,10,10,49,39,39,59,59,3.1622776601683795,10,3.1622776601683795,10
4,18,0.1443069999997988,p,39.0,Limited Time,i,21.469109443244687,60.288691021665024,32.09207258477748,39.014132249291706,39.014132249291706,21.469109443244687,60.288691021665024,32.09207258477748,-10,-10,10,10,49,39,39,59,59,3.1622776601683795,10,3.1622776601683795,10
4,19,,,0.0,Limited Time,i,42.97631024809595,62.476351059037796,59.1466873654994,38.05996874600841,38.05996874600841,42.97631024809595,62.476351059037796,59.1466873654994,-10,-10,10,10,49,39,39,59,59,3.1622776601683795,10,3.1622776601683795,10
4,20,0.22598650000009002,o,67.5,Limited Time,i,34.18066911979698,61.684233348873896,67.54615111142196,38.74366966633065,38.74366966633065,34.18066911979698,61.684233348873896,67.54615111142196,-10,-10,10,10,49,39,39,59,59,3.1622776601683795,10,3.1622776601683795,10
5,1,0.2943210999999337,o,53.3,Unlimited Time,e,45.18513860806832,56.38002223838505,53.28414743098881,61.67664736372679,45.18513860806832,53.28414743098881,56.38002223838505,61.67664736372679,0,0,0,0,49,49,49,49,49,3.1622776601683795,6.324555320336759,8.366600265340756,10
5,2,0.03117949999978009,p,45.3,Unlimited Time,e,44.20102952097671,44.950559413073286,45.617695868617645,45.32605410033033,44.20102952097671,45.617695868617645,44.950559413073286,45.32605410033033,0,0,0,0,49,49,49,49,49,3.1622776601683795,6.324555320336759,8.366600265340756,10
5,3,0.022324600000047212,o,47.7,Unlimited Time,e,44.57208775361621,34.39467689163183,47.67847784698451,46.46860000768156,44.57208775361621,47.67847784698451,34.39467689163183,46.46860000768156,0,0,0,0,49,49,49,49,49,3.1622776601683795,6.324555320336759,8.366600265340756,10
5,4,0.031557299999803945,p,37.6,Unlimited Time,e,46.04262684912956,46.99757020949289,42.825605170256324,37.629775797696915,46.04262684912956,42.825605170256324,46.99757020949289,37.629775797696915,0,0,0,0,49,49,49,49,49,3.1622776601683795,6.324555320336759,8.366600265340756,10
5,5,0.6166785000000345,o,43.4,Unlimited Time,e,49.972639053909916,47.5211477117656,43.40402670777869,40.90096413491525,49.972639053909916,43.40402670777869,47.5211477117656,40.90096413491525,0,0,0,0,49,49,49,49,49,3.1622776601683795,6.324555320336759,8.366600265340756,10
5,6,0.08198349999997845,w,37.6,Unlimited Time,e,49.729430759724515,37.58357263417677,48.29247579749381,44.99499799964824,49.729430759724515,48.29247579749381,37.58357263417677,44.99499799964824,0,0,0,0,49,49,49,49,49,3.1622776601683795,6.324555320336759,8.366600265340756,10
5,7,0.13106300000004012,q,49.9,Unlimited Time,e,49.86138272021157,33.2820698068691,48.282608962221346,55.11413530297236,49.86138272021157,48.282608962221346,33.2820698068691,55.11413530297236,0,0,0,0,49,49,49,49,49,3.1622776601683795,6.324555320336759,8.366600265340756,10
5,8,0.053604800000130126,p,61.9,Unlimited Time,e,50.87544173985113,46.56846451694524,54.27044870991112,61.85179193103706,50.87544173985113,54.27044870991112,46.56846451694524,61.85179193103706,0,0,0,0,49,49,49,49,49,3.1622776601683795,6.324555320336759,8.366600265340756,10
5,9,0.050143400000024485,o,56.2,Unlimited Time,e,42.787530538342835,56.33645361119122,56.154379733733194,42.35133763855778,42.787530538342835,56.154379733733194,56.33645361119122,42.35133763855778,0,0,0,0,49,49,49,49,49,3.1622776601683795,6.324555320336759,8.366600265340756,10
5,10,0.0816852000000381,p,62.4,Unlimited Time,e,44.11626167681933,61.29692950895374,54.19721535326426,62.39588165866395,44.11626167681933,54.19721535326426,61.29692950895374,62.39588165866395,0,0,0,0,49,49,49,49,49,3.1622776601683795,6.324555320336759,8.366600265340756,10
5,11,0.06560230000013689,o,50.4,Unlimited Time,e,50.36811269736314,36.617514548408316,50.35283516709384,32.61158281535765,50.36811269736314,50.35283516709384,36.617514548408316,32.61158281535765,0,0,0,0,49,49,49,49,49,3.1622776601683795,6.324555320336759,8.366600265340756,10
5,12,0.05092119999994793,w,45.2,Unlimited Time,e,52.342263711058905,45.17876735027225,50.84916264068904,53.01635405119084,52.342263711058905,50.84916264068904,45.17876735027225,53.01635405119084,0,0,0,0,49,49,49,49,49,3.1622776601683795,6.324555320336759,8.366600265340756,10
5,13,0.08441390000007232,q,47.0,Unlimited Time,e,46.985340262618855,52.994563908751154,65.90093428171052,49.560879874704604,46.985340262618855,65.90093428171052,52.994563908751154,49.560879874704604,0,0,0,0,49,49,49,49,49,3.1622776601683795,6.324555320336759,8.366600265340756,10
5,14,0.4007940999999846,p,44.2,Unlimited Time,e,46.22056359018617,48.10526862943119,52.07773511139111,44.22411481252439,46.22056359018617,52.07773511139111,48.10526862943119,44.22411481252439,0,0,0,0,49,49,49,49,49,3.1622776601683795,6.324555320336759,8.366600265340756,10
5,15,0.0179648000000725,o,52.9,Unlimited Time,e,46.91134138908018,56.17036009381523,52.868628151025895,61.8042327891263,46.91134138908018,52.868628151025895,56.17036009381523,61.8042327891263,0,0,0,0,49,49,49,49,49,3.1622776601683795,6.324555320336759,8.366600265340756,10
5,16,0.01999959999989187,w,44.3,Unlimited Time,e,53.269523310625,44.31083224014649,51.066065049658484,29.82535946336683,53.269523310625,51.066065049658484,44.31083224014649,29.82535946336683,0,0,0,0,49,49,49,49,49,3.1622776601683795,6.324555320336759,8.366600265340756,10
5,17,0.053120499999977255,q,47.1,Unlimited Time,e,47.10284658875038,52.65705186568444,43.58393335108771,46.39373677977143,47.10284658875038,43.58393335108771,52.65705186568444,46.39373677977143,0,0,0,0,49,49,49,49,49,3.1622776601683795,6.324555320336759,8.366600265340756,10
5,18,0.03768739999986792,o,41.3,Unlimited Time,e,50.191046711134234,43.88887529149371,41.32041198052147,53.64901271978592,50.191046711134234,41.32041198052147,43.88887529149371,53.64901271978592,0,0,0,0,49,49,49,49,49,3.1622776601683795,6.324555320336759,8.366600265340756,10
5,19,0.06837999999993372,p,57.1,Unlimited Time,e,44.864896898788025,63.28933299055514,54.066410414032504,57.09025868319936,44.864896898788025,54.066410414032504,63.28933299055514,57.09025868319936,0,0,0,0,49,49,49,49,49,3.1622776601683795,6.324555320336759,8.366600265340756,10
5,20,0.2604157999999188,p,51.3,Unlimited Time,e,47.86555632145023,40.044406655925286,50.18844964037884,51.333955447749275,47.86555632145023,50.18844964037884,40.044406655925286,51.333955447749275,0,0,0,0,49,49,49,49,49,3.1622776601683795,6.324555320336759,8.366600265340756,10
6,1,0.31429819999993924,o,69.5,Limited Time,h,53.234132450821654,39.26791985285376,69.51006570527034,35.53743108798949,35.53743108798949,39.26791985285376,69.51006570527034,53.234132450821654,-10,-0.33,0.33,10,49,39,48.67,49.33,59,10,10,10,10
6,2,0.07164149999994152,p,48.5,Limited Time,h,55.52947286759596,54.85527498635203,43.68207609225743,48.53936603696888,48.53936603696888,54.85527498635203,43.68207609225743,55.52947286759596,-10,-0.33,0.33,10,49,39,48.67,49.33,59,10,10,10,10
6,3,,,0.0,Limited Time,h,66.67006426010974,72.43748625515497,61.829465230333284,34.92312172206432,34.92312172206432,72.43748625515497,61.829465230333284,66.67006426010974,-10,-0.33,0.33,10,49,39,48.67,49.33,59,10,10,10,10
6,4,0.08842959999992672,w,54.8,Limited Time,h,57.176561183906315,54.83982921543213,58.03827128407201,40.46287878604732,40.46287878604732,54.83982921543213,58.03827128407201,57.176561183906315,-10,-0.33,0.33,10,49,39,48.67,49.33,59,10,10,10,10
6,5,0.0038068000001203472,o,64.9,Limited Time,h,44.083593952859786,48.64063427727838,64.94405878206574,47.061471771349616,47.061471771349616,48.64063427727838,64.94405878206574,44.083593952859786,-10,-0.33,0.33,10,49,39,48.67,49.33,59,10,10,10,10
6,6,0.06167989999994461,o,55.9,Limited Time,h,69.53782513276876,37.15708400898311,55.8616388110654,23.1797087103135,23.1797087103135,37.15708400898311,55.8616388110654,69.53782513276876,-10,-0.33,0.33,10,49,39,48.67,49.33,59,10,10,10,10
6,7,0.10386579999976675,o,59.7,Limited Time,h,45.418521941585,67.90823344353511,59.71125518547095,13.327607910763078,13.327607910763078,67.90823344353511,59.71125518547095,45.418521941585,-10,-0.33,0.33,10,49,39,48.67,49.33,59,10,10,10,10
6,8,0.020899699999972654,o,44.6,Limited Time,h,64.87237590411496,43.035207142411586,44.62033494667177,43.40884299270497,43.40884299270497,43.035207142411586,44.62033494667177,64.87237590411496,-10,-0.33,0.33,10,49,39,48.67,49.33,59,10,10,10,10
6,9,0.006849599999895872,w,52.2,Limited Time,h,65.075161584943,52.181730122343865,56.043091828062146,34.30409025335244,34.30409025335244,52.181730122343865,56.043091828062146,65.075161584943,-10,-0.33,0.33,10,49,39,48.67,49.33,59,10,10,10,10
6,10,0.07205559999988509,w,49.6,Limited Time,h,49.67935674581642,49.58571130641226,47.47130826778355,39.622607607202966,39.622607607202966,49.58571130641226,47.47130826778355,49.67935674581642,-10,-0.33,0.33,10,49,39,48.67,49.33,59,10,10,10,10
6,11,0.01590049999981602,w,39.8,Limited Time,h,66.2124046467485,39.802873507752075,44.57583482182544,37.14850029836909,37.14850029836909,39.802873507752075,44.57583482182544,66.2124046467485,-10,-0.33,0.33,10,49,39,48.67,49.33,59,10,10,10,10
6,12,0.09871539999994638,p,29.0,Limited Time,h,76.21974330425387,45.47185156674864,54.54262768948815,29.031422050173735,29.031422050173735,45.47185156674864,54.54262768948815,76.21974330425387,-10,-0.33,0.33,10,49,39,48.67,49.33,59,10,10,10,10
6,13,0.05175029999986691,p,46.9,Limited Time,h,64.78728487661684,41.302334527683456,43.154138072845,46.88825268823149,46.88825268823149,41.302334527683456,43.154138072845,64.78728487661684,-10,-0.33,0.33,10,49,39,48.67,49.33,59,10,10,10,10
6,14,0.08423870000001443,p,25.2,Limited Time,h,60.48577414996713,52.954043748343224,42.73089041578181,25.232828339389407,25.232828339389407,52.954043748343224,42.73089041578181,60.48577414996713,-10,-0.33,0.33,10,49,39,48.67,49.33,59,10,10,10,10
6,15,0.03721359999985907,q,64.5,Limited Time,h,64.54362084759504,60.693691328529795,66.69419072275211,62.93025263515952,62.93025263515952,60.693691328529795,66.69419072275211,64.54362084759504,-10,-0.33,0.33,10,49,39,48.67,49.33,59,10,10,10,10
6,16,0.06123030000003382,p,55.0,Limited Time,h,51.9392367216658,44.870486005367,27.25434300339995,54.98516323874968,54.98516323874968,44.870486005367,27.25434300339995,51.9392367216658,-10,-0.33,0.33,10,49,39,48.67,49.33,59,10,10,10,10
6,17,0.3115635999999995,q,45.4,Limited Time,h,45.38431308445869,42.60083853004007,30.472983963977896,27.722361381033803,27.722361381033803,42.60083853004007,30.472983963977896,45.38431308445869,-10,-0.33,0.33,10,49,39,48.67,49.33,59,10,10,10,10
6,18,0.3240392000000156,o,60.5,Limited Time,h,49.58064574451551,61.278282947877074,60.49827445879302,38.88478696853319,38.88478696853319,61.278282947877074,60.49827445879302,49.58064574451551,-10,-0.33,0.33,10,49,39,48.67,49.33,59,10,10,10,10
6,19,0.018562799999926938,w,33.0,Limited Time,h,58.404787296620036,33.00001716555114,49.36482303017579,45.98831693419145,45.98831693419145,33.00001716555114,49.36482303017579,58.404787296620036,-10,-0.33,0.33,10,49,39,48.67,49.33,59,10,10,10,10
6,20,0.08040180000011787,q,54.9,Limited Time,h,54.89095101645253,58.344911411723814,46.10536579237322,34.65300201678871,34.65300201678871,58.344911411723814,46.10536579237322,54.89095101645253,-10,-0.33,0.33,10,49,39,48.67,49.33,59,10,10,10,10
7,1,0.546304199999895,o,64.8,Unlimited Time,i,54.739088209690834,40.42166686164292,64.81095380604035,44.38903370519425,40.42166686164292,44.38903370519425,54.739088209690834,64.81095380604035,-10,-10,10,10,49,39,39,59,59,3.1622776601683795,10,3.1622776601683795,10
7,2,0.4326131999998779,o,55.0,Unlimited Time,i,57.79556432335139,32.012938475931804,54.99835838884036,39.56562398803245,32.012938475931804,39.56562398803245,57.79556432335139,54.99835838884036,-10,-10,10,10,49,39,39,59,59,3.1622776601683795,10,3.1622776601683795,10
7,3,0.3708321999999953,p,45.4,Unlimited Time,i,58.81577733889383,38.322638708476596,52.29416126477752,45.357967965543764,38.322638708476596,45.357967965543764,58.81577733889383,52.29416126477752,-10,-10,10,10,49,39,39,59,59,3.1622776601683795,10,3.1622776601683795,10
7,4,0.32359999999994216,o,60.9,Unlimited Time,i,62.46137469438888,38.219902039852755,60.90189516872904,39.03144656982576,38.219902039852755,39.03144656982576,62.46137469438888,60.90189516872904,-10,-10,10,10,49,39,39,59,59,3.1622776601683795,10,3.1622776601683795,10
7,5,0.4859137000000828,p,53.8,Unlimited Time,i,61.646700086542346,35.209373205667355,52.73368892064575,53.75341880525352,35.209373205667355,53.75341880525352,61.646700086542346,52.73368892064575,-10,-10,10,10,49,39,39,59,59,3.1622776601683795,10,3.1622776601683795,10
7,6,0.22755959999994957,o,66.4,Unlimited Time,i,65.7409029673847,41.97355853982576,66.38366428171597,44.158864307290415,41.97355853982576,44.158864307290415,65.7409029673847,66.38366428171597,-10,-10,10,10,49,39,39,59,59,3.1622776601683795,10,3.1622776601683795,10
7,7,0.2006330999997772,w,37.3,Unlimited Time,i,63.48246431737671,37.25263979884404,62.779066529122474,25.530149497040576,37.25263979884404,25.530149497040576,63.48246431737671,62.779066529122474,-10,-10,10,10,49,39,39,59,59,3.1622776601683795,10,3.1622776601683795,10
7,8,0.40167239999982485,o,62.2,Unlimited Time,i,57.26674960258072,41.95831830564895,62.17350158244671,39.17214993595893,41.95831830564895,39.17214993595893,57.26674960258072,62.17350158244671,-10,-10,10,10,49,39,39,59,59,3.1622776601683795,10,3.1622776601683795,10
7,9,0.34898120000002564,q,58.4,Unlimited Time,i,58.35600018253771,38.50648901109648,69.00176892817423,34.26989706086862,38.50648901109648,34.26989706086862,58.35600018253771,69.00176892817423,-10,-10,10,10,49,39,39,59,59,3.1622776601683795,10,3.1622776601683795,10
7,10,0.07285860000001776,o,56.4,Unlimited Time,i,51.63174446089982,41.768066907510885,56.418743572427715,37.02778865431118,41.768066907510885,37.02778865431118,51.63174446089982,56.418743572427715,-10,-10,10,10,49,39,39,59,59,3.1622776601683795,10,3.1622776601683795,10
7,11,0.24343529999987368,o,59.7,Unlimited Time,i,58.97952289715687,38.074441013094344,59.7172888534487,31.602809934392326,38.074441013094344,31.602809934392326,58.97952289715687,59.7172888534487,-10,-10,10,10,49,39,39,59,59,3.1622776601683795,10,3.1622776601683795,10
7,12,0.1898834999999508,q,57.0,Unlimited Time,i,56.98985535305393,39.673889120549525,69.05623107273867,41.27736641870216,39.673889120549525,41.27736641870216,56.98985535305393,69.05623107273867,-10,-10,10,10,49,39,39,59,59,3.1622776601683795,10,3.1622776601683795,10
7,13,0.11794589999999516,o,82.8,Unlimited Time,i,61.92367175372433,35.67230610223953,82.83883180646266,28.80985269076579,35.67230610223953,28.80985269076579,61.92367175372433,82.83883180646266,-10,-10,10,10,49,39,39,59,59,3.1622776601683795,10,3.1622776601683795,10
7,14,0.3007594999999128,p,35.1,Unlimited Time,i,57.24284937856776,43.962272525885375,63.47741586955513,35.14980111519972,43.962272525885375,35.14980111519972,57.24284937856776,63.47741586955513,-10,-10,10,10,49,39,39,59,59,3.1622776601683795,10,3.1622776601683795,10
7,15,0.08656059999998433,o,61.3,Unlimited Time,i,53.72335066952166,38.17137043393792,61.29837980230096,41.74038576658528,38.17137043393792,41.74038576658528,53.72335066952166,61.29837980230096,-10,-10,10,10,49,39,39,59,59,3.1622776601683795,10,3.1622776601683795,10
7,16,0.1217298999997638,q,56.3,Unlimited Time,i,56.292006514001685,35.12947960373894,59.259406731239395,44.10949157245628,35.12947960373894,44.10949157245628,56.292006514001685,59.259406731239395,-10,-10,10,10,49,39,39,59,59,3.1622776601683795,10,3.1622776601683795,10
7,17,0.07612149999977191,o,63.1,Unlimited Time,i,60.2351699258966,40.8196535270707,63.060583967886,37.552872942516295,40.8196535270707,37.552872942516295,60.2351699258966,63.060583967886,-10,-10,10,10,49,39,39,59,59,3.1622776601683795,10,3.1622776601683795,10
7,18,0.3137173999998595,o,32.1,Unlimited Time,i,60.288691021665024,39.014132249291706,32.09207258477748,21.469109443244687,39.014132249291706,21.469109443244687,60.288691021665024,32.09207258477748,-10,-10,10,10,49,39,39,59,59,3.1622776601683795,10,3.1622776601683795,10
7,19,0.22705409999980475,p,43.0,Unlimited Time,i,62.476351059037796,38.05996874600841,59.1466873654994,42.97631024809595,38.05996874600841,42.97631024809595,62.476351059037796,59.1466873654994,-10,-10,10,10,49,39,39,59,59,3.1622776601683795,10,3.1622776601683795,10
7,20,0.16246569999998428,q,61.7,Unlimited Time,i,61.684233348873896,38.74366966633065,67.54615111142196,34.18066911979698,38.74366966633065,34.18066911979698,61.684233348873896,67.54615111142196,-10,-10,10,10,49,39,39,59,59,3.1622776601683795,10,3.1622776601683795,10
8,1,,,0.0,Limited Time,h,39.26791985285376,69.51006570527034,53.234132450821654,35.53743108798949,35.53743108798949,39.26791985285376,69.51006570527034,53.234132450821654,-10,-0.33,0.33,10,49,39,48.67,49.33,59,10,10,10,10
8,2,0.3055755999998837,o,55.5,Limited Time,h,54.85527498635203,43.68207609225743,55.52947286759596,48.53936603696888,48.53936603696888,54.85527498635203,43.68207609225743,55.52947286759596,-10,-0.33,0.33,10,49,39,48.67,49.33,59,10,10,10,10
8,3,0.028056699999979173,o,66.7,Limited Time,h,72.43748625515497,61.829465230333284,66.67006426010974,34.92312172206432,34.92312172206432,72.43748625515497,61.829465230333284,66.67006426010974,-10,-0.33,0.33,10,49,39,48.67,49.33,59,10,10,10,10
8,4,0.058222399999976915,p,40.5,Limited Time,h,54.83982921543213,58.03827128407201,57.176561183906315,40.46287878604732,40.46287878604732,54.83982921543213,58.03827128407201,57.176561183906315,-10,-0.33,0.33,10,49,39,48.67,49.33,59,10,10,10,10
8,5,,,0.0,Limited Time,h,48.64063427727838,64.94405878206574,44.083593952859786,47.061471771349616,47.061471771349616,48.64063427727838,64.94405878206574,44.083593952859786,-10,-0.33,0.33,10,49,39,48.67,49.33,59,10,10,10,10
8,6,,,0.0,Limited Time,h,37.15708400898311,55.8616388110654,69.53782513276876,23.1797087103135,23.1797087103135,37.15708400898311,55.8616388110654,69.53782513276876,-10,-0.33,0.33,10,49,39,48.67,49.33,59,10,10,10,10
8,7,0.3054385000000366,o,45.4,Limited Time,h,67.90823344353511,59.71125518547095,45.418521941585,13.327607910763078,13.327607910763078,67.90823344353511,59.71125518547095,45.418521941585,-10,-0.33,0.33,10,49,39,48.67,49.33,59,10,10,10,10
8,8,0.2720884999998816,p,43.4,Limited Time,h,43.035207142411586,44.62033494667177,64.87237590411496,43.40884299270497,43.40884299270497,43.035207142411586,44.62033494667177,64.87237590411496,-10,-0.33,0.33,10,49,39,48.67,49.33,59,10,10,10,10
8,9,0.03700679999997192,o,65.1,Limited Time,h,52.181730122343865,56.043091828062146,65.075161584943,34.30409025335244,34.30409025335244,52.181730122343865,56.043091828062146,65.075161584943,-10,-0.33,0.33,10,49,39,48.67,49.33,59,10,10,10,10
8,10,0.09310009999990143,w,47.5,Limited Time,h,49.58571130641226,47.47130826778355,49.67935674581642,39.622607607202966,39.622607607202966,49.58571130641226,47.47130826778355,49.67935674581642,-10,-0.33,0.33,10,49,39,48.67,49.33,59,10,10,10,10
8,11,0.2915424999998777,w,44.6,Limited Time,h,39.802873507752075,44.57583482182544,66.2124046467485,37.14850029836909,37.14850029836909,39.802873507752075,44.57583482182544,66.2124046467485,-10,-0.33,0.33,10,49,39,48.67,49.33,59,10,10,10,10
8,12,0.32390159999977186,w,54.5,Limited Time,h,45.47185156674864,54.54262768948815,76.21974330425387,29.031422050173735,29.031422050173735,45.47185156674864,54.54262768948815,76.21974330425387,-10,-0.33,0.33,10,49,39,48.67,49.33,59,10,10,10,10
8,13,,,0.0,Limited Time,h,41.302334527683456,43.154138072845,64.78728487661684,46.88825268823149,46.88825268823149,41.302334527683456,43.154138072845,64.78728487661684,-10,-0.33,0.33,10,49,39,48.67,49.33,59,10,10,10,10
8,14,0.22630529999992177,w,42.7,Limited Time,h,52.954043748343224,42.73089041578181,60.48577414996713,25.232828339389407,25.232828339389407,52.954043748343224,42.73089041578181,60.48577414996713,-10,-0.33,0.33,10,49,39,48.67,49.33,59,10,10,10,10
8,15,0.2534567000000152,w,66.7,Limited Time,h,60.693691328529795,66.69419072275211,64.54362084759504,62.93025263515952,62.93025263515952,60.693691328529795,66.69419072275211,64.54362084759504,-10,-0.33,0.33,10,49,39,48.67,49.33,59,10,10,10,10
8,16,0.1973689999999806,o,51.9,Limited Time,h,44.870486005367,27.25434300339995,51.9392367216658,54.98516323874968,54.98516323874968,44.870486005367,27.25434300339995,51.9392367216658,-10,-0.33,0.33,10,49,39,48.67,49.33,59,10,10,10,10
8,17,0.23328119999996488,o,45.4,Limited Time,h,42.60083853004007,30.472983963977896,45.38431308445869,27.722361381033803,27.722361381033803,42.60083853004007,30.472983963977896,45.38431308445869,-10,-0.33,0.33,10,49,39,48.67,49.33,59,10,10,10,10
8,18,0.20261899999991329,o,49.6,Limited Time,h,61.278282947877074,60.49827445879302,49.58064574451551,38.88478696853319,38.88478696853319,61.278282947877074,60.49827445879302,49.58064574451551,-10,-0.33,0.33,10,49,39,48.67,49.33,59,10,10,10,10
8,19,0.1909393999999338,w,49.4,Limited Time,h,33.00001716555114,49.36482303017579,58.404787296620036,45.98831693419145,45.98831693419145,33.00001716555114,49.36482303017579,58.404787296620036,-10,-0.33,0.33,10,49,39,48.67,49.33,59,10,10,10,10
8,20,0.18168279999986225,o,54.9,Limited Time,h,58.344911411723814,46.10536579237322,54.89095101645253,34.65300201678871,34.65300201678871,58.344911411723814,46.10536579237322,54.89095101645253,-10,-0.33,0.33,10,49,39,48.67,49.33,59,10,10,10,10
9,1,0.4132363000001078,p,54.7,Unlimited Time,i,64.81095380604035,40.42166686164292,44.38903370519425,54.739088209690834,40.42166686164292,44.38903370519425,54.739088209690834,64.81095380604035,-10,-10,10,10,49,39,39,59,59,3.1622776601683795,10,3.1622776601683795,10
9,2,0.2961689999999635,o,39.6,Unlimited Time,i,54.99835838884036,32.012938475931804,39.56562398803245,57.79556432335139,32.012938475931804,39.56562398803245,57.79556432335139,54.99835838884036,-10,-10,10,10,49,39,39,59,59,3.1622776601683795,10,3.1622776601683795,10
9,3,0.236804599999914,q,52.3,Unlimited Time,i,52.29416126477752,38.322638708476596,45.357967965543764,58.81577733889383,38.322638708476596,45.357967965543764,58.81577733889383,52.29416126477752,-10,-10,10,10,49,39,39,59,59,3.1622776601683795,10,3.1622776601683795,10
9,4,0.5150773000000299,p,62.5,Unlimited Time,i,60.90189516872904,38.219902039852755,39.03144656982576,62.46137469438888,38.219902039852755,39.03144656982576,62.46137469438888,60.90189516872904,-10,-10,10,10,49,39,39,59,59,3.1622776601683795,10,3.1622776601683795,10
9,5,0.3627326999999241,p,61.6,Unlimited Time,i,52.73368892064575,35.209373205667355,53.75341880525352,61.646700086542346,35.209373205667355,53.75341880525352,61.646700086542346,52.73368892064575,-10,-10,10,10,49,39,39,59,59,3.1622776601683795,10,3.1622776601683795,10
9,6,0.2764170999998896,w,42.0,Unlimited Time,i,66.38366428171597,41.97355853982576,44.158864307290415,65.7409029673847,41.97355853982576,44.158864307290415,65.7409029673847,66.38366428171597,-10,-10,10,10,49,39,39,59,59,3.1622776601683795,10,3.1622776601683795,10
9,7,0.24285820000000058,q,62.8,Unlimited Time,i,62.779066529122474,37.25263979884404,25.530149497040576,63.48246431737671,37.25263979884404,25.530149497040576,63.48246431737671,62.779066529122474,-10,-10,10,10,49,39,39,59,59,3.1622776601683795,10,3.1622776601683795,10
9,8,0.4702646000000641,q,62.2,Unlimited Time,i,62.17350158244671,41.95831830564895,39.17214993595893,57.26674960258072,41.95831830564895,39.17214993595893,57.26674960258072,62.17350158244671,-10,-10,10,10,49,39,39,59,59,3.1622776601683795,10,3.1622776601683795,10
9,9,0.3737871000000723,w,38.5,Unlimited Time,i,69.00176892817423,38.50648901109648,34.26989706086862,58.35600018253771,38.50648901109648,34.26989706086862,58.35600018253771,69.00176892817423,-10,-10,10,10,49,39,39,59,59,3.1622776601683795,10,3.1622776601683795,10
9,10,0.16447760000005474,q,56.4,Unlimited Time,i,56.418743572427715,41.768066907510885,37.02778865431118,51.63174446089982,41.768066907510885,37.02778865431118,51.63174446089982,56.418743572427715,-10,-10,10,10,49,39,39,59,59,3.1622776601683795,10,3.1622776601683795,10
9,11,0.2784167999998317,p,59.0,Unlimited Time,i,59.7172888534487,38.074441013094344,31.602809934392326,58.97952289715687,38.074441013094344,31.602809934392326,58.97952289715687,59.7172888534487,-10,-10,10,10,49,39,39,59,59,3.1622776601683795,10,3.1622776601683795,10
9,12,0.3978028999997605,q,69.1,Unlimited Time,i,69.05623107273867,39.673889120549525,41.27736641870216,56.98985535305393,39.673889120549525,41.27736641870216,56.98985535305393,69.05623107273867,-10,-10,10,10,49,39,39,59,59,3.1622776601683795,10,3.1622776601683795,10
9,13,0.12480440000013004,p,61.9,Unlimited Time,i,82.83883180646266,35.67230610223953,28.80985269076579,61.92367175372433,35.67230610223953,28.80985269076579,61.92367175372433,82.83883180646266,-10,-10,10,10,49,39,39,59,59,3.1622776601683795,10,3.1622776601683795,10
9,14,0.33651209999993625,o,35.1,Unlimited Time,i,63.47741586955513,43.962272525885375,35.14980111519972,57.24284937856776,43.962272525885375,35.14980111519972,57.24284937856776,63.47741586955513,-10,-10,10,10,49,39,39,59,59,3.1622776601683795,10,3.1622776601683795,10
9,15,0.10453719999986788,q,61.3,Unlimited Time,i,61.29837980230096,38.17137043393792,41.74038576658528,53.72335066952166,38.17137043393792,41.74038576658528,53.72335066952166,61.29837980230096,-10,-10,10,10,49,39,39,59,59,3.1622776601683795,10,3.1622776601683795,10
9,16,0.239106799999945,p,56.3,Unlimited Time,i,59.259406731239395,35.12947960373894,44.10949157245628,56.292006514001685,35.12947960373894,44.10949157245628,56.292006514001685,59.259406731239395,-10,-10,10,10,49,39,39,59,59,3.1622776601683795,10,3.1622776601683795,10
9,17,0.5020595999999387,o,37.6,Unlimited Time,i,63.060583967886,40.8196535270707,37.552872942516295,60.2351699258966,40.8196535270707,37.552872942516295,60.2351699258966,63.060583967886,-10,-10,10,10,49,39,39,59,59,3.1622776601683795,10,3.1622776601683795,10
9,18,0.32555950000005396,p,60.3,Unlimited Time,i,32.09207258477748,39.014132249291706,21.469109443244687,60.288691021665024,39.014132249291706,21.469109443244687,60.288691021665024,32.09207258477748,-10,-10,10,10,49,39,39,59,59,3.1622776601683795,10,3.1622776601683795,10
9,19,0.18167489999996178,q,59.1,Unlimited Time,i,59.1466873654994,38.05996874600841,42.97631024809595,62.476351059037796,38.05996874600841,42.97631024809595,62.476351059037796,59.1466873654994,-10,-10,10,10,49,39,39,59,59,3.1622776601683795,10,3.1622776601683795,10
9,20,0.39767219999998815,p,61.7,Unlimited Time,i,67.54615111142196,38.74366966633065,34.18066911979698,61.684233348873896,38.74366966633065,34.18066911979698,61.684233348873896,67.54615111142196,-10,-10,10,10,49,39,39,59,59,3.1622776601683795,10,3.1622776601683795,10
10,1,,,0.0,Limited Time,l,43.06352313459812,50.9309111328369,61.674519370319814,40.81198476980782,40.81198476980782,50.9309111328369,43.06352313459812,61.674519370319814,-10,-0.33,0.33,10,49,39,48.67,49.33,59,3.1622776601683795,3.1622776601683795,3.1622776601683795,3.1622776601683795
10,2,0.28725939999981165,o,58.7,Limited Time,l,46.462533807964,43.91875440469137,58.70585966568147,35.739464362738026,35.739464362738026,43.91875440469137,46.462533807964,58.70585966568147,-10,-0.33,0.33,10,49,39,48.67,49.33,59,3.1622776601683795,3.1622776601683795,3.1622776601683795,3.1622776601683795
10,3,0.10973809999995865,p,38.5,Limited Time,l,53.07139682164839,46.5790376741952,61.79831872519349,38.453746978730045,38.453746978730045,46.5790376741952,53.07139682164839,61.79831872519349,-10,-0.33,0.33,10,49,39,48.67,49.33,59,3.1622776601683795,3.1622776601683795,3.1622776601683795,3.1622776601683795
10,4,,,0.0,Limited Time,l,50.914672646074976,48.212189457211835,67.44873008644716,40.29637583021121,40.29637583021121,48.212189457211835,50.914672646074976,67.44873008644716,-10,-0.33,0.33,10,49,39,48.67,49.33,59,3.1622776601683795,3.1622776601683795,3.1622776601683795,3.1622776601683795
10,5,0.2635892999999214,o,59.0,Limited Time,l,48.66926129242263,50.99620849730265,59.01958385233043,36.87779349449995,36.87779349449995,50.99620849730265,48.66926129242263,59.01958385233043,-10,-0.33,0.33,10,49,39,48.67,49.33,59,3.1622776601683795,3.1622776601683795,3.1622776601683795,3.1622776601683795
10,6,0.20598840000002383,o,53.5,Limited Time,l,50.513471811674755,46.3228861854361,53.499883474438626,41.6064994713946,41.6064994713946,46.3228861854361,50.513471811674755,53.499883474438626,-10,-0.33,0.33,10,49,39,48.67,49.33,59,3.1622776601683795,3.1622776601683795,3.1622776601683795,3.1622776601683795
10,7,0.2650998999999956,o,57.5,Limited Time,l,40.473817045831964,43.728374737339266,57.48064614491121,37.327158308025325,37.327158308025325,43.728374737339266,40.473817045831964,57.48064614491121,-10,-0.33,0.33,10,49,39,48.67,49.33,59,3.1622776601683795,3.1622776601683795,3.1622776601683795,3.1622776601683795
10,8,0.17169639999997344,o,61.9,Limited Time,l,50.02233695454622,44.30657404561096,61.92024303009814,37.026554168444946,37.026554168444946,44.30657404561096,50.02233695454622,61.92024303009814,-10,-0.33,0.33,10,49,39,48.67,49.33,59,3.1622776601683795,3.1622776601683795,3.1622776601683795,3.1622776601683795
10,9,0.2186581999999362,o,58.4,Limited Time,l,49.02071876968515,47.20672589359754,58.38177859887815,40.30094768148804,40.30094768148804,47.20672589359754,49.02071876968515,58.38177859887815,-10,-0.33,0.33,10,49,39,48.67,49.33,59,3.1622776601683795,3.1622776601683795,3.1622776601683795,3.1622776601683795
10,10,0.19313609999994696,o,60.4,Limited Time,l,46.42285065036301,49.175200186983965,60.3666633069952,36.24761713593658,36.24761713593658,49.175200186983965,46.42285065036301,60.3666633069952,-10,-0.33,0.33,10,49,39,48.67,49.33,59,3.1622776601683795,3.1622776601683795,3.1622776601683795,3.1622776601683795
10,11,0.20150250000006054,o,57.3,Limited Time,l,51.61546145989599,49.50831509074461,57.2754412417476,38.421608148642285,38.421608148642285,49.50831509074461,51.61546145989599,57.2754412417476,-10,-0.33,0.33,10,49,39,48.67,49.33,59,3.1622776601683795,3.1622776601683795,3.1622776601683795,3.1622776601683795
10,12,0.14704009999991285,o,56.3,Limited Time,l,50.963629909172745,45.43932982037092,56.33884042750026,43.38765515587948,43.38765515587948,45.43932982037092,50.963629909172745,56.33884042750026,-10,-0.33,0.33,10,49,39,48.67,49.33,59,3.1622776601683795,3.1622776601683795,3.1622776601683795,3.1622776601683795
10,13,0.23118969999995898,o,56.1,Limited Time,l,47.85137203193757,43.55697774144742,56.06682861210091,40.91625383270179,40.91625383270179,43.55697774144742,47.85137203193757,56.06682861210091,-10,-0.33,0.33,10,49,39,48.67,49.33,59,3.1622776601683795,3.1622776601683795,3.1622776601683795,3.1622776601683795
10,14,0.23552390000008927,o,60.5,Limited Time,l,44.19109306890125,46.42726368818882,60.52451231539244,44.21737340835065,44.21737340835065,46.42726368818882,44.19109306890125,60.52451231539244,-10,-0.33,0.33,10,49,39,48.67,49.33,59,3.1622776601683795,3.1622776601683795,3.1622776601683795,3.1622776601683795
10,15,0.09512139999992542,o,56.4,Limited Time,l,51.119755968736406,49.41524761826437,56.375653891586886,34.80806042174254,34.80806042174254,49.41524761826437,51.119755968736406,56.375653891586886,-10,-0.33,0.33,10,49,39,48.67,49.33,59,3.1622776601683795,3.1622776601683795,3.1622776601683795,3.1622776601683795
10,16,0.09619510000015907,o,60.0,Limited Time,l,46.04625941335092,49.49812714738863,59.973231629000765,39.71476532612733,39.71476532612733,49.49812714738863,46.04625941335092,59.973231629000765,-10,-0.33,0.33,10,49,39,48.67,49.33,59,3.1622776601683795,3.1622776601683795,3.1622776601683795,3.1622776601683795
10,17,0.12020449999999983,o,59.1,Limited Time,l,48.2590543401224,56.770444692393816,59.11095998364295,37.97823557279935,37.97823557279935,56.770444692393816,48.2590543401224,59.11095998364295,-10,-0.33,0.33,10,49,39,48.67,49.33,59,3.1622776601683795,3.1622776601683795,3.1622776601683795,3.1622776601683795
10,18,0.09842789999993329,o,60.5,Limited Time,l,46.42743226245237,55.68383906326608,60.50057792552515,41.463155422251965,41.463155422251965,55.68383906326608,46.42743226245237,60.50057792552515,-10,-0.33,0.33,10,49,39,48.67,49.33,59,3.1622776601683795,3.1622776601683795,3.1622776601683795,3.1622776601683795
10,19,0.1897191999998995,o,58.0,Limited Time,l,49.249931818324725,46.25102420064256,57.953487976011445,32.445669170054714,32.445669170054714,46.25102420064256,49.249931818324725,57.953487976011445,-10,-0.33,0.33,10,49,39,48.67,49.33,59,3.1622776601683795,3.1622776601683795,3.1622776601683795,3.1622776601683795
10,20,0.1627294999998412,o,56.6,Limited Time,l,46.565116565690545,57.24326888529443,56.63416576060261,40.76716668742359,40.76716668742359,57.24326888529443,46.565116565690545,56.63416576060261,-10,-0.33,0.33,10,49,39,48.67,49.33,59,3.1622776601683795,3.1622776601683795,3.1622776601683795,3.1622776601683795
11,1,0.4235516999999618,p,40.8,Unlimited Time,l,43.06352313459812,61.674519370319814,50.9309111328369,40.81198476980782,40.81198476980782,50.9309111328369,43.06352313459812,61.674519370319814,-10,-0.33,0.33,10,49,39,48.67,49.33,59,3.1622776601683795,3.1622776601683795,3.1622776601683795,3.1622776601683795
11,2,0.2727943999998388,q,46.5,Unlimited Time,l,46.462533807964,58.70585966568147,43.91875440469137,35.739464362738026,35.739464362738026,43.91875440469137,46.462533807964,58.70585966568147,-10,-0.33,0.33,10,49,39,48.67,49.33,59,3.1622776601683795,3.1622776601683795,3.1622776601683795,3.1622776601683795
11,3,0.30492469999990135,w,61.8,Unlimited Time,l,53.07139682164839,61.79831872519349,46.5790376741952,38.453746978730045,38.453746978730045,46.5790376741952,53.07139682164839,61.79831872519349,-10,-0.33,0.33,10,49,39,48.67,49.33,59,3.1622776601683795,3.1622776601683795,3.1622776601683795,3.1622776601683795
11,4,0.3977170999999089,w,67.4,Unlimited Time,l,50.914672646074976,67.44873008644716,48.212189457211835,40.29637583021121,40.29637583021121,48.212189457211835,50.914672646074976,67.44873008644716,-10,-0.33,0.33,10,49,39,48.67,49.33,59,3.1622776601683795,3.1622776601683795,3.1622776601683795,3.1622776601683795
11,5,0.4416535999998814,q,48.7,Unlimited Time,l,48.66926129242263,59.01958385233043,50.99620849730265,36.87779349449995,36.87779349449995,50.99620849730265,48.66926129242263,59.01958385233043,-10,-0.33,0.33,10,49,39,48.67,49.33,59,3.1622776601683795,3.1622776601683795,3.1622776601683795,3.1622776601683795
11,6,0.3608467000001383,p,41.6,Unlimited Time,l,50.513471811674755,53.499883474438626,46.3228861854361,41.6064994713946,41.6064994713946,46.3228861854361,50.513471811674755,53.499883474438626,-10,-0.33,0.33,10,49,39,48.67,49.33,59,3.1622776601683795,3.1622776601683795,3.1622776601683795,3.1622776601683795
11,7,0.29598799999985204,o,43.7,Unlimited Time,l,40.473817045831964,57.48064614491121,43.728374737339266,37.327158308025325,37.327158308025325,43.728374737339266,40.473817045831964,57.48064614491121,-10,-0.33,0.33,10,49,39,48.67,49.33,59,3.1622776601683795,3.1622776601683795,3.1622776601683795,3.1622776601683795
11,8,0.293584699999883,w,61.9,Unlimited Time,l,50.02233695454622,61.92024303009814,44.30657404561096,37.026554168444946,37.026554168444946,44.30657404561096,50.02233695454622,61.92024303009814,-10,-0.33,0.33,10,49,39,48.67,49.33,59,3.1622776601683795,3.1622776601683795,3.1622776601683795,3.1622776601683795
11,9,0.38096229999996467,w,58.4,Unlimited Time,l,49.02071876968515,58.38177859887815,47.20672589359754,40.30094768148804,40.30094768148804,47.20672589359754,49.02071876968515,58.38177859887815,-10,-0.33,0.33,10,49,39,48.67,49.33,59,3.1622776601683795,3.1622776601683795,3.1622776601683795,3.1622776601683795
11,10,0.35069690000000264,q,46.4,Unlimited Time,l,46.42285065036301,60.3666633069952,49.175200186983965,36.24761713593658,36.24761713593658,49.175200186983965,46.42285065036301,60.3666633069952,-10,-0.33,0.33,10,49,39,48.67,49.33,59,3.1622776601683795,3.1622776601683795,3.1622776601683795,3.1622776601683795
11,11,0.24813049999988834,w,57.3,Unlimited Time,l,51.61546145989599,57.2754412417476,49.50831509074461,38.421608148642285,38.421608148642285,49.50831509074461,51.61546145989599,57.2754412417476,-10,-0.33,0.33,10,49,39,48.67,49.33,59,3.1622776601683795,3.1622776601683795,3.1622776601683795,3.1622776601683795
11,12,0.27852230000007694,w,56.3,Unlimited Time,l,50.963629909172745,56.33884042750026,45.43932982037092,43.38765515587948,43.38765515587948,45.43932982037092,50.963629909172745,56.33884042750026,-10,-0.33,0.33,10,49,39,48.67,49.33,59,3.1622776601683795,3.1622776601683795,3.1622776601683795,3.1622776601683795
11,13,0.3066516000001229,q,47.9,Unlimited Time,l,47.85137203193757,56.06682861210091,43.55697774144742,40.91625383270179,40.91625383270179,43.55697774144742,47.85137203193757,56.06682861210091,-10,-0.33,0.33,10,49,39,48.67,49.33,59,3.1622776601683795,3.1622776601683795,3.1622776601683795,3.1622776601683795
11,14,0.284400499999947,w,60.5,Unlimited Time,l,44.19109306890125,60.52451231539244,46.42726368818882,44.21737340835065,44.21737340835065,46.42726368818882,44.19109306890125,60.52451231539244,-10,-0.33,0.33,10,49,39,48.67,49.33,59,3.1622776601683795,3.1622776601683795,3.1622776601683795,3.1622776601683795
11,15,0.44922619999988456,q,51.1,Unlimited Time,l,51.119755968736406,56.375653891586886,49.41524761826437,34.80806042174254,34.80806042174254,49.41524761826437,51.119755968736406,56.375653891586886,-10,-0.33,0.33,10,49,39,48.67,49.33,59,3.1622776601683795,3.1622776601683795,3.1622776601683795,3.1622776601683795
11,16,0.27381979999995565,w,60.0,Unlimited Time,l,46.04625941335092,59.973231629000765,49.49812714738863,39.71476532612733,39.71476532612733,49.49812714738863,46.04625941335092,59.973231629000765,-10,-0.33,0.33,10,49,39,48.67,49.33,59,3.1622776601683795,3.1622776601683795,3.1622776601683795,3.1622776601683795
11,17,0.25349929999993037,p,38.0,Unlimited Time,l,48.2590543401224,59.11095998364295,56.770444692393816,37.97823557279935,37.97823557279935,56.770444692393816,48.2590543401224,59.11095998364295,-10,-0.33,0.33,10,49,39,48.67,49.33,59,3.1622776601683795,3.1622776601683795,3.1622776601683795,3.1622776601683795
11,18,0.26747279999995044,w,60.5,Unlimited Time,l,46.42743226245237,60.50057792552515,55.68383906326608,41.463155422251965,41.463155422251965,55.68383906326608,46.42743226245237,60.50057792552515,-10,-0.33,0.33,10,49,39,48.67,49.33,59,3.1622776601683795,3.1622776601683795,3.1622776601683795,3.1622776601683795
11,19,0.3053106999998363,p,32.4,Unlimited Time,l,49.249931818324725,57.953487976011445,46.25102420064256,32.445669170054714,32.445669170054714,46.25102420064256,49.249931818324725,57.953487976011445,-10,-0.33,0.33,10,49,39,48.67,49.33,59,3.1622776601683795,3.1622776601683795,3.1622776601683795,3.1622776601683795
11,20,0.7809299000000465,o,57.2,Unlimited Time,l,46.565116565690545,56.63416576060261,57.24326888529443,40.76716668742359,40.76716668742359,57.24326888529443,46.565116565690545,56.63416576060261,-10,-0.33,0.33,10,49,39,48.67,49.33,59,3.1622776601683795,3.1622776601683795,3.1622776601683795,3.1622776601683795
12,1,,,0.0,Limited Time,e,56.38002223838505,61.67664736372679,45.18513860806832,53.28414743098881,45.18513860806832,53.28414743098881,56.38002223838505,61.67664736372679,0,0,0,0,49,49,49,49,49,3.1622776601683795,6.324555320336759,8.366600265340756,10
12,2,0.16758549999985917,o,44.2,Limited Time,e,44.950559413073286,45.32605410033033,44.20102952097671,45.617695868617645,44.20102952097671,45.617695868617645,44.950559413073286,45.32605410033033,0,0,0,0,49,49,49,49,49,3.1622776601683795,6.324555320336759,8.366600265340756,10
12,3,0.07454219999999623,o,44.6,Limited Time,e,34.39467689163183,46.46860000768156,44.57208775361621,47.67847784698451,44.57208775361621,47.67847784698451,34.39467689163183,46.46860000768156,0,0,0,0,49,49,49,49,49,3.1622776601683795,6.324555320336759,8.366600265340756,10
12,4,0.2003896999999597,o,46.0,Limited Time,e,46.99757020949289,37.629775797696915,46.04262684912956,42.825605170256324,46.04262684912956,42.825605170256324,46.99757020949289,37.629775797696915,0,0,0,0,49,49,49,49,49,3.1622776601683795,6.324555320336759,8.366600265340756,10
12,5,0.08987249999995583,w,40.9,Limited Time,e,47.5211477117656,40.90096413491525,49.972639053909916,43.40402670777869,49.972639053909916,43.40402670777869,47.5211477117656,40.90096413491525,0,0,0,0,49,49,49,49,49,3.1622776601683795,6.324555320336759,8.366600265340756,10
12,6,0.13303139999993618,w,45.0,Limited Time,e,37.58357263417677,44.99499799964824,49.729430759724515,48.29247579749381,49.729430759724515,48.29247579749381,37.58357263417677,44.99499799964824,0,0,0,0,49,49,49,49,49,3.1622776601683795,6.324555320336759,8.366600265340756,10
12,7,0.21918849999997292,w,55.1,Limited Time,e,33.2820698068691,55.11413530297236,49.86138272021157,48.282608962221346,49.86138272021157,48.282608962221346,33.2820698068691,55.11413530297236,0,0,0,0,49,49,49,49,49,3.1622776601683795,6.324555320336759,8.366600265340756,10
12,8,0.09714019999978518,o,50.9,Limited Time,e,46.56846451694524,61.85179193103706,50.87544173985113,54.27044870991112,50.87544173985113,54.27044870991112,46.56846451694524,61.85179193103706,0,0,0,0,49,49,49,49,49,3.1622776601683795,6.324555320336759,8.366600265340756,10
12,9,0.14248750000001564,w,42.4,Limited Time,e,56.33645361119122,42.35133763855778,42.787530538342835,56.154379733733194,42.787530538342835,56.154379733733194,56.33645361119122,42.35133763855778,0,0,0,0,49,49,49,49,49,3.1622776601683795,6.324555320336759,8.366600265340756,10
12,10,,,0.0,Limited Time,e,61.29692950895374,62.39588165866395,44.11626167681933,54.19721535326426,44.11626167681933,54.19721535326426,61.29692950895374,62.39588165866395,0,0,0,0,49,49,49,49,49,3.1622776601683795,6.324555320336759,8.366600265340756,10
12,11,,,0.0,Limited Time,e,36.617514548408316,32.61158281535765,50.36811269736314,50.35283516709384,50.36811269736314,50.35283516709384,36.617514548408316,32.61158281535765,0,0,0,0,49,49,49,49,49,3.1622776601683795,6.324555320336759,8.366600265340756,10
12,12,0.11012410000012096,o,52.3,Limited Time,e,45.17876735027225,53.01635405119084,52.342263711058905,50.84916264068904,52.342263711058905,50.84916264068904,45.17876735027225,53.01635405119084,0,0,0,0,49,49,49,49,49,3.1622776601683795,6.324555320336759,8.366600265340756,10
12,13,0.16588830000000598,o,47.0,Limited Time,e,52.994563908751154,49.560879874704604,46.985340262618855,65.90093428171052,46.985340262618855,65.90093428171052,52.994563908751154,49.560879874704604,0,0,0,0,49,49,49,49,49,3.1622776601683795,6.324555320336759,8.366600265340756,10
12,14,0.10046119999992698,w,44.2,Limited Time,e,48.10526862943119,44.22411481252439,46.22056359018617,52.07773511139111,46.22056359018617,52.07773511139111,48.10526862943119,44.22411481252439,0,0,0,0,49,49,49,49,49,3.1622776601683795,6.324555320336759,8.366600265340756,10
12,15,0.07502350000004299,o,46.9,Limited Time,e,56.17036009381523,61.8042327891263,46.91134138908018,52.868628151025895,46.91134138908018,52.868628151025895,56.17036009381523,61.8042327891263,0,0,0,0,49,49,49,49,49,3.1622776601683795,6.324555320336759,8.366600265340756,10
12,16,0.130370499999799,w,29.8,Limited Time,e,44.31083224014649,29.82535946336683,53.269523310625,51.066065049658484,53.269523310625,51.066065049658484,44.31083224014649,29.82535946336683,0,0,0,0,49,49,49,49,49,3.1622776601683795,6.324555320336759,8.366600265340756,10
12,17,0.032794999999850916,o,47.1,Limited Time,e,52.65705186568444,46.39373677977143,47.10284658875038,43.58393335108771,47.10284658875038,43.58393335108771,52.65705186568444,46.39373677977143,0,0,0,0,49,49,49,49,49,3.1622776601683795,6.324555320336759,8.366600265340756,10
12,18,0.19212289999995846,w,53.6,Limited Time,e,43.88887529149371,53.64901271978592,50.191046711134234,41.32041198052147,50.191046711134234,41.32041198052147,43.88887529149371,53.64901271978592,0,0,0,0,49,49,49,49,49,3.1622776601683795,6.324555320336759,8.366600265340756,10
12,19,0.08980219999989458,o,44.9,Limited Time,e,63.28933299055514,57.09025868319936,44.864896898788025,54.066410414032504,44.864896898788025,54.066410414032504,63.28933299055514,57.09025868319936,0,0,0,0,49,49,49,49,49,3.1622776601683795,6.324555320336759,8.366600265340756,10
12,20,0.13408899999990354,w,51.3,Limited Time,e,40.044406655925286,51.333955447749275,47.86555632145023,50.18844964037884,47.86555632145023,50.18844964037884,40.044406655925286,51.333955447749275,0,0,0,0,49,49,49,49,49,3.1622776601683795,6.324555320336759,8.366600265340756,10
13,1,0.6398137999999562,p,53.2,Unlimited Time,h,69.51006570527034,35.53743108798949,39.26791985285376,53.234132450821654,35.53743108798949,39.26791985285376,69.51006570527034,53.234132450821654,-10,-0.33,0.33,10,49,39,48.67,49.33,59,10,10,10,10
13,2,0.29229080000004615,q,43.7,Unlimited Time,h,43.68207609225743,48.53936603696888,54.85527498635203,55.52947286759596,48.53936603696888,54.85527498635203,43.68207609225743,55.52947286759596,-10,-0.33,0.33,10,49,39,48.67,49.33,59,10,10,10,10
13,3,0.25712509999993927,o,72.4,Unlimited Time,h,61.829465230333284,34.92312172206432,72.43748625515497,66.67006426010974,34.92312172206432,72.43748625515497,61.829465230333284,66.67006426010974,-10,-0.33,0.33,10,49,39,48.67,49.33,59,10,10,10,10
13,4,0.4434172999999646,p,57.2,Unlimited Time,h,58.03827128407201,40.46287878604732,54.83982921543213,57.176561183906315,40.46287878604732,54.83982921543213,58.03827128407201,57.176561183906315,-10,-0.33,0.33,10,49,39,48.67,49.33,59,10,10,10,10
13,5,0.23524459999998726,o,48.6,Unlimited Time,h,64.94405878206574,47.061471771349616,48.64063427727838,44.083593952859786,47.061471771349616,48.64063427727838,64.94405878206574,44.083593952859786,-10,-0.33,0.33,10,49,39,48.67,49.33,59,10,10,10,10
13,6,0.251633800000036,q,55.9,Unlimited Time,h,55.8616388110654,23.1797087103135,37.15708400898311,69.53782513276876,23.1797087103135,37.15708400898311,55.8616388110654,69.53782513276876,-10,-0.33,0.33,10,49,39,48.67,49.33,59,10,10,10,10
13,7,0.43310120000001007,w,13.3,Unlimited Time,h,59.71125518547095,13.327607910763078,67.90823344353511,45.418521941585,13.327607910763078,67.90823344353511,59.71125518547095,45.418521941585,-10,-0.33,0.33,10,49,39,48.67,49.33,59,10,10,10,10
13,8,0.29086310000002413,q,44.6,Unlimited Time,h,44.62033494667177,43.40884299270497,43.035207142411586,64.87237590411496,43.40884299270497,43.035207142411586,44.62033494667177,64.87237590411496,-10,-0.33,0.33,10,49,39,48.67,49.33,59,10,10,10,10
13,9,0.05919109999990724,p,65.1,Unlimited Time,h,56.043091828062146,34.30409025335244,52.181730122343865,65.075161584943,34.30409025335244,52.181730122343865,56.043091828062146,65.075161584943,-10,-0.33,0.33,10,49,39,48.67,49.33,59,10,10,10,10
13,10,0.3045684999999594,q,47.5,Unlimited Time,h,47.47130826778355,39.622607607202966,49.58571130641226,49.67935674581642,39.622607607202966,49.58571130641226,47.47130826778355,49.67935674581642,-10,-0.33,0.33,10,49,39,48.67,49.33,59,10,10,10,10
13,11,0.08788329999993039,p,66.2,Unlimited Time,h,44.57583482182544,37.14850029836909,39.802873507752075,66.2124046467485,37.14850029836909,39.802873507752075,44.57583482182544,66.2124046467485,-10,-0.33,0.33,10,49,39,48.67,49.33,59,10,10,10,10
13,12,0.2722111999999015,o,45.5,Unlimited Time,h,54.54262768948815,29.031422050173735,45.47185156674864,76.21974330425387,29.031422050173735,45.47185156674864,54.54262768948815,76.21974330425387,-10,-0.33,0.33,10,49,39,48.67,49.33,59,10,10,10,10
13,13,0.24032080000006317,p,64.8,Unlimited Time,h,43.154138072845,46.88825268823149,41.302334527683456,64.78728487661684,46.88825268823149,41.302334527683456,43.154138072845,64.78728487661684,-10,-0.33,0.33,10,49,39,48.67,49.33,59,10,10,10,10
13,14,0.39014190000011695,q,42.7,Unlimited Time,h,42.73089041578181,25.232828339389407,52.954043748343224,60.48577414996713,25.232828339389407,52.954043748343224,42.73089041578181,60.48577414996713,-10,-0.33,0.33,10,49,39,48.67,49.33,59,10,10,10,10
13,15,0.059312599999884696,p,64.5,Unlimited Time,h,66.69419072275211,62.93025263515952,60.693691328529795,64.54362084759504,62.93025263515952,60.693691328529795,66.69419072275211,64.54362084759504,-10,-0.33,0.33,10,49,39,48.67,49.33,59,10,10,10,10
13,16,0.24744239999995443,q,27.3,Unlimited Time,h,27.25434300339995,54.98516323874968,44.870486005367,51.9392367216658,54.98516323874968,44.870486005367,27.25434300339995,51.9392367216658,-10,-0.33,0.33,10,49,39,48.67,49.33,59,10,10,10,10
13,17,0.07100659999991876,p,45.4,Unlimited Time,h,30.472983963977896,27.722361381033803,42.60083853004007,45.38431308445869,27.722361381033803,42.60083853004007,30.472983963977896,45.38431308445869,-10,-0.33,0.33,10,49,39,48.67,49.33,59,10,10,10,10
13,18,0.2509350000000268,o,61.3,Unlimited Time,h,60.49827445879302,38.88478696853319,61.278282947877074,49.58064574451551,38.88478696853319,61.278282947877074,60.49827445879302,49.58064574451551,-10,-0.33,0.33,10,49,39,48.67,49.33,59,10,10,10,10
13,19,0.24312940000004346,p,58.4,Unlimited Time,h,49.36482303017579,45.98831693419145,33.00001716555114,58.404787296620036,45.98831693419145,33.00001716555114,49.36482303017579,58.404787296620036,-10,-0.33,0.33,10,49,39,48.67,49.33,59,10,10,10,10
13,20,0.2753114999998161,o,58.3,Unlimited Time,h,46.10536579237322,34.65300201678871,58.344911411723814,54.89095101645253,34.65300201678871,58.344911411723814,46.10536579237322,54.89095101645253,-10,-0.33,0.33,10,49,39,48.67,49.33,59,10,10,10,10
14,1,,,0.0,Limited Time,i,40.42166686164292,54.739088209690834,64.81095380604035,44.38903370519425,40.42166686164292,44.38903370519425,54.739088209690834,64.81095380604035,-10,-10,10,10,49,39,39,59,59,3.1622776601683795,10,3.1622776601683795,10
14,2,0.1248184000000947,p,39.6,Limited Time,i,32.012938475931804,57.79556432335139,54.99835838884036,39.56562398803245,32.012938475931804,39.56562398803245,57.79556432335139,54.99835838884036,-10,-10,10,10,49,39,39,59,59,3.1622776601683795,10,3.1622776601683795,10
14,3,0.1692436999999245,p,45.4,Limited Time,i,38.322638708476596,58.81577733889383,52.29416126477752,45.357967965543764,38.322638708476596,45.357967965543764,58.81577733889383,52.29416126477752,-10,-10,10,10,49,39,39,59,59,3.1622776601683795,10,3.1622776601683795,10
14,4,0.11233930000003056,p,39.0,Limited Time,i,38.219902039852755,62.46137469438888,60.90189516872904,39.03144656982576,38.219902039852755,39.03144656982576,62.46137469438888,60.90189516872904,-10,-10,10,10,49,39,39,59,59,3.1622776601683795,10,3.1622776601683795,10
14,5,0.12707260000001952,q,35.2,Limited Time,i,35.209373205667355,61.646700086542346,52.73368892064575,53.75341880525352,35.209373205667355,53.75341880525352,61.646700086542346,52.73368892064575,-10,-10,10,10,49,39,39,59,59,3.1622776601683795,10,3.1622776601683795,10
14,6,0.1902625000000171,q,42.0,Limited Time,i,41.97355853982576,65.7409029673847,66.38366428171597,44.158864307290415,41.97355853982576,44.158864307290415,65.7409029673847,66.38366428171597,-10,-10,10,10,49,39,39,59,59,3.1622776601683795,10,3.1622776601683795,10
14,7,0.17078249999985928,p,25.5,Limited Time,i,37.25263979884404,63.48246431737671,62.779066529122474,25.530149497040576,37.25263979884404,25.530149497040576,63.48246431737671,62.779066529122474,-10,-10,10,10,49,39,39,59,59,3.1622776601683795,10,3.1622776601683795,10
14,8,0.2709451999999146,w,57.3,Limited Time,i,41.95831830564895,57.26674960258072,62.17350158244671,39.17214993595893,41.95831830564895,39.17214993595893,57.26674960258072,62.17350158244671,-10,-10,10,10,49,39,39,59,59,3.1622776601683795,10,3.1622776601683795,10
14,9,0.28701699999987795,o,69.0,Limited Time,i,38.50648901109648,58.35600018253771,69.00176892817423,34.26989706086862,38.50648901109648,34.26989706086862,58.35600018253771,69.00176892817423,-10,-10,10,10,49,39,39,59,59,3.1622776601683795,10,3.1622776601683795,10
14,10,0.21954189999974005,o,56.4,Limited Time,i,41.768066907510885,51.63174446089982,56.418743572427715,37.02778865431118,41.768066907510885,37.02778865431118,51.63174446089982,56.418743572427715,-10,-10,10,10,49,39,39,59,59,3.1622776601683795,10,3.1622776601683795,10
14,11,0.239286600000014,o,59.7,Limited Time,i,38.074441013094344,58.97952289715687,59.7172888534487,31.602809934392326,38.074441013094344,31.602809934392326,58.97952289715687,59.7172888534487,-10,-10,10,10,49,39,39,59,59,3.1622776601683795,10,3.1622776601683795,10
14,12,0.1914774999997917,p,41.3,Limited Time,i,39.673889120549525,56.98985535305393,69.05623107273867,41.27736641870216,39.673889120549525,41.27736641870216,56.98985535305393,69.05623107273867,-10,-10,10,10,49,39,39,59,59,3.1622776601683795,10,3.1622776601683795,10
14,13,0.14071639999997387,o,82.8,Limited Time,i,35.67230610223953,61.92367175372433,82.83883180646266,28.80985269076579,35.67230610223953,28.80985269076579,61.92367175372433,82.83883180646266,-10,-10,10,10,49,39,39,59,59,3.1622776601683795,10,3.1622776601683795,10
14,14,0.1633927999998832,p,35.1,Limited Time,i,43.962272525885375,57.24284937856776,63.47741586955513,35.14980111519972,43.962272525885375,35.14980111519972,57.24284937856776,63.47741586955513,-10,-10,10,10,49,39,39,59,59,3.1622776601683795,10,3.1622776601683795,10
14,15,0.13568969999982983,o,61.3,Limited Time,i,38.17137043393792,53.72335066952166,61.29837980230096,41.74038576658528,38.17137043393792,41.74038576658528,53.72335066952166,61.29837980230096,-10,-10,10,10,49,39,39,59,59,3.1622776601683795,10,3.1622776601683795,10
14,16,0.24225929999988693,w,56.3,Limited Time,i,35.12947960373894,56.292006514001685,59.259406731239395,44.10949157245628,35.12947960373894,44.10949157245628,56.292006514001685,59.259406731239395,-10,-10,10,10,49,39,39,59,59,3.1622776601683795,10,3.1622776601683795,10
14,17,0.27417979999995623,w,60.2,Limited Time,i,40.8196535270707,60.2351699258966,63.060583967886,37.552872942516295,40.8196535270707,37.552872942516295,60.2351699258966,63.060583967886,-10,-10,10,10,49,39,39,59,59,3.1622776601683795,10,3.1622776601683795,10
14,18,,,0.0,Limited Time,i,39.014132249291706,60.288691021665024,32.09207258477748,21.469109443244687,39.014132249291706,21.469109443244687,60.288691021665024,32.09207258477748,-10,-10,10,10,49,39,39,59,59,3.1622776601683795,10,3.1622776601683795,10
14,19,0.20697679999989305,o,59.1,Limited Time,i,38.05996874600841,62.476351059037796,59.1466873654994,42.97631024809595,38.05996874600841,42.97631024809595,62.476351059037796,59.1466873654994,-10,-10,10,10,49,39,39,59,59,3.1622776601683795,10,3.1622776601683795,10
14,20,,,0.0,Limited Time,i,38.74366966633065,61.684233348873896,67.54615111142196,34.18066911979698,38.74366966633065,34.18066911979698,61.684233348873896,67.54615111142196,-10,-10,10,10,49,39,39,59,59,3.1622776601683795,10,3.1622776601683795,10
15,1,0.44264989999987847,o,45.2,Unlimited Time,e,53.28414743098881,61.67664736372679,45.18513860806832,56.38002223838505,45.18513860806832,53.28414743098881,56.38002223838505,61.67664736372679,0,0,0,0,49,49,49,49,49,3.1622776601683795,6.324555320336759,8.366600265340756,10
15,2,0.4479116999998496,w,45.3,Unlimited Time,e,45.617695868617645,45.32605410033033,44.20102952097671,44.950559413073286,44.20102952097671,45.617695868617645,44.950559413073286,45.32605410033033,0,0,0,0,49,49,49,49,49,3.1622776601683795,6.324555320336759,8.366600265340756,10
15,3,0.4907554999999775,q,47.7,Unlimited Time,e,47.67847784698451,46.46860000768156,44.57208775361621,34.39467689163183,44.57208775361621,47.67847784698451,34.39467689163183,46.46860000768156,0,0,0,0,49,49,49,49,49,3.1622776601683795,6.324555320336759,8.366600265340756,10
15,4,0.3096187999999529,p,47.0,Unlimited Time,e,42.825605170256324,37.629775797696915,46.04262684912956,46.99757020949289,46.04262684912956,42.825605170256324,46.99757020949289,37.629775797696915,0,0,0,0,49,49,49,49,49,3.1622776601683795,6.324555320336759,8.366600265340756,10
15,5,0.2472227999999177,o,50.0,Unlimited Time,e,43.40402670777869,40.90096413491525,49.972639053909916,47.5211477117656,49.972639053909916,43.40402670777869,47.5211477117656,40.90096413491525,0,0,0,0,49,49,49,49,49,3.1622776601683795,6.324555320336759,8.366600265340756,10
15,6,0.46447729999999865,q,48.3,Unlimited Time,e,48.29247579749381,44.99499799964824,49.729430759724515,37.58357263417677,49.729430759724515,48.29247579749381,37.58357263417677,44.99499799964824,0,0,0,0,49,49,49,49,49,3.1622776601683795,6.324555320336759,8.366600265340756,10
15,7,0.6827234999998382,w,55.1,Unlimited Time,e,48.282608962221346,55.11413530297236,49.86138272021157,33.2820698068691,49.86138272021157,48.282608962221346,33.2820698068691,55.11413530297236,0,0,0,0,49,49,49,49,49,3.1622776601683795,6.324555320336759,8.366600265340756,10
15,8,0.4272350000001097,o,50.9,Unlimited Time,e,54.27044870991112,61.85179193103706,50.87544173985113,46.56846451694524,50.87544173985113,54.27044870991112,46.56846451694524,61.85179193103706,0,0,0,0,49,49,49,49,49,3.1622776601683795,6.324555320336759,8.366600265340756,10
15,9,0.2494114000000991,w,42.4,Unlimited Time,e,56.154379733733194,42.35133763855778,42.787530538342835,56.33645361119122,42.787530538342835,56.154379733733194,56.33645361119122,42.35133763855778,0,0,0,0,49,49,49,49,49,3.1622776601683795,6.324555320336759,8.366600265340756,10
15,10,0.29099729999984447,p,61.3,Unlimited Time,e,54.19721535326426,62.39588165866395,44.11626167681933,61.29692950895374,44.11626167681933,54.19721535326426,61.29692950895374,62.39588165866395,0,0,0,0,49,49,49,49,49,3.1622776601683795,6.324555320336759,8.366600265340756,10
15,11,0.44964189999973314,o,50.4,Unlimited Time,e,50.35283516709384,32.61158281535765,50.36811269736314,36.617514548408316,50.36811269736314,50.35283516709384,36.617514548408316,32.61158281535765,0,0,0,0,49,49,49,49,49,3.1622776601683795,6.324555320336759,8.366600265340756,10
15,12,0.103468299999804,p,45.2,Unlimited Time,e,50.84916264068904,53.01635405119084,52.342263711058905,45.17876735027225,52.342263711058905,50.84916264068904,45.17876735027225,53.01635405119084,0,0,0,0,49,49,49,49,49,3.1622776601683795,6.324555320336759,8.366600265340756,10
15,13,0.18555269999978918,q,65.9,Unlimited Time,e,65.90093428171052,49.560879874704604,46.985340262618855,52.994563908751154,46.985340262618855,65.90093428171052,52.994563908751154,49.560879874704604,0,0,0,0,49,49,49,49,49,3.1622776601683795,6.324555320336759,8.366600265340756,10
15,14,0.6457456999999067,p,48.1,Unlimited Time,e,52.07773511139111,44.22411481252439,46.22056359018617,48.10526862943119,46.22056359018617,52.07773511139111,48.10526862943119,44.22411481252439,0,0,0,0,49,49,49,49,49,3.1622776601683795,6.324555320336759,8.366600265340756,10
15,15,0.09423289999995177,q,52.9,Unlimited Time,e,52.868628151025895,61.8042327891263,46.91134138908018,56.17036009381523,46.91134138908018,52.868628151025895,56.17036009381523,61.8042327891263,0,0,0,0,49,49,49,49,49,3.1622776601683795,6.324555320336759,8.366600265340756,10
15,16,0.12982620000002498,o,53.3,Unlimited Time,e,51.066065049658484,29.82535946336683,53.269523310625,44.31083224014649,53.269523310625,51.066065049658484,44.31083224014649,29.82535946336683,0,0,0,0,49,49,49,49,49,3.1622776601683795,6.324555320336759,8.366600265340756,10
15,17,0.42714109999997163,q,43.6,Unlimited Time,e,43.58393335108771,46.39373677977143,47.10284658875038,52.65705186568444,47.10284658875038,43.58393335108771,52.65705186568444,46.39373677977143,0,0,0,0,49,49,49,49,49,3.1622776601683795,6.324555320336759,8.366600265340756,10
15,18,0.118103900000051,o,50.2,Unlimited Time,e,41.32041198052147,53.64901271978592,50.191046711134234,43.88887529149371,50.191046711134234,41.32041198052147,43.88887529149371,53.64901271978592,0,0,0,0,49,49,49,49,49,3.1622776601683795,6.324555320336759,8.366600265340756,10
15,19,0.3642870999999559,p,63.3,Unlimited Time,e,54.066410414032504,57.09025868319936,44.864896898788025,63.28933299055514,44.864896898788025,54.066410414032504,63.28933299055514,57.09025868319936,0,0,0,0,49,49,49,49,49,3.1622776601683795,6.324555320336759,8.366600265340756,10
15,20,0.3079084999999395,w,51.3,Unlimited Time,e,50.18844964037884,51.333955447749275,47.86555632145023,40.044406655925286,47.86555632145023,50.18844964037884,40.044406655925286,51.333955447749275,0,0,0,0,49,49,49,49,49,3.1622776601683795,6.324555320336759,8.366600265340756,10
16,1,0.3546947999998338,o,40.8,Limited Time,l,43.06352313459812,50.9309111328369,40.81198476980782,61.674519370319814,40.81198476980782,50.9309111328369,43.06352313459812,61.674519370319814,-10,-0.33,0.33,10,49,39,48.67,49.33,59,3.1622776601683795,3.1622776601683795,3.1622776601683795,3.1622776601683795
16,2,0.1603399000000536,p,58.7,Limited Time,l,46.462533807964,43.91875440469137,35.739464362738026,58.70585966568147,35.739464362738026,43.91875440469137,46.462533807964,58.70585966568147,-10,-0.33,0.33,10,49,39,48.67,49.33,59,3.1622776601683795,3.1622776601683795,3.1622776601683795,3.1622776601683795
16,3,0.1971441999999115,p,61.8,Limited Time,l,53.07139682164839,46.5790376741952,38.453746978730045,61.79831872519349,38.453746978730045,46.5790376741952,53.07139682164839,61.79831872519349,-10,-0.33,0.33,10,49,39,48.67,49.33,59,3.1622776601683795,3.1622776601683795,3.1622776601683795,3.1622776601683795
16,4,0.2732763999999861,p,67.4,Limited Time,l,50.914672646074976,48.212189457211835,40.29637583021121,67.44873008644716,40.29637583021121,48.212189457211835,50.914672646074976,67.44873008644716,-10,-0.33,0.33,10,49,39,48.67,49.33,59,3.1622776601683795,3.1622776601683795,3.1622776601683795,3.1622776601683795
16,5,0.31790939999996226,p,59.0,Limited Time,l,48.66926129242263,50.99620849730265,36.87779349449995,59.01958385233043,36.87779349449995,50.99620849730265,48.66926129242263,59.01958385233043,-10,-0.33,0.33,10,49,39,48.67,49.33,59,3.1622776601683795,3.1622776601683795,3.1622776601683795,3.1622776601683795
16,6,0.23629399999981615,p,53.5,Limited Time,l,50.513471811674755,46.3228861854361,41.6064994713946,53.499883474438626,41.6064994713946,46.3228861854361,50.513471811674755,53.499883474438626,-10,-0.33,0.33,10,49,39,48.67,49.33,59,3.1622776601683795,3.1622776601683795,3.1622776601683795,3.1622776601683795
16,7,,,0.0,Limited Time,l,40.473817045831964,43.728374737339266,37.327158308025325,57.48064614491121,37.327158308025325,43.728374737339266,40.473817045831964,57.48064614491121,-10,-0.33,0.33,10,49,39,48.67,49.33,59,3.1622776601683795,3.1622776601683795,3.1622776601683795,3.1622776601683795
16,8,0.3324593999998342,p,61.9,Limited Time,l,50.02233695454622,44.30657404561096,37.026554168444946,61.92024303009814,37.026554168444946,44.30657404561096,50.02233695454622,61.92024303009814,-10,-0.33,0.33,10,49,39,48.67,49.33,59,3.1622776601683795,3.1622776601683795,3.1622776601683795,3.1622776601683795
16,9,0.32922069999995074,p,58.4,Limited Time,l,49.02071876968515,47.20672589359754,40.30094768148804,58.38177859887815,40.30094768148804,47.20672589359754,49.02071876968515,58.38177859887815,-10,-0.33,0.33,10,49,39,48.67,49.33,59,3.1622776601683795,3.1622776601683795,3.1622776601683795,3.1622776601683795
16,10,0.20104560000004312,q,46.4,Limited Time,l,46.42285065036301,49.175200186983965,36.24761713593658,60.3666633069952,36.24761713593658,49.175200186983965,46.42285065036301,60.3666633069952,-10,-0.33,0.33,10,49,39,48.67,49.33,59,3.1622776601683795,3.1622776601683795,3.1622776601683795,3.1622776601683795
16,11,0.06145719999994981,p,57.3,Limited Time,l,51.61546145989599,49.50831509074461,38.421608148642285,57.2754412417476,38.421608148642285,49.50831509074461,51.61546145989599,57.2754412417476,-10,-0.33,0.33,10,49,39,48.67,49.33,59,3.1622776601683795,3.1622776601683795,3.1622776601683795,3.1622776601683795
16,12,0.33701669999982187,q,51.0,Limited Time,l,50.963629909172745,45.43932982037092,43.38765515587948,56.33884042750026,43.38765515587948,45.43932982037092,50.963629909172745,56.33884042750026,-10,-0.33,0.33,10,49,39,48.67,49.33,59,3.1622776601683795,3.1622776601683795,3.1622776601683795,3.1622776601683795
16,13,0.13773939999987306,p,56.1,Limited Time,l,47.85137203193757,43.55697774144742,40.91625383270179,56.06682861210091,40.91625383270179,43.55697774144742,47.85137203193757,56.06682861210091,-10,-0.33,0.33,10,49,39,48.67,49.33,59,3.1622776601683795,3.1622776601683795,3.1622776601683795,3.1622776601683795
16,14,0.23762909999982185,q,44.2,Limited Time,l,44.19109306890125,46.42726368818882,44.21737340835065,60.52451231539244,44.21737340835065,46.42726368818882,44.19109306890125,60.52451231539244,-10,-0.33,0.33,10,49,39,48.67,49.33,59,3.1622776601683795,3.1622776601683795,3.1622776601683795,3.1622776601683795
16,15,0.15593549999994138,p,56.4,Limited Time,l,51.119755968736406,49.41524761826437,34.80806042174254,56.375653891586886,34.80806042174254,49.41524761826437,51.119755968736406,56.375653891586886,-10,-0.33,0.33,10,49,39,48.67,49.33,59,3.1622776601683795,3.1622776601683795,3.1622776601683795,3.1622776601683795
16,16,0.2775188000000526,q,46.0,Limited Time,l,46.04625941335092,49.49812714738863,39.71476532612733,59.973231629000765,39.71476532612733,49.49812714738863,46.04625941335092,59.973231629000765,-10,-0.33,0.33,10,49,39,48.67,49.33,59,3.1622776601683795,3.1622776601683795,3.1622776601683795,3.1622776601683795
16,17,0.03901159999986703,p,59.1,Limited Time,l,48.2590543401224,56.770444692393816,37.97823557279935,59.11095998364295,37.97823557279935,56.770444692393816,48.2590543401224,59.11095998364295,-10,-0.33,0.33,10,49,39,48.67,49.33,59,3.1622776601683795,3.1622776601683795,3.1622776601683795,3.1622776601683795
16,18,0.22383659999991323,q,46.4,Limited Time,l,46.42743226245237,55.68383906326608,41.463155422251965,60.50057792552515,41.463155422251965,55.68383906326608,46.42743226245237,60.50057792552515,-10,-0.33,0.33,10,49,39,48.67,49.33,59,3.1622776601683795,3.1622776601683795,3.1622776601683795,3.1622776601683795
16,19,,,0.0,Limited Time,l,49.249931818324725,46.25102420064256,32.445669170054714,57.953487976011445,32.445669170054714,46.25102420064256,49.249931818324725,57.953487976011445,-10,-0.33,0.33,10,49,39,48.67,49.33,59,3.1622776601683795,3.1622776601683795,3.1622776601683795,3.1622776601683795
16,20,0.28879699999993136,p,56.6,Limited Time,l,46.565116565690545,57.24326888529443,40.76716668742359,56.63416576060261,40.76716668742359,57.24326888529443,46.565116565690545,56.63416576060261,-10,-0.33,0.33,10,49,39,48.67,49.33,59,3.1622776601683795,3.1622776601683795,3.1622776601683795,3.1622776601683795
