Round Number,Trial Number,Reaction Time,Choice,Reward (Health Points),Time Condition,Payoff Condition,Q mapped,W mapped,O mapped,P mapped,One value,Two value,Three value,Four value,One mean,Two mean,Three mean,Four mean,Mean Shift,One shifted mean,Two shifted mean,Three shifted mean,Four shifted mean,One SD,Two SD,Three SD,Four SD
1,1,4.483868799987249,w,22.7,Unlimited Time,h,10.835387532640976,22.730454018884135,29.1947513094647,40.51939873590259,10.835387532640976,22.730454018884135,29.1947513094647,40.51939873590259,-10,-0.33,0.33,10,33,23,32.67,33.33,43,10,10,10,10
1,2,2.4875133000314236,o,32.9,Unlimited Time,h,26.684569874651526,22.814992805575905,32.863703290569866,39.53207724390195,26.684569874651526,22.814992805575905,32.863703290569866,39.53207724390195,-10,-0.33,0.33,10,33,23,32.67,33.33,43,10,10,10,10
1,3,3.4270428000018,o,36.4,Unlimited Time,h,14.763863072470135,42.079245952713705,36.38874214715845,32.82367432646026,14.763863072470135,42.079245952713705,36.38874214715845,32.82367432646026,-10,-0.33,0.33,10,33,23,32.67,33.33,43,10,10,10,10
1,4,1.4514167999732308,p,36.2,Unlimited Time,h,34.594323493644474,32.41122862244218,49.97571016277814,36.22276518252828,34.594323493644474,32.41122862244218,49.97571016277814,36.22276518252828,-10,-0.33,0.33,10,33,23,32.67,33.33,43,10,10,10,10
1,5,1.3323389000142924,q,29.4,Unlimited Time,h,29.3645543992169,26.252497235593438,33.69855057023661,38.000915134785465,29.3645543992169,26.252497235593438,33.69855057023661,38.000915134785465,-10,-0.33,0.33,10,33,23,32.67,33.33,43,10,10,10,10
1,6,1.9375604999950156,w,21.0,Unlimited Time,h,44.61971744211243,21.014356336958773,15.990466579681911,42.868768217411954,44.61971744211243,21.014356336958773,15.990466579681911,42.868768217411954,-10,-0.33,0.33,10,33,23,32.67,33.33,43,10,10,10,10
1,7,1.3054578000446782,o,31.0,Unlimited Time,h,45.51681150634723,30.38928350457803,31.00777289635912,52.12512654640364,45.51681150634723,30.38928350457803,31.00777289635912,52.12512654640364,-10,-0.33,0.33,10,33,23,32.67,33.33,43,10,10,10,10
1,8,0.7217522999853827,o,43.1,Unlimited Time,h,29.223629306052064,41.9533249229772,43.127588023577715,56.418760117190004,29.223629306052064,41.9533249229772,43.127588023577715,56.418760117190004,-10,-0.33,0.33,10,33,23,32.67,33.33,43,10,10,10,10
1,9,0.5386423000018112,o,25.0,Unlimited Time,h,29.050069683967656,38.96369102956068,24.966768192574282,42.219723202306376,29.050069683967656,38.96369102956068,24.966768192574282,42.219723202306376,-10,-0.33,0.33,10,33,23,32.67,33.33,43,10,10,10,10
1,10,0.8483692000154406,o,35.9,Unlimited Time,h,33.272554573382465,41.24806296253814,35.92028154204594,46.31485634833349,33.272554573382465,41.24806296253814,35.92028154204594,46.31485634833349,-10,-0.33,0.33,10,33,23,32.67,33.33,43,10,10,10,10
1,11,0.7302108000149019,o,35.2,Unlimited Time,h,32.03177757864751,24.674587981534305,35.18200079604253,43.288915160308115,32.03177757864751,24.674587981534305,35.18200079604253,43.288915160308115,-10,-0.33,0.33,10,33,23,32.67,33.33,43,10,10,10,10
1,12,0.5758445000392385,o,40.9,Unlimited Time,h,18.19854687188854,35.445371556017996,40.90780735244309,49.85378955305051,18.19854687188854,35.445371556017996,40.90780735244309,49.85378955305051,-10,-0.33,0.33,10,33,23,32.67,33.33,43,10,10,10,10
1,13,0.82524709997233,o,28.3,Unlimited Time,h,20.86026703324235,42.913880672503936,28.29220568689371,47.99765333556618,20.86026703324235,42.913880672503936,28.29220568689371,47.99765333556618,-10,-0.33,0.33,10,33,23,32.67,33.33,43,10,10,10,10
1,14,0.7434196000103839,o,39.0,Unlimited Time,h,29.893321251293322,34.60329270639891,39.007570292241816,34.96011506054899,29.893321251293322,34.60329270639891,39.007570292241816,34.96011506054899,-10,-0.33,0.33,10,33,23,32.67,33.33,43,10,10,10,10
1,15,1.4459588999743573,p,42.4,Unlimited Time,h,24.305520942658056,39.75914365051297,37.16456374552209,42.39572927263379,24.305520942658056,39.75914365051297,37.16456374552209,42.39572927263379,-10,-0.33,0.33,10,33,23,32.67,33.33,43,10,10,10,10
1,16,0.6049017999903299,p,45.1,Unlimited Time,h,22.589122318135967,41.01226613097259,15.458974649344949,45.14700957058515,22.589122318135967,41.01226613097259,15.458974649344949,45.14700957058515,-10,-0.33,0.33,10,33,23,32.67,33.33,43,10,10,10,10
1,17,0.6294751000241376,p,54.7,Unlimited Time,h,27.89592243157423,41.77538539852161,47.81698324794731,54.67396535562835,27.89592243157423,41.77538539852161,47.81698324794731,54.67396535562835,-10,-0.33,0.33,10,33,23,32.67,33.33,43,10,10,10,10
1,18,0.7132542000035755,p,55.6,Unlimited Time,h,39.142557315571196,26.993047291528214,47.02253891438387,55.56480077963315,39.142557315571196,26.993047291528214,47.02253891438387,55.56480077963315,-10,-0.33,0.33,10,33,23,32.67,33.33,43,10,10,10,10
1,19,0.6940277999965474,p,52.7,Unlimited Time,h,18.633924280807815,34.62364921216388,16.241695219394636,52.74367076573736,18.633924280807815,34.62364921216388,16.241695219394636,52.74367076573736,-10,-0.33,0.33,10,33,23,32.67,33.33,43,10,10,10,10
1,20,1.9027444000239484,w,26.3,Unlimited Time,h,24.298435930173117,26.295880194891772,35.35935277902411,47.66275440588663,24.298435930173117,26.295880194891772,35.35935277902411,47.66275440588663,-10,-0.33,0.33,10,33,23,32.67,33.33,43,10,10,10,10
2,1,0.3187500999774784,o,29.3,Limited Time - 400ms,e,54.26262685828812,32.259263315570195,29.347642573560453,33.30849838670675,29.347642573560453,33.30849838670675,32.259263315570195,54.26262685828812,0,0,0,0,33,33,33,33,33,3.1622776601683795,6.324555320336759,8.366600265340756,10
2,2,0.06359999999403954,o,32.3,Limited Time - 400ms,e,14.15291899892117,32.38071701892563,32.27678875747769,26.21705040476434,32.27678875747769,26.21705040476434,32.38071701892563,14.15291899892117,0,0,0,0,33,33,33,33,33,3.1622776601683795,6.324555320336759,8.366600265340756,10
2,3,0.32808029995067045,o,26.7,Limited Time - 400ms,e,45.11727999525276,30.74276700138505,26.741003667807117,25.51859934353679,26.741003667807117,25.51859934353679,30.74276700138505,45.11727999525276,0,0,0,0,33,33,33,33,33,3.1622776601683795,6.324555320336759,8.366600265340756,10
2,4,,,0.0,Limited Time - 400ms,e,32.13498445141858,53.90182910318414,33.48608373774766,24.256392524130398,33.48608373774766,24.256392524130398,53.90182910318414,32.13498445141858,0,0,0,0,33,33,33,33,33,3.1622776601683795,6.324555320336759,8.366600265340756,10
2,5,0.2626075000152923,o,37.7,Limited Time - 400ms,e,32.13094073574106,35.72940753991938,37.72125266721063,28.54227719618623,37.72125266721063,28.54227719618623,35.72940753991938,32.13094073574106,0,0,0,0,33,33,33,33,33,3.1622776601683795,6.324555320336759,8.366600265340756,10
2,6,,,0.0,Limited Time - 400ms,e,16.28782450733337,35.70959145943931,30.561630991310743,32.25444944532332,30.561630991310743,32.25444944532332,35.70959145943931,16.28782450733337,0,0,0,0,33,33,33,33,33,3.1622776601683795,6.324555320336759,8.366600265340756,10
2,7,0.07115729997167364,o,26.1,Limited Time - 400ms,e,43.209638176183994,42.87851828057842,26.082561066200242,43.29189233364259,26.082561066200242,43.29189233364259,42.87851828057842,43.209638176183994,0,0,0,0,33,33,33,33,33,3.1622776601683795,6.324555320336759,8.366600265340756,10
2,8,0.1258191000088118,o,29.4,Limited Time - 400ms,e,25.612924398171117,35.40814455900847,29.394080401128168,40.87582497578655,29.394080401128168,40.87582497578655,35.40814455900847,25.612924398171117,0,0,0,0,33,33,33,33,33,3.1622776601683795,6.324555320336759,8.366600265340756,10
2,9,,,0.0,Limited Time - 400ms,e,38.170722216401174,44.43027293390878,37.17651457061099,31.42423306533172,37.17651457061099,31.42423306533172,44.43027293390878,38.170722216401174,0,0,0,0,33,33,33,33,33,3.1622776601683795,6.324555320336759,8.366600265340756,10
2,10,0.05586800002492964,o,33.6,Limited Time - 400ms,e,29.171898249753003,41.68010299379145,33.574606322262916,24.811152923487462,33.574606322262916,24.811152923487462,41.68010299379145,29.171898249753003,0,0,0,0,33,33,33,33,33,3.1622776601683795,6.324555320336759,8.366600265340756,10
2,11,0.16381779999937862,o,33.1,Limited Time - 400ms,e,41.57781736992807,25.14301530542585,33.06843155716389,45.37641027514537,33.06843155716389,45.37641027514537,25.14301530542585,41.57781736992807,0,0,0,0,33,33,33,33,33,3.1622776601683795,6.324555320336759,8.366600265340756,10
2,12,0.22369529999559745,o,34.5,Limited Time - 400ms,e,25.165032784515404,42.07481703050829,34.54646183273063,27.17219057469163,34.54646183273063,27.17219057469163,42.07481703050829,25.165032784515404,0,0,0,0,33,33,33,33,33,3.1622776601683795,6.324555320336759,8.366600265340756,10
2,13,0.15371019998565316,o,34.6,Limited Time - 400ms,e,33.469959867427775,44.38071423871679,34.61270252186678,39.244826379171116,34.61270252186678,39.244826379171116,44.38071423871679,33.469959867427775,0,0,0,0,33,33,33,33,33,3.1622776601683795,6.324555320336759,8.366600265340756,10
2,14,0.10466240003006533,o,34.2,Limited Time - 400ms,e,38.45653545348186,20.160964967964695,34.23925015952522,28.913756411037124,34.23925015952522,28.913756411037124,20.160964967964695,38.45653545348186,0,0,0,0,33,33,33,33,33,3.1622776601683795,6.324555320336759,8.366600265340756,10
2,15,0.14492900000186637,o,34.7,Limited Time - 400ms,e,29.043652781310694,18.48278203597684,34.721794154430484,38.3720404145997,34.721794154430484,38.3720404145997,18.48278203597684,29.043652781310694,0,0,0,0,33,33,33,33,33,3.1622776601683795,6.324555320336759,8.366600265340756,10
2,16,0.13592879998032004,o,32.4,Limited Time - 400ms,e,36.22689852019036,34.157088679555685,32.41279237716232,33.34737615801919,32.41279237716232,33.34737615801919,34.157088679555685,36.22689852019036,0,0,0,0,33,33,33,33,33,3.1622776601683795,6.324555320336759,8.366600265340756,10
2,17,0.13234180002473295,o,39.5,Limited Time - 400ms,e,34.30484225420755,44.348686809892754,39.53907370205646,34.54508482718542,39.53907370205646,34.54508482718542,44.348686809892754,34.30484225420755,0,0,0,0,33,33,33,33,33,3.1622776601683795,6.324555320336759,8.366600265340756,10
2,18,0.09877610002877191,o,31.4,Limited Time - 400ms,e,50.16431057450039,35.177789596709566,31.407009461715948,36.938888281851284,31.407009461715948,36.938888281851284,35.177789596709566,50.16431057450039,0,0,0,0,33,33,33,33,33,3.1622776601683795,6.324555320336759,8.366600265340756,10
2,19,0.11946059996262193,o,32.3,Limited Time - 400ms,e,25.547965257976735,35.65333045942923,32.308577246591106,34.43780400395029,32.308577246591106,34.43780400395029,35.65333045942923,25.547965257976735,0,0,0,0,33,33,33,33,33,3.1622776601683795,6.324555320336759,8.366600265340756,10
2,20,0.07239909999771044,o,33.6,Limited Time - 400ms,e,29.97469797111099,27.23223943110421,33.637290150544416,21.951547728485455,33.637290150544416,21.951547728485455,27.23223943110421,29.97469797111099,0,0,0,0,33,33,33,33,33,3.1622776601683795,6.324555320336759,8.366600265340756,10
3,1,0.22073110000928864,w,25.6,Limited Time - 800ms,l,29.624746598317373,25.628784107618912,30.661060329312974,44.51651757576866,25.628784107618912,29.624746598317373,30.661060329312974,44.51651757576866,-10,-0.33,0.33,10,33,23,32.67,33.33,43,3.1622776601683795,3.1622776601683795,3.1622776601683795,3.1622776601683795
3,2,0.05923899996560067,w,24.2,Limited Time - 800ms,l,33.362467473106356,24.227743836961515,30.157436073794933,37.12686561072045,24.227743836961515,33.362467473106356,30.157436073794933,37.12686561072045,-10,-0.33,0.33,10,33,23,32.67,33.33,43,3.1622776601683795,3.1622776601683795,3.1622776601683795,3.1622776601683795
3,3,0.04240380000555888,w,22.3,Limited Time - 800ms,l,30.351510931071257,22.314830647936848,33.67470280632278,45.02932947804225,22.314830647936848,30.351510931071257,33.67470280632278,45.02932947804225,-10,-0.33,0.33,10,33,23,32.67,33.33,43,3.1622776601683795,3.1622776601683795,3.1622776601683795,3.1622776601683795
3,4,0.04493659996660426,w,25.8,Limited Time - 800ms,l,28.072733235542646,25.753638730798365,32.61307376579906,45.766120056095446,25.753638730798365,28.072733235542646,32.61307376579906,45.766120056095446,-10,-0.33,0.33,10,33,23,32.67,33.33,43,3.1622776601683795,3.1622776601683795,3.1622776601683795,3.1622776601683795
3,5,0.04749699996318668,w,22.3,Limited Time - 800ms,l,33.24185712944505,22.306889448799776,34.93553387365878,43.02148216284696,22.306889448799776,33.24185712944505,34.93553387365878,43.02148216284696,-10,-0.33,0.33,10,33,23,32.67,33.33,43,3.1622776601683795,3.1622776601683795,3.1622776601683795,3.1622776601683795
3,6,0.10196040000300854,o,36.1,Limited Time - 800ms,l,33.24216405356294,20.185006402619923,36.103663741151756,43.822164712823025,20.185006402619923,33.24216405356294,36.103663741151756,43.822164712823025,-10,-0.33,0.33,10,33,23,32.67,33.33,43,3.1622776601683795,3.1622776601683795,3.1622776601683795,3.1622776601683795
3,7,0.061328800045885146,o,35.2,Limited Time - 800ms,l,37.04231283552655,21.587541455261768,35.19361580506416,38.657839897585575,21.587541455261768,37.04231283552655,35.19361580506416,38.657839897585575,-10,-0.33,0.33,10,33,23,32.67,33.33,43,3.1622776601683795,3.1622776601683795,3.1622776601683795,3.1622776601683795
3,8,0.04257970000617206,o,31.4,Limited Time - 800ms,l,34.51042457371359,18.902844686529072,31.426006941205124,43.66918181390832,18.902844686529072,34.51042457371359,31.426006941205124,43.66918181390832,-10,-0.33,0.33,10,33,23,32.67,33.33,43,3.1622776601683795,3.1622776601683795,3.1622776601683795,3.1622776601683795
3,9,0.02821850002510473,o,29.4,Limited Time - 800ms,l,35.558823221402044,21.17881791332348,29.403224409902176,40.700248941477824,21.17881791332348,35.558823221402044,29.403224409902176,40.700248941477824,-10,-0.33,0.33,10,33,23,32.67,33.33,43,3.1622776601683795,3.1622776601683795,3.1622776601683795,3.1622776601683795
3,10,0.058050199993886054,w,27.9,Limited Time - 800ms,l,34.68615463903532,27.913181799673296,34.96873541379661,43.05328830720761,27.913181799673296,34.68615463903532,34.96873541379661,43.05328830720761,-10,-0.33,0.33,10,33,23,32.67,33.33,43,3.1622776601683795,3.1622776601683795,3.1622776601683795,3.1622776601683795
3,11,0.0006466999766416848,w,17.4,Limited Time - 800ms,l,35.663319618178896,17.417059255906132,35.75512762404608,41.809591915733584,17.417059255906132,35.663319618178896,35.75512762404608,41.809591915733584,-10,-0.33,0.33,10,33,23,32.67,33.33,43,3.1622776601683795,3.1622776601683795,3.1622776601683795,3.1622776601683795
3,12,0.03176460001850501,w,15.8,Limited Time - 800ms,l,34.24744480707876,15.840376674754491,35.12399397886617,49.459494722926195,15.840376674754491,34.24744480707876,35.12399397886617,49.459494722926195,-10,-0.33,0.33,10,33,23,32.67,33.33,43,3.1622776601683795,3.1622776601683795,3.1622776601683795,3.1622776601683795
3,13,0.020285700040403754,w,26.2,Limited Time - 800ms,l,32.79398596272695,26.195093054338074,36.158889308047414,46.84756175318661,26.195093054338074,32.79398596272695,36.158889308047414,46.84756175318661,-10,-0.33,0.33,10,33,23,32.67,33.33,43,3.1622776601683795,3.1622776601683795,3.1622776601683795,3.1622776601683795
3,14,0.020110499986913055,q,31.3,Limited Time - 800ms,l,31.30838046812616,22.9250542603102,35.313891456065974,41.247099517624434,22.9250542603102,31.30838046812616,35.313891456065974,41.247099517624434,-10,-0.33,0.33,10,33,23,32.67,33.33,43,3.1622776601683795,3.1622776601683795,3.1622776601683795,3.1622776601683795
3,15,0.01932590000797063,q,35.9,Limited Time - 800ms,l,35.87408651765292,26.785683132990094,29.9346248391048,39.29646975895089,26.785683132990094,35.87408651765292,29.9346248391048,39.29646975895089,-10,-0.33,0.33,10,33,23,32.67,33.33,43,3.1622776601683795,3.1622776601683795,3.1622776601683795,3.1622776601683795
3,16,0.022243699990212917,q,32.2,Limited Time - 800ms,l,32.208037666836965,19.431431166143753,33.161698093800354,41.86603703433378,19.431431166143753,32.208037666836965,33.161698093800354,41.86603703433378,-10,-0.33,0.33,10,33,23,32.67,33.33,43,3.1622776601683795,3.1622776601683795,3.1622776601683795,3.1622776601683795
3,17,0.027441799989901483,q,34.6,Limited Time - 800ms,l,34.64901997118578,20.971789871952765,33.19793755482191,44.836474053352084,20.971789871952765,34.64901997118578,33.19793755482191,44.836474053352084,-10,-0.33,0.33,10,33,23,32.67,33.33,43,3.1622776601683795,3.1622776601683795,3.1622776601683795,3.1622776601683795
3,18,0.08968589996220544,q,38.9,Limited Time - 800ms,l,38.87727774439802,22.840414862685922,34.68539856046115,40.461252188474965,22.840414862685922,38.87727774439802,34.68539856046115,40.461252188474965,-10,-0.33,0.33,10,33,23,32.67,33.33,43,3.1622776601683795,3.1622776601683795,3.1622776601683795,3.1622776601683795
3,19,0.08511059999000281,o,36.0,Limited Time - 800ms,l,30.39679140021478,24.817933056880957,35.99259099832552,41.37790719287037,24.817933056880957,30.39679140021478,35.99259099832552,41.37790719287037,-10,-0.33,0.33,10,33,23,32.67,33.33,43,3.1622776601683795,3.1622776601683795,3.1622776601683795,3.1622776601683795
3,20,0.19212709995917976,o,38.7,Limited Time - 800ms,l,33.20609488342599,19.106079704504022,38.73128904563992,44.54159406239472,19.106079704504022,33.20609488342599,38.73128904563992,44.54159406239472,-10,-0.33,0.33,10,33,23,32.67,33.33,43,3.1622776601683795,3.1622776601683795,3.1622776601683795,3.1622776601683795
4,1,0.6717786000226624,o,54.3,Unlimited Time,e,33.30849838670675,32.259263315570195,54.26262685828812,29.347642573560453,29.347642573560453,33.30849838670675,32.259263315570195,54.26262685828812,0,0,0,0,33,33,33,33,33,3.1622776601683795,6.324555320336759,8.366600265340756,10
4,2,0.48824320000130683,o,14.2,Unlimited Time,e,26.21705040476434,32.38071701892563,14.15291899892117,32.27678875747769,32.27678875747769,26.21705040476434,32.38071701892563,14.15291899892117,0,0,0,0,33,33,33,33,33,3.1622776601683795,6.324555320336759,8.366600265340756,10
4,3,1.104481999995187,p,26.7,Unlimited Time,e,25.51859934353679,30.74276700138505,45.11727999525276,26.741003667807117,26.741003667807117,25.51859934353679,30.74276700138505,45.11727999525276,0,0,0,0,33,33,33,33,33,3.1622776601683795,6.324555320336759,8.366600265340756,10
4,4,0.42069890000857413,p,33.5,Unlimited Time,e,24.256392524130398,53.90182910318414,32.13498445141858,33.48608373774766,33.48608373774766,24.256392524130398,53.90182910318414,32.13498445141858,0,0,0,0,33,33,33,33,33,3.1622776601683795,6.324555320336759,8.366600265340756,10
4,5,0.5626043999800459,p,37.7,Unlimited Time,e,28.54227719618623,35.72940753991938,32.13094073574106,37.72125266721063,37.72125266721063,28.54227719618623,35.72940753991938,32.13094073574106,0,0,0,0,33,33,33,33,33,3.1622776601683795,6.324555320336759,8.366600265340756,10
4,6,0.42020539997611195,p,30.6,Unlimited Time,e,32.25444944532332,35.70959145943931,16.28782450733337,30.561630991310743,30.561630991310743,32.25444944532332,35.70959145943931,16.28782450733337,0,0,0,0,33,33,33,33,33,3.1622776601683795,6.324555320336759,8.366600265340756,10
4,7,0.40720560000045225,p,26.1,Unlimited Time,e,43.29189233364259,42.87851828057842,43.209638176183994,26.082561066200242,26.082561066200242,43.29189233364259,42.87851828057842,43.209638176183994,0,0,0,0,33,33,33,33,33,3.1622776601683795,6.324555320336759,8.366600265340756,10
4,8,0.47496600000886247,p,29.4,Unlimited Time,e,40.87582497578655,35.40814455900847,25.612924398171117,29.394080401128168,29.394080401128168,40.87582497578655,35.40814455900847,25.612924398171117,0,0,0,0,33,33,33,33,33,3.1622776601683795,6.324555320336759,8.366600265340756,10
4,9,0.744758200016804,o,38.2,Unlimited Time,e,31.42423306533172,44.43027293390878,38.170722216401174,37.17651457061099,37.17651457061099,31.42423306533172,44.43027293390878,38.170722216401174,0,0,0,0,33,33,33,33,33,3.1622776601683795,6.324555320336759,8.366600265340756,10
4,10,0.3324929000227712,o,29.2,Unlimited Time,e,24.811152923487462,41.68010299379145,29.171898249753003,33.574606322262916,33.574606322262916,24.811152923487462,41.68010299379145,29.171898249753003,0,0,0,0,33,33,33,33,33,3.1622776601683795,6.324555320336759,8.366600265340756,10
4,11,0.5540656999801286,p,33.1,Unlimited Time,e,45.37641027514537,25.14301530542585,41.57781736992807,33.06843155716389,33.06843155716389,45.37641027514537,25.14301530542585,41.57781736992807,0,0,0,0,33,33,33,33,33,3.1622776601683795,6.324555320336759,8.366600265340756,10
4,12,0.6130088999634609,o,25.2,Unlimited Time,e,27.17219057469163,42.07481703050829,25.165032784515404,34.54646183273063,34.54646183273063,27.17219057469163,42.07481703050829,25.165032784515404,0,0,0,0,33,33,33,33,33,3.1622776601683795,6.324555320336759,8.366600265340756,10
4,13,0.22881900001084432,o,33.5,Unlimited Time,e,39.244826379171116,44.38071423871679,33.469959867427775,34.61270252186678,34.61270252186678,39.244826379171116,44.38071423871679,33.469959867427775,0,0,0,0,33,33,33,33,33,3.1622776601683795,6.324555320336759,8.366600265340756,10
4,14,0.3449695000308566,o,38.5,Unlimited Time,e,28.913756411037124,20.160964967964695,38.45653545348186,34.23925015952522,34.23925015952522,28.913756411037124,20.160964967964695,38.45653545348186,0,0,0,0,33,33,33,33,33,3.1622776601683795,6.324555320336759,8.366600265340756,10
4,15,0.37455880001652986,o,29.0,Unlimited Time,e,38.3720404145997,18.48278203597684,29.043652781310694,34.721794154430484,34.721794154430484,38.3720404145997,18.48278203597684,29.043652781310694,0,0,0,0,33,33,33,33,33,3.1622776601683795,6.324555320336759,8.366600265340756,10
4,16,0.2773575000464916,o,36.2,Unlimited Time,e,33.34737615801919,34.157088679555685,36.22689852019036,32.41279237716232,32.41279237716232,33.34737615801919,34.157088679555685,36.22689852019036,0,0,0,0,33,33,33,33,33,3.1622776601683795,6.324555320336759,8.366600265340756,10
4,17,0.26767049997579306,o,34.3,Unlimited Time,e,34.54508482718542,44.348686809892754,34.30484225420755,39.53907370205646,39.53907370205646,34.54508482718542,44.348686809892754,34.30484225420755,0,0,0,0,33,33,33,33,33,3.1622776601683795,6.324555320336759,8.366600265340756,10
4,18,0.20647900004405528,o,50.2,Unlimited Time,e,36.938888281851284,35.177789596709566,50.16431057450039,31.407009461715948,31.407009461715948,36.938888281851284,35.177789596709566,50.16431057450039,0,0,0,0,33,33,33,33,33,3.1622776601683795,6.324555320336759,8.366600265340756,10
4,19,0.25083159998757765,o,25.5,Unlimited Time,e,34.43780400395029,35.65333045942923,25.547965257976735,32.308577246591106,32.308577246591106,34.43780400395029,35.65333045942923,25.547965257976735,0,0,0,0,33,33,33,33,33,3.1622776601683795,6.324555320336759,8.366600265340756,10
4,20,0.2896603000117466,o,30.0,Unlimited Time,e,21.951547728485455,27.23223943110421,29.97469797111099,33.637290150544416,33.637290150544416,21.951547728485455,27.23223943110421,29.97469797111099,0,0,0,0,33,33,33,33,33,3.1622776601683795,6.324555320336759,8.366600265340756,10
5,1,0.2982810999965295,w,25.6,Limited Time - 400ms,l,29.624746598317373,25.628784107618912,30.661060329312974,44.51651757576866,25.628784107618912,29.624746598317373,30.661060329312974,44.51651757576866,-10,-0.33,0.33,10,33,23,32.67,33.33,43,3.1622776601683795,3.1622776601683795,3.1622776601683795,3.1622776601683795
5,2,0.15943980001611635,w,24.2,Limited Time - 400ms,l,33.362467473106356,24.227743836961515,30.157436073794933,37.12686561072045,24.227743836961515,33.362467473106356,30.157436073794933,37.12686561072045,-10,-0.33,0.33,10,33,23,32.67,33.33,43,3.1622776601683795,3.1622776601683795,3.1622776601683795,3.1622776601683795
5,3,0.14653519995044917,w,22.3,Limited Time - 400ms,l,30.351510931071257,22.314830647936848,33.67470280632278,45.02932947804225,22.314830647936848,30.351510931071257,33.67470280632278,45.02932947804225,-10,-0.33,0.33,10,33,23,32.67,33.33,43,3.1622776601683795,3.1622776601683795,3.1622776601683795,3.1622776601683795
5,4,0.13339099998120219,w,25.8,Limited Time - 400ms,l,28.072733235542646,25.753638730798365,32.61307376579906,45.766120056095446,25.753638730798365,28.072733235542646,32.61307376579906,45.766120056095446,-10,-0.33,0.33,10,33,23,32.67,33.33,43,3.1622776601683795,3.1622776601683795,3.1622776601683795,3.1622776601683795
5,5,0.16784030001144856,w,22.3,Limited Time - 400ms,l,33.24185712944505,22.306889448799776,34.93553387365878,43.02148216284696,22.306889448799776,33.24185712944505,34.93553387365878,43.02148216284696,-10,-0.33,0.33,10,33,23,32.67,33.33,43,3.1622776601683795,3.1622776601683795,3.1622776601683795,3.1622776601683795
5,6,0.1735583000117913,w,20.2,Limited Time - 400ms,l,33.24216405356294,20.185006402619923,36.103663741151756,43.822164712823025,20.185006402619923,33.24216405356294,36.103663741151756,43.822164712823025,-10,-0.33,0.33,10,33,23,32.67,33.33,43,3.1622776601683795,3.1622776601683795,3.1622776601683795,3.1622776601683795
5,7,0.16897350002545863,w,21.6,Limited Time - 400ms,l,37.04231283552655,21.587541455261768,35.19361580506416,38.657839897585575,21.587541455261768,37.04231283552655,35.19361580506416,38.657839897585575,-10,-0.33,0.33,10,33,23,32.67,33.33,43,3.1622776601683795,3.1622776601683795,3.1622776601683795,3.1622776601683795
5,8,0.2560935000074096,w,18.9,Limited Time - 400ms,l,34.51042457371359,18.902844686529072,31.426006941205124,43.66918181390832,18.902844686529072,34.51042457371359,31.426006941205124,43.66918181390832,-10,-0.33,0.33,10,33,23,32.67,33.33,43,3.1622776601683795,3.1622776601683795,3.1622776601683795,3.1622776601683795
5,9,0.12552459997823462,o,29.4,Limited Time - 400ms,l,35.558823221402044,21.17881791332348,29.403224409902176,40.700248941477824,21.17881791332348,35.558823221402044,29.403224409902176,40.700248941477824,-10,-0.33,0.33,10,33,23,32.67,33.33,43,3.1622776601683795,3.1622776601683795,3.1622776601683795,3.1622776601683795
5,10,0.09858600003644824,o,35.0,Limited Time - 400ms,l,34.68615463903532,27.913181799673296,34.96873541379661,43.05328830720761,27.913181799673296,34.68615463903532,34.96873541379661,43.05328830720761,-10,-0.33,0.33,10,33,23,32.67,33.33,43,3.1622776601683795,3.1622776601683795,3.1622776601683795,3.1622776601683795
5,11,0.10386350000044331,o,35.8,Limited Time - 400ms,l,35.663319618178896,17.417059255906132,35.75512762404608,41.809591915733584,17.417059255906132,35.663319618178896,35.75512762404608,41.809591915733584,-10,-0.33,0.33,10,33,23,32.67,33.33,43,3.1622776601683795,3.1622776601683795,3.1622776601683795,3.1622776601683795
5,12,0.0950033999979496,o,35.1,Limited Time - 400ms,l,34.24744480707876,15.840376674754491,35.12399397886617,49.459494722926195,15.840376674754491,34.24744480707876,35.12399397886617,49.459494722926195,-10,-0.33,0.33,10,33,23,32.67,33.33,43,3.1622776601683795,3.1622776601683795,3.1622776601683795,3.1622776601683795
5,13,0.10820469999453053,o,36.2,Limited Time - 400ms,l,32.79398596272695,26.195093054338074,36.158889308047414,46.84756175318661,26.195093054338074,32.79398596272695,36.158889308047414,46.84756175318661,-10,-0.33,0.33,10,33,23,32.67,33.33,43,3.1622776601683795,3.1622776601683795,3.1622776601683795,3.1622776601683795
5,14,0.1050373999751173,o,35.3,Limited Time - 400ms,l,31.30838046812616,22.9250542603102,35.313891456065974,41.247099517624434,22.9250542603102,31.30838046812616,35.313891456065974,41.247099517624434,-10,-0.33,0.33,10,33,23,32.67,33.33,43,3.1622776601683795,3.1622776601683795,3.1622776601683795,3.1622776601683795
5,15,0.09925549995386973,o,29.9,Limited Time - 400ms,l,35.87408651765292,26.785683132990094,29.9346248391048,39.29646975895089,26.785683132990094,35.87408651765292,29.9346248391048,39.29646975895089,-10,-0.33,0.33,10,33,23,32.67,33.33,43,3.1622776601683795,3.1622776601683795,3.1622776601683795,3.1622776601683795
5,16,0.20182049996219575,o,33.2,Limited Time - 400ms,l,32.208037666836965,19.431431166143753,33.161698093800354,41.86603703433378,19.431431166143753,32.208037666836965,33.161698093800354,41.86603703433378,-10,-0.33,0.33,10,33,23,32.67,33.33,43,3.1622776601683795,3.1622776601683795,3.1622776601683795,3.1622776601683795
5,17,0.14706249994924292,o,33.2,Limited Time - 400ms,l,34.64901997118578,20.971789871952765,33.19793755482191,44.836474053352084,20.971789871952765,34.64901997118578,33.19793755482191,44.836474053352084,-10,-0.33,0.33,10,33,23,32.67,33.33,43,3.1622776601683795,3.1622776601683795,3.1622776601683795,3.1622776601683795
5,18,,,0.0,Limited Time - 400ms,l,38.87727774439802,22.840414862685922,34.68539856046115,40.461252188474965,22.840414862685922,38.87727774439802,34.68539856046115,40.461252188474965,-10,-0.33,0.33,10,33,23,32.67,33.33,43,3.1622776601683795,3.1622776601683795,3.1622776601683795,3.1622776601683795
5,19,0.02744979999260977,p,41.4,Limited Time - 400ms,l,30.39679140021478,24.817933056880957,35.99259099832552,41.37790719287037,24.817933056880957,30.39679140021478,35.99259099832552,41.37790719287037,-10,-0.33,0.33,10,33,23,32.67,33.33,43,3.1622776601683795,3.1622776601683795,3.1622776601683795,3.1622776601683795
5,20,0.15621739998459816,p,44.5,Limited Time - 400ms,l,33.20609488342599,19.106079704504022,38.73128904563992,44.54159406239472,19.106079704504022,33.20609488342599,38.73128904563992,44.54159406239472,-10,-0.33,0.33,10,33,23,32.67,33.33,43,3.1622776601683795,3.1622776601683795,3.1622776601683795,3.1622776601683795
6,1,0.12790179997682571,p,40.5,Limited Time - 800ms,h,10.835387532640976,29.1947513094647,22.730454018884135,40.51939873590259,10.835387532640976,22.730454018884135,29.1947513094647,40.51939873590259,-10,-0.33,0.33,10,33,23,32.67,33.33,43,10,10,10,10
6,2,0.2230697000049986,p,39.5,Limited Time - 800ms,h,26.684569874651526,32.863703290569866,22.814992805575905,39.53207724390195,26.684569874651526,22.814992805575905,32.863703290569866,39.53207724390195,-10,-0.33,0.33,10,33,23,32.67,33.33,43,10,10,10,10
6,3,0.15888410003390163,p,32.8,Limited Time - 800ms,h,14.763863072470135,36.38874214715845,42.079245952713705,32.82367432646026,14.763863072470135,42.079245952713705,36.38874214715845,32.82367432646026,-10,-0.33,0.33,10,33,23,32.67,33.33,43,10,10,10,10
6,4,0.11785139999119565,p,36.2,Limited Time - 800ms,h,34.594323493644474,49.97571016277814,32.41122862244218,36.22276518252828,34.594323493644474,32.41122862244218,49.97571016277814,36.22276518252828,-10,-0.33,0.33,10,33,23,32.67,33.33,43,10,10,10,10
6,5,0.15095460001612082,p,38.0,Limited Time - 800ms,h,29.3645543992169,33.69855057023661,26.252497235593438,38.000915134785465,29.3645543992169,26.252497235593438,33.69855057023661,38.000915134785465,-10,-0.33,0.33,10,33,23,32.67,33.33,43,10,10,10,10
6,6,0.1903778999694623,p,42.9,Limited Time - 800ms,h,44.61971744211243,15.990466579681911,21.014356336958773,42.868768217411954,44.61971744211243,21.014356336958773,15.990466579681911,42.868768217411954,-10,-0.33,0.33,10,33,23,32.67,33.33,43,10,10,10,10
6,7,0.14639369997894391,p,52.1,Limited Time - 800ms,h,45.51681150634723,31.00777289635912,30.38928350457803,52.12512654640364,45.51681150634723,30.38928350457803,31.00777289635912,52.12512654640364,-10,-0.33,0.33,10,33,23,32.67,33.33,43,10,10,10,10
6,8,0.10480410000309348,p,56.4,Limited Time - 800ms,h,29.223629306052064,43.127588023577715,41.9533249229772,56.418760117190004,29.223629306052064,41.9533249229772,43.127588023577715,56.418760117190004,-10,-0.33,0.33,10,33,23,32.67,33.33,43,10,10,10,10
6,9,0.1034421999938786,p,42.2,Limited Time - 800ms,h,29.050069683967656,24.966768192574282,38.96369102956068,42.219723202306376,29.050069683967656,38.96369102956068,24.966768192574282,42.219723202306376,-10,-0.33,0.33,10,33,23,32.67,33.33,43,10,10,10,10
6,10,0.13667409995105118,p,46.3,Limited Time - 800ms,h,33.272554573382465,35.92028154204594,41.24806296253814,46.31485634833349,33.272554573382465,41.24806296253814,35.92028154204594,46.31485634833349,-10,-0.33,0.33,10,33,23,32.67,33.33,43,10,10,10,10
6,11,0.12592409999342635,p,43.3,Limited Time - 800ms,h,32.03177757864751,35.18200079604253,24.674587981534305,43.288915160308115,32.03177757864751,24.674587981534305,35.18200079604253,43.288915160308115,-10,-0.33,0.33,10,33,23,32.67,33.33,43,10,10,10,10
6,12,,,0.0,Limited Time - 800ms,h,18.19854687188854,40.90780735244309,35.445371556017996,49.85378955305051,18.19854687188854,35.445371556017996,40.90780735244309,49.85378955305051,-10,-0.33,0.33,10,33,23,32.67,33.33,43,10,10,10,10
6,13,,,0.0,Limited Time - 800ms,h,20.86026703324235,28.29220568689371,42.913880672503936,47.99765333556618,20.86026703324235,42.913880672503936,28.29220568689371,47.99765333556618,-10,-0.33,0.33,10,33,23,32.67,33.33,43,10,10,10,10
6,14,0.19438430003356189,o,34.6,Limited Time - 800ms,h,29.893321251293322,39.007570292241816,34.60329270639891,34.96011506054899,29.893321251293322,34.60329270639891,39.007570292241816,34.96011506054899,-10,-0.33,0.33,10,33,23,32.67,33.33,43,10,10,10,10
6,15,0.19825820002006367,o,39.8,Limited Time - 800ms,h,24.305520942658056,37.16456374552209,39.75914365051297,42.39572927263379,24.305520942658056,39.75914365051297,37.16456374552209,42.39572927263379,-10,-0.33,0.33,10,33,23,32.67,33.33,43,10,10,10,10
6,16,0.19471940002404153,o,41.0,Limited Time - 800ms,h,22.589122318135967,15.458974649344949,41.01226613097259,45.14700957058515,22.589122318135967,41.01226613097259,15.458974649344949,45.14700957058515,-10,-0.33,0.33,10,33,23,32.67,33.33,43,10,10,10,10
6,17,0.12057590001495555,o,41.8,Limited Time - 800ms,h,27.89592243157423,47.81698324794731,41.77538539852161,54.67396535562835,27.89592243157423,41.77538539852161,47.81698324794731,54.67396535562835,-10,-0.33,0.33,10,33,23,32.67,33.33,43,10,10,10,10
6,18,0.6556532999966294,o,27.0,Limited Time - 800ms,h,39.142557315571196,47.02253891438387,26.993047291528214,55.56480077963315,39.142557315571196,26.993047291528214,47.02253891438387,55.56480077963315,-10,-0.33,0.33,10,33,23,32.67,33.33,43,10,10,10,10
6,19,0.1197624999913387,o,34.6,Limited Time - 800ms,h,18.633924280807815,16.241695219394636,34.62364921216388,52.74367076573736,18.633924280807815,34.62364921216388,16.241695219394636,52.74367076573736,-10,-0.33,0.33,10,33,23,32.67,33.33,43,10,10,10,10
6,20,0.21914709999691695,w,35.4,Limited Time - 800ms,h,24.298435930173117,35.35935277902411,26.295880194891772,47.66275440588663,24.298435930173117,26.295880194891772,35.35935277902411,47.66275440588663,-10,-0.33,0.33,10,33,23,32.67,33.33,43,10,10,10,10
7,1,0.21249109995551407,w,10.8,Unlimited Time,h,40.51939873590259,10.835387532640976,22.730454018884135,29.1947513094647,10.835387532640976,22.730454018884135,29.1947513094647,40.51939873590259,-10,-0.33,0.33,10,33,23,32.67,33.33,43,10,10,10,10
7,2,0.009813899989239872,w,26.7,Unlimited Time,h,39.53207724390195,26.684569874651526,22.814992805575905,32.863703290569866,26.684569874651526,22.814992805575905,32.863703290569866,39.53207724390195,-10,-0.33,0.33,10,33,23,32.67,33.33,43,10,10,10,10
7,3,0.3209952000179328,w,14.8,Unlimited Time,h,32.82367432646026,14.763863072470135,42.079245952713705,36.38874214715845,14.763863072470135,42.079245952713705,36.38874214715845,32.82367432646026,-10,-0.33,0.33,10,33,23,32.67,33.33,43,10,10,10,10
7,4,0.1093121999874711,w,34.6,Unlimited Time,h,36.22276518252828,34.594323493644474,32.41122862244218,49.97571016277814,34.594323493644474,32.41122862244218,49.97571016277814,36.22276518252828,-10,-0.33,0.33,10,33,23,32.67,33.33,43,10,10,10,10
7,5,0.03212859999621287,w,29.4,Unlimited Time,h,38.000915134785465,29.3645543992169,26.252497235593438,33.69855057023661,29.3645543992169,26.252497235593438,33.69855057023661,38.000915134785465,-10,-0.33,0.33,10,33,23,32.67,33.33,43,10,10,10,10
7,6,0.3725368999876082,w,44.6,Unlimited Time,h,42.868768217411954,44.61971744211243,21.014356336958773,15.990466579681911,44.61971744211243,21.014356336958773,15.990466579681911,42.868768217411954,-10,-0.33,0.33,10,33,23,32.67,33.33,43,10,10,10,10
7,7,0.23067449999507517,w,45.5,Unlimited Time,h,52.12512654640364,45.51681150634723,30.38928350457803,31.00777289635912,45.51681150634723,30.38928350457803,31.00777289635912,52.12512654640364,-10,-0.33,0.33,10,33,23,32.67,33.33,43,10,10,10,10
7,8,0.4480022999923676,w,29.2,Unlimited Time,h,56.418760117190004,29.223629306052064,41.9533249229772,43.127588023577715,29.223629306052064,41.9533249229772,43.127588023577715,56.418760117190004,-10,-0.33,0.33,10,33,23,32.67,33.33,43,10,10,10,10
7,9,0.13401399995200336,w,29.1,Unlimited Time,h,42.219723202306376,29.050069683967656,38.96369102956068,24.966768192574282,29.050069683967656,38.96369102956068,24.966768192574282,42.219723202306376,-10,-0.33,0.33,10,33,23,32.67,33.33,43,10,10,10,10
7,10,0.060290099994745106,w,33.3,Unlimited Time,h,46.31485634833349,33.272554573382465,41.24806296253814,35.92028154204594,33.272554573382465,41.24806296253814,35.92028154204594,46.31485634833349,-10,-0.33,0.33,10,33,23,32.67,33.33,43,10,10,10,10
7,11,0.35360299999592826,p,35.2,Unlimited Time,h,43.288915160308115,32.03177757864751,24.674587981534305,35.18200079604253,32.03177757864751,24.674587981534305,35.18200079604253,43.288915160308115,-10,-0.33,0.33,10,33,23,32.67,33.33,43,10,10,10,10
7,12,0.0554132999968715,p,40.9,Unlimited Time,h,49.85378955305051,18.19854687188854,35.445371556017996,40.90780735244309,18.19854687188854,35.445371556017996,40.90780735244309,49.85378955305051,-10,-0.33,0.33,10,33,23,32.67,33.33,43,10,10,10,10
7,13,0.5485649000038393,o,42.9,Unlimited Time,h,47.99765333556618,20.86026703324235,42.913880672503936,28.29220568689371,20.86026703324235,42.913880672503936,28.29220568689371,47.99765333556618,-10,-0.33,0.33,10,33,23,32.67,33.33,43,10,10,10,10
7,14,0.4381372999632731,p,39.0,Unlimited Time,h,34.96011506054899,29.893321251293322,34.60329270639891,39.007570292241816,29.893321251293322,34.60329270639891,39.007570292241816,34.96011506054899,-10,-0.33,0.33,10,33,23,32.67,33.33,43,10,10,10,10
7,15,0.20217240002239123,p,37.2,Unlimited Time,h,42.39572927263379,24.305520942658056,39.75914365051297,37.16456374552209,24.305520942658056,39.75914365051297,37.16456374552209,42.39572927263379,-10,-0.33,0.33,10,33,23,32.67,33.33,43,10,10,10,10
7,16,0.28920719999587163,p,15.5,Unlimited Time,h,45.14700957058515,22.589122318135967,41.01226613097259,15.458974649344949,22.589122318135967,41.01226613097259,15.458974649344949,45.14700957058515,-10,-0.33,0.33,10,33,23,32.67,33.33,43,10,10,10,10
7,17,0.3481973000452854,p,47.8,Unlimited Time,h,54.67396535562835,27.89592243157423,41.77538539852161,47.81698324794731,27.89592243157423,41.77538539852161,47.81698324794731,54.67396535562835,-10,-0.33,0.33,10,33,23,32.67,33.33,43,10,10,10,10
7,18,0.11759539996273816,p,47.0,Unlimited Time,h,55.56480077963315,39.142557315571196,26.993047291528214,47.02253891438387,39.142557315571196,26.993047291528214,47.02253891438387,55.56480077963315,-10,-0.33,0.33,10,33,23,32.67,33.33,43,10,10,10,10
7,19,0.41715039999689907,p,16.2,Unlimited Time,h,52.74367076573736,18.633924280807815,34.62364921216388,16.241695219394636,18.633924280807815,34.62364921216388,16.241695219394636,52.74367076573736,-10,-0.33,0.33,10,33,23,32.67,33.33,43,10,10,10,10
7,20,0.055254300008527935,p,35.4,Unlimited Time,h,47.66275440588663,24.298435930173117,26.295880194891772,35.35935277902411,24.298435930173117,26.295880194891772,35.35935277902411,47.66275440588663,-10,-0.33,0.33,10,33,23,32.67,33.33,43,10,10,10,10
8,1,,,0.0,Limited Time - 400ms,i,45.99300983865363,23.635172042882687,18.223281358939072,28.39554678753022,23.635172042882687,28.39554678753022,45.99300983865363,18.223281358939072,-10,-10,10,10,33,23,23,43,43,3.1622776601683795,10,3.1622776601683795,10
8,2,0.07432080002035946,p,24.6,Limited Time - 400ms,i,47.82826010995246,20.55631765928765,42.07681064918182,24.594720763144743,20.55631765928765,24.594720763144743,47.82826010995246,42.07681064918182,-10,-10,10,10,33,23,23,43,43,3.1622776601683795,10,3.1622776601683795,10
8,3,0.13863569998648018,p,20.5,Limited Time - 400ms,i,40.98863361538178,21.451400752778152,40.23818044106062,20.521081880073275,21.451400752778152,20.521081880073275,40.98863361538178,40.23818044106062,-10,-10,10,10,33,23,23,43,43,3.1622776601683795,10,3.1622776601683795,10
8,4,0.20587090001208708,p,17.9,Limited Time - 400ms,i,46.66954760285145,23.94330836835327,39.77695793050775,17.919913549848303,23.94330836835327,17.919913549848303,46.66954760285145,39.77695793050775,-10,-10,10,10,33,23,23,43,43,3.1622776601683795,10,3.1622776601683795,10
8,5,0.1896421000128612,o,58.4,Limited Time - 400ms,i,39.56290452537471,20.395019243866976,58.448126774132795,3.30960380415128,20.395019243866976,3.30960380415128,39.56290452537471,58.448126774132795,-10,-10,10,10,33,23,23,43,43,3.1622776601683795,10,3.1622776601683795,10
8,6,,,0.0,Limited Time - 400ms,i,42.80725623116951,27.822277889682127,46.538046773031766,31.110449047813336,27.822277889682127,31.110449047813336,42.80725623116951,46.538046773031766,-10,-10,10,10,33,23,23,43,43,3.1622776601683795,10,3.1622776601683795,10
8,7,0.028929200023412704,o,51.4,Limited Time - 400ms,i,38.9505016988921,21.660436249567674,51.41943219175299,8.172460467619631,21.660436249567674,8.172460467619631,38.9505016988921,51.41943219175299,-10,-10,10,10,33,23,23,43,43,3.1622776601683795,10,3.1622776601683795,10
8,8,0.00044299999717622995,o,51.6,Limited Time - 400ms,i,45.19696320288755,26.145363230124595,51.583586161859046,8.384471443849876,26.145363230124595,8.384471443849876,45.19696320288755,51.583586161859046,-10,-10,10,10,33,23,23,43,43,3.1622776601683795,10,3.1622776601683795,10
8,9,0.016425599984358996,o,28.6,Limited Time - 400ms,i,43.81849435033229,22.290055153055658,28.58046972007451,32.74947639293488,22.290055153055658,32.74947639293488,43.81849435033229,28.58046972007451,-10,-10,10,10,33,23,23,43,43,3.1622776601683795,10,3.1622776601683795,10
8,10,0.26084000000264496,o,42.0,Limited Time - 400ms,i,40.51041643614343,19.189182202236026,42.0473571068502,14.190540209953056,19.189182202236026,14.190540209953056,40.51041643614343,42.0473571068502,-10,-10,10,10,33,23,23,43,43,3.1622776601683795,10,3.1622776601683795,10
8,11,0.2372398999868892,o,50.3,Limited Time - 400ms,i,46.292218243263335,24.08492078067194,50.288693631438974,34.51967178458525,24.08492078067194,34.51967178458525,46.292218243263335,50.288693631438974,-10,-10,10,10,33,23,23,43,43,3.1622776601683795,10,3.1622776601683795,10
8,12,0.20235979999415576,o,46.7,Limited Time - 400ms,i,42.82289002440943,28.24686584854357,46.66520213895466,18.314218051158296,28.24686584854357,18.314218051158296,42.82289002440943,46.66520213895466,-10,-10,10,10,33,23,23,43,43,3.1622776601683795,10,3.1622776601683795,10
8,13,0.1747672000201419,o,42.6,Limited Time - 400ms,i,34.25833123486518,26.564355575883358,42.55845400854442,34.352189794892766,26.564355575883358,34.352189794892766,34.25833123486518,42.55845400854442,-10,-10,10,10,33,23,23,43,43,3.1622776601683795,10,3.1622776601683795,10
8,14,0.21682639996288344,o,23.7,Limited Time - 400ms,i,46.65507855305575,24.045843364020982,23.749431885789,16.778588096344578,24.045843364020982,16.778588096344578,46.65507855305575,23.749431885789,-10,-10,10,10,33,23,23,43,43,3.1622776601683795,10,3.1622776601683795,10
8,15,0.19012009998550639,o,47.1,Limited Time - 400ms,i,45.026151697874525,24.730107478271027,47.14397474542684,22.866234099402767,24.730107478271027,22.866234099402767,45.026151697874525,47.14397474542684,-10,-10,10,10,33,23,23,43,43,3.1622776601683795,10,3.1622776601683795,10
8,16,0.1852709999657236,o,52.7,Limited Time - 400ms,i,43.97837428054633,21.263347871530105,52.67924329087314,28.278180737070997,21.263347871530105,28.278180737070997,43.97837428054633,52.67924329087314,-10,-10,10,10,33,23,23,43,43,3.1622776601683795,10,3.1622776601683795,10
8,17,0.23913280002307147,o,50.8,Limited Time - 400ms,i,40.54418360644929,20.483726208981636,50.75788640328584,22.94206914033395,20.483726208981636,22.94206914033395,40.54418360644929,50.75788640328584,-10,-10,10,10,33,23,23,43,43,3.1622776601683795,10,3.1622776601683795,10
8,18,0.1858537999796681,o,53.0,Limited Time - 400ms,i,39.89695958866403,18.39074391745791,52.95997289373077,30.290480600106353,18.39074391745791,30.290480600106353,39.89695958866403,52.95997289373077,-10,-10,10,10,33,23,23,43,43,3.1622776601683795,10,3.1622776601683795,10
8,19,,,0.0,Limited Time - 400ms,i,40.65286540033851,25.79689074116285,34.57943207321174,16.860339747879145,25.79689074116285,16.860339747879145,40.65286540033851,34.57943207321174,-10,-10,10,10,33,23,23,43,43,3.1622776601683795,10,3.1622776601683795,10
8,20,0.01000230002682656,w,25.7,Limited Time - 400ms,i,47.818882731150026,25.67596527954196,34.02945466708293,19.698057025106074,25.67596527954196,19.698057025106074,47.818882731150026,34.02945466708293,-10,-10,10,10,33,23,23,43,43,3.1622776601683795,10,3.1622776601683795,10
9,1,0.12871309998445213,w,29.3,Limited Time - 800ms,e,33.30849838670675,29.347642573560453,32.259263315570195,54.26262685828812,29.347642573560453,33.30849838670675,32.259263315570195,54.26262685828812,0,0,0,0,33,33,33,33,33,3.1622776601683795,6.324555320336759,8.366600265340756,10
9,2,0.035188700014259666,w,32.3,Limited Time - 800ms,e,26.21705040476434,32.27678875747769,32.38071701892563,14.15291899892117,32.27678875747769,26.21705040476434,32.38071701892563,14.15291899892117,0,0,0,0,33,33,33,33,33,3.1622776601683795,6.324555320336759,8.366600265340756,10
9,3,0.27011929999571294,o,30.7,Limited Time - 800ms,e,25.51859934353679,26.741003667807117,30.74276700138505,45.11727999525276,26.741003667807117,25.51859934353679,30.74276700138505,45.11727999525276,0,0,0,0,33,33,33,33,33,3.1622776601683795,6.324555320336759,8.366600265340756,10
9,4,0.4218632999691181,o,53.9,Limited Time - 800ms,e,24.256392524130398,33.48608373774766,53.90182910318414,32.13498445141858,33.48608373774766,24.256392524130398,53.90182910318414,32.13498445141858,0,0,0,0,33,33,33,33,33,3.1622776601683795,6.324555320336759,8.366600265340756,10
9,5,0.12498110003070906,o,35.7,Limited Time - 800ms,e,28.54227719618623,37.72125266721063,35.72940753991938,32.13094073574106,37.72125266721063,28.54227719618623,35.72940753991938,32.13094073574106,0,0,0,0,33,33,33,33,33,3.1622776601683795,6.324555320336759,8.366600265340756,10
9,6,0.3601028000121005,o,35.7,Limited Time - 800ms,e,32.25444944532332,30.561630991310743,35.70959145943931,16.28782450733337,30.561630991310743,32.25444944532332,35.70959145943931,16.28782450733337,0,0,0,0,33,33,33,33,33,3.1622776601683795,6.324555320336759,8.366600265340756,10
9,7,0.01586619997397065,p,43.2,Limited Time - 800ms,e,43.29189233364259,26.082561066200242,42.87851828057842,43.209638176183994,26.082561066200242,43.29189233364259,42.87851828057842,43.209638176183994,0,0,0,0,33,33,33,33,33,3.1622776601683795,6.324555320336759,8.366600265340756,10
9,8,0.17193439998663962,p,25.6,Limited Time - 800ms,e,40.87582497578655,29.394080401128168,35.40814455900847,25.612924398171117,29.394080401128168,40.87582497578655,35.40814455900847,25.612924398171117,0,0,0,0,33,33,33,33,33,3.1622776601683795,6.324555320336759,8.366600265340756,10
9,9,0.06947199994465336,p,38.2,Limited Time - 800ms,e,31.42423306533172,37.17651457061099,44.43027293390878,38.170722216401174,37.17651457061099,31.42423306533172,44.43027293390878,38.170722216401174,0,0,0,0,33,33,33,33,33,3.1622776601683795,6.324555320336759,8.366600265340756,10
9,10,0.17717730003641918,q,24.8,Limited Time - 800ms,e,24.811152923487462,33.574606322262916,41.68010299379145,29.171898249753003,33.574606322262916,24.811152923487462,41.68010299379145,29.171898249753003,0,0,0,0,33,33,33,33,33,3.1622776601683795,6.324555320336759,8.366600265340756,10
9,11,0.11081639997428283,q,45.4,Limited Time - 800ms,e,45.37641027514537,33.06843155716389,25.14301530542585,41.57781736992807,33.06843155716389,45.37641027514537,25.14301530542585,41.57781736992807,0,0,0,0,33,33,33,33,33,3.1622776601683795,6.324555320336759,8.366600265340756,10
9,12,0.04066530003910884,q,27.2,Limited Time - 800ms,e,27.17219057469163,34.54646183273063,42.07481703050829,25.165032784515404,34.54646183273063,27.17219057469163,42.07481703050829,25.165032784515404,0,0,0,0,33,33,33,33,33,3.1622776601683795,6.324555320336759,8.366600265340756,10
9,13,0.08189580001635477,q,39.2,Limited Time - 800ms,e,39.244826379171116,34.61270252186678,44.38071423871679,33.469959867427775,34.61270252186678,39.244826379171116,44.38071423871679,33.469959867427775,0,0,0,0,33,33,33,33,33,3.1622776601683795,6.324555320336759,8.366600265340756,10
9,14,0.23292670003138483,q,28.9,Limited Time - 800ms,e,28.913756411037124,34.23925015952522,20.160964967964695,38.45653545348186,34.23925015952522,28.913756411037124,20.160964967964695,38.45653545348186,0,0,0,0,33,33,33,33,33,3.1622776601683795,6.324555320336759,8.366600265340756,10
9,15,0.3471295000053942,q,38.4,Limited Time - 800ms,e,38.3720404145997,34.721794154430484,18.48278203597684,29.043652781310694,34.721794154430484,38.3720404145997,18.48278203597684,29.043652781310694,0,0,0,0,33,33,33,33,33,3.1622776601683795,6.324555320336759,8.366600265340756,10
9,16,0.2245217000017874,o,34.2,Limited Time - 800ms,e,33.34737615801919,32.41279237716232,34.157088679555685,36.22689852019036,32.41279237716232,33.34737615801919,34.157088679555685,36.22689852019036,0,0,0,0,33,33,33,33,33,3.1622776601683795,6.324555320336759,8.366600265340756,10
9,17,0.051344299979973584,o,44.3,Limited Time - 800ms,e,34.54508482718542,39.53907370205646,44.348686809892754,34.30484225420755,39.53907370205646,34.54508482718542,44.348686809892754,34.30484225420755,0,0,0,0,33,33,33,33,33,3.1622776601683795,6.324555320336759,8.366600265340756,10
9,18,0.3494070000015199,o,35.2,Limited Time - 800ms,e,36.938888281851284,31.407009461715948,35.177789596709566,50.16431057450039,31.407009461715948,36.938888281851284,35.177789596709566,50.16431057450039,0,0,0,0,33,33,33,33,33,3.1622776601683795,6.324555320336759,8.366600265340756,10
9,19,0.4262851999956183,o,35.7,Limited Time - 800ms,e,34.43780400395029,32.308577246591106,35.65333045942923,25.547965257976735,32.308577246591106,34.43780400395029,35.65333045942923,25.547965257976735,0,0,0,0,33,33,33,33,33,3.1622776601683795,6.324555320336759,8.366600265340756,10
9,20,0.4326545000076294,o,27.2,Limited Time - 800ms,e,21.951547728485455,33.637290150544416,27.23223943110421,29.97469797111099,33.637290150544416,21.951547728485455,27.23223943110421,29.97469797111099,0,0,0,0,33,33,33,33,33,3.1622776601683795,6.324555320336759,8.366600265340756,10
10,1,0.11527599999681115,w,54.3,Unlimited Time,e,32.259263315570195,54.26262685828812,29.347642573560453,33.30849838670675,29.347642573560453,33.30849838670675,32.259263315570195,54.26262685828812,0,0,0,0,33,33,33,33,33,3.1622776601683795,6.324555320336759,8.366600265340756,10
10,2,0.31361509999260306,w,14.2,Unlimited Time,e,32.38071701892563,14.15291899892117,32.27678875747769,26.21705040476434,32.27678875747769,26.21705040476434,32.38071701892563,14.15291899892117,0,0,0,0,33,33,33,33,33,3.1622776601683795,6.324555320336759,8.366600265340756,10
10,3,0.7809731000452302,w,45.1,Unlimited Time,e,30.74276700138505,45.11727999525276,26.741003667807117,25.51859934353679,26.741003667807117,25.51859934353679,30.74276700138505,45.11727999525276,0,0,0,0,33,33,33,33,33,3.1622776601683795,6.324555320336759,8.366600265340756,10
10,4,0.6587620000354946,w,32.1,Unlimited Time,e,53.90182910318414,32.13498445141858,33.48608373774766,24.256392524130398,33.48608373774766,24.256392524130398,53.90182910318414,32.13498445141858,0,0,0,0,33,33,33,33,33,3.1622776601683795,6.324555320336759,8.366600265340756,10
10,5,0.5796213999856263,w,32.1,Unlimited Time,e,35.72940753991938,32.13094073574106,37.72125266721063,28.54227719618623,37.72125266721063,28.54227719618623,35.72940753991938,32.13094073574106,0,0,0,0,33,33,33,33,33,3.1622776601683795,6.324555320336759,8.366600265340756,10
10,6,0.8419766000006348,o,30.6,Unlimited Time,e,35.70959145943931,16.28782450733337,30.561630991310743,32.25444944532332,30.561630991310743,32.25444944532332,35.70959145943931,16.28782450733337,0,0,0,0,33,33,33,33,33,3.1622776601683795,6.324555320336759,8.366600265340756,10
10,7,0.37100179999833927,o,26.1,Unlimited Time,e,42.87851828057842,43.209638176183994,26.082561066200242,43.29189233364259,26.082561066200242,43.29189233364259,42.87851828057842,43.209638176183994,0,0,0,0,33,33,33,33,33,3.1622776601683795,6.324555320336759,8.366600265340756,10
10,8,0.337569999974221,p,40.9,Unlimited Time,e,35.40814455900847,25.612924398171117,29.394080401128168,40.87582497578655,29.394080401128168,40.87582497578655,35.40814455900847,25.612924398171117,0,0,0,0,33,33,33,33,33,3.1622776601683795,6.324555320336759,8.366600265340756,10
10,9,0.3478455999866128,p,31.4,Unlimited Time,e,44.43027293390878,38.170722216401174,37.17651457061099,31.42423306533172,37.17651457061099,31.42423306533172,44.43027293390878,38.170722216401174,0,0,0,0,33,33,33,33,33,3.1622776601683795,6.324555320336759,8.366600265340756,10
10,10,0.8588343999581411,p,24.8,Unlimited Time,e,41.68010299379145,29.171898249753003,33.574606322262916,24.811152923487462,33.574606322262916,24.811152923487462,41.68010299379145,29.171898249753003,0,0,0,0,33,33,33,33,33,3.1622776601683795,6.324555320336759,8.366600265340756,10
10,11,0.3142842000233941,p,45.4,Unlimited Time,e,25.14301530542585,41.57781736992807,33.06843155716389,45.37641027514537,33.06843155716389,45.37641027514537,25.14301530542585,41.57781736992807,0,0,0,0,33,33,33,33,33,3.1622776601683795,6.324555320336759,8.366600265340756,10
10,12,1.0432035999838263,p,27.2,Unlimited Time,e,42.07481703050829,25.165032784515404,34.54646183273063,27.17219057469163,34.54646183273063,27.17219057469163,42.07481703050829,25.165032784515404,0,0,0,0,33,33,33,33,33,3.1622776601683795,6.324555320336759,8.366600265340756,10
10,13,0.32942019996698946,p,39.2,Unlimited Time,e,44.38071423871679,33.469959867427775,34.61270252186678,39.244826379171116,34.61270252186678,39.244826379171116,44.38071423871679,33.469959867427775,0,0,0,0,33,33,33,33,33,3.1622776601683795,6.324555320336759,8.366600265340756,10
10,14,0.10108930000569671,p,28.9,Unlimited Time,e,20.160964967964695,38.45653545348186,34.23925015952522,28.913756411037124,34.23925015952522,28.913756411037124,20.160964967964695,38.45653545348186,0,0,0,0,33,33,33,33,33,3.1622776601683795,6.324555320336759,8.366600265340756,10
10,15,0.5083966000238433,p,38.4,Unlimited Time,e,18.48278203597684,29.043652781310694,34.721794154430484,38.3720404145997,34.721794154430484,38.3720404145997,18.48278203597684,29.043652781310694,0,0,0,0,33,33,33,33,33,3.1622776601683795,6.324555320336759,8.366600265340756,10
10,16,0.36274569999659434,p,33.3,Unlimited Time,e,34.157088679555685,36.22689852019036,32.41279237716232,33.34737615801919,32.41279237716232,33.34737615801919,34.157088679555685,36.22689852019036,0,0,0,0,33,33,33,33,33,3.1622776601683795,6.324555320336759,8.366600265340756,10
10,17,0.42385170003399253,p,34.5,Unlimited Time,e,44.348686809892754,34.30484225420755,39.53907370205646,34.54508482718542,39.53907370205646,34.54508482718542,44.348686809892754,34.30484225420755,0,0,0,0,33,33,33,33,33,3.1622776601683795,6.324555320336759,8.366600265340756,10
10,18,0.3542092000134289,p,36.9,Unlimited Time,e,35.177789596709566,50.16431057450039,31.407009461715948,36.938888281851284,31.407009461715948,36.938888281851284,35.177789596709566,50.16431057450039,0,0,0,0,33,33,33,33,33,3.1622776601683795,6.324555320336759,8.366600265340756,10
10,19,0.32429349998710677,o,32.3,Unlimited Time,e,35.65333045942923,25.547965257976735,32.308577246591106,34.43780400395029,32.308577246591106,34.43780400395029,35.65333045942923,25.547965257976735,0,0,0,0,33,33,33,33,33,3.1622776601683795,6.324555320336759,8.366600265340756,10
10,20,0.21702099998947233,p,22.0,Unlimited Time,e,27.23223943110421,29.97469797111099,33.637290150544416,21.951547728485455,33.637290150544416,21.951547728485455,27.23223943110421,29.97469797111099,0,0,0,0,33,33,33,33,33,3.1622776601683795,6.324555320336759,8.366600265340756,10
11,1,0.2924418000038713,q,54.3,Limited Time - 400ms,e,54.26262685828812,33.30849838670675,29.347642573560453,32.259263315570195,29.347642573560453,33.30849838670675,32.259263315570195,54.26262685828812,0,0,0,0,33,33,33,33,33,3.1622776601683795,6.324555320336759,8.366600265340756,10
11,2,,,0.0,Limited Time - 400ms,e,14.15291899892117,26.21705040476434,32.27678875747769,32.38071701892563,32.27678875747769,26.21705040476434,32.38071701892563,14.15291899892117,0,0,0,0,33,33,33,33,33,3.1622776601683795,6.324555320336759,8.366600265340756,10
11,3,0.2532333999988623,q,45.1,Limited Time - 400ms,e,45.11727999525276,25.51859934353679,26.741003667807117,30.74276700138505,26.741003667807117,25.51859934353679,30.74276700138505,45.11727999525276,0,0,0,0,33,33,33,33,33,3.1622776601683795,6.324555320336759,8.366600265340756,10
11,4,0.22339880000799894,q,32.1,Limited Time - 400ms,e,32.13498445141858,24.256392524130398,33.48608373774766,53.90182910318414,33.48608373774766,24.256392524130398,53.90182910318414,32.13498445141858,0,0,0,0,33,33,33,33,33,3.1622776601683795,6.324555320336759,8.366600265340756,10
11,5,0.1983163999975659,q,32.1,Limited Time - 400ms,e,32.13094073574106,28.54227719618623,37.72125266721063,35.72940753991938,37.72125266721063,28.54227719618623,35.72940753991938,32.13094073574106,0,0,0,0,33,33,33,33,33,3.1622776601683795,6.324555320336759,8.366600265340756,10
11,6,0.031504200014751405,q,16.3,Limited Time - 400ms,e,16.28782450733337,32.25444944532332,30.561630991310743,35.70959145943931,30.561630991310743,32.25444944532332,35.70959145943931,16.28782450733337,0,0,0,0,33,33,33,33,33,3.1622776601683795,6.324555320336759,8.366600265340756,10
11,7,0.042746299994178116,q,43.2,Limited Time - 400ms,e,43.209638176183994,43.29189233364259,26.082561066200242,42.87851828057842,26.082561066200242,43.29189233364259,42.87851828057842,43.209638176183994,0,0,0,0,33,33,33,33,33,3.1622776601683795,6.324555320336759,8.366600265340756,10
11,8,0.05795619997661561,q,25.6,Limited Time - 400ms,e,25.612924398171117,40.87582497578655,29.394080401128168,35.40814455900847,29.394080401128168,40.87582497578655,35.40814455900847,25.612924398171117,0,0,0,0,33,33,33,33,33,3.1622776601683795,6.324555320336759,8.366600265340756,10
11,9,0.019926799985114485,q,38.2,Limited Time - 400ms,e,38.170722216401174,31.42423306533172,37.17651457061099,44.43027293390878,37.17651457061099,31.42423306533172,44.43027293390878,38.170722216401174,0,0,0,0,33,33,33,33,33,3.1622776601683795,6.324555320336759,8.366600265340756,10
11,10,0.05897110002115369,q,29.2,Limited Time - 400ms,e,29.171898249753003,24.811152923487462,33.574606322262916,41.68010299379145,33.574606322262916,24.811152923487462,41.68010299379145,29.171898249753003,0,0,0,0,33,33,33,33,33,3.1622776601683795,6.324555320336759,8.366600265340756,10
11,11,0.2667379999766126,q,41.6,Limited Time - 400ms,e,41.57781736992807,45.37641027514537,33.06843155716389,25.14301530542585,33.06843155716389,45.37641027514537,25.14301530542585,41.57781736992807,0,0,0,0,33,33,33,33,33,3.1622776601683795,6.324555320336759,8.366600265340756,10
11,12,0.24721130001125857,p,42.1,Limited Time - 400ms,e,25.165032784515404,27.17219057469163,34.54646183273063,42.07481703050829,34.54646183273063,27.17219057469163,42.07481703050829,25.165032784515404,0,0,0,0,33,33,33,33,33,3.1622776601683795,6.324555320336759,8.366600265340756,10
11,13,,,0.0,Limited Time - 400ms,e,33.469959867427775,39.244826379171116,34.61270252186678,44.38071423871679,34.61270252186678,39.244826379171116,44.38071423871679,33.469959867427775,0,0,0,0,33,33,33,33,33,3.1622776601683795,6.324555320336759,8.366600265340756,10
11,14,,,0.0,Limited Time - 400ms,e,38.45653545348186,28.913756411037124,34.23925015952522,20.160964967964695,34.23925015952522,28.913756411037124,20.160964967964695,38.45653545348186,0,0,0,0,33,33,33,33,33,3.1622776601683795,6.324555320336759,8.366600265340756,10
11,15,0.21384380001109093,p,18.5,Limited Time - 400ms,e,29.043652781310694,38.3720404145997,34.721794154430484,18.48278203597684,34.721794154430484,38.3720404145997,18.48278203597684,29.043652781310694,0,0,0,0,33,33,33,33,33,3.1622776601683795,6.324555320336759,8.366600265340756,10
11,16,0.22873089998029172,o,32.4,Limited Time - 400ms,e,36.22689852019036,33.34737615801919,32.41279237716232,34.157088679555685,32.41279237716232,33.34737615801919,34.157088679555685,36.22689852019036,0,0,0,0,33,33,33,33,33,3.1622776601683795,6.324555320336759,8.366600265340756,10
11,17,0.15692360000684857,o,39.5,Limited Time - 400ms,e,34.30484225420755,34.54508482718542,39.53907370205646,44.348686809892754,39.53907370205646,34.54508482718542,44.348686809892754,34.30484225420755,0,0,0,0,33,33,33,33,33,3.1622776601683795,6.324555320336759,8.366600265340756,10
11,18,0.17844350001541898,o,31.4,Limited Time - 400ms,e,50.16431057450039,36.938888281851284,31.407009461715948,35.177789596709566,31.407009461715948,36.938888281851284,35.177789596709566,50.16431057450039,0,0,0,0,33,33,33,33,33,3.1622776601683795,6.324555320336759,8.366600265340756,10
11,19,0.23339029995258898,o,32.3,Limited Time - 400ms,e,25.547965257976735,34.43780400395029,32.308577246591106,35.65333045942923,32.308577246591106,34.43780400395029,35.65333045942923,25.547965257976735,0,0,0,0,33,33,33,33,33,3.1622776601683795,6.324555320336759,8.366600265340756,10
11,20,0.1809518999652937,o,33.6,Limited Time - 400ms,e,29.97469797111099,21.951547728485455,33.637290150544416,27.23223943110421,33.637290150544416,21.951547728485455,27.23223943110421,29.97469797111099,0,0,0,0,33,33,33,33,33,3.1622776601683795,6.324555320336759,8.366600265340756,10
12,1,0.35936629999196157,q,29.3,Limited Time - 800ms,e,29.347642573560453,33.30849838670675,32.259263315570195,54.26262685828812,29.347642573560453,33.30849838670675,32.259263315570195,54.26262685828812,0,0,0,0,33,33,33,33,33,3.1622776601683795,6.324555320336759,8.366600265340756,10
12,2,0.025003799994010478,o,32.4,Limited Time - 800ms,e,32.27678875747769,26.21705040476434,32.38071701892563,14.15291899892117,32.27678875747769,26.21705040476434,32.38071701892563,14.15291899892117,0,0,0,0,33,33,33,33,33,3.1622776601683795,6.324555320336759,8.366600265340756,10
12,3,0.19883269997080788,q,26.7,Limited Time - 800ms,e,26.741003667807117,25.51859934353679,30.74276700138505,45.11727999525276,26.741003667807117,25.51859934353679,30.74276700138505,45.11727999525276,0,0,0,0,33,33,33,33,33,3.1622776601683795,6.324555320336759,8.366600265340756,10
12,4,0.03462470002705231,o,53.9,Limited Time - 800ms,e,33.48608373774766,24.256392524130398,53.90182910318414,32.13498445141858,33.48608373774766,24.256392524130398,53.90182910318414,32.13498445141858,0,0,0,0,33,33,33,33,33,3.1622776601683795,6.324555320336759,8.366600265340756,10
12,5,0.019015699974261224,q,37.7,Limited Time - 800ms,e,37.72125266721063,28.54227719618623,35.72940753991938,32.13094073574106,37.72125266721063,28.54227719618623,35.72940753991938,32.13094073574106,0,0,0,0,33,33,33,33,33,3.1622776601683795,6.324555320336759,8.366600265340756,10
12,6,0.06774460000451654,o,35.7,Limited Time - 800ms,e,30.561630991310743,32.25444944532332,35.70959145943931,16.28782450733337,30.561630991310743,32.25444944532332,35.70959145943931,16.28782450733337,0,0,0,0,33,33,33,33,33,3.1622776601683795,6.324555320336759,8.366600265340756,10
12,7,0.1764780000085011,q,26.1,Limited Time - 800ms,e,26.082561066200242,43.29189233364259,42.87851828057842,43.209638176183994,26.082561066200242,43.29189233364259,42.87851828057842,43.209638176183994,0,0,0,0,33,33,33,33,33,3.1622776601683795,6.324555320336759,8.366600265340756,10
12,8,0.25509720004629344,o,35.4,Limited Time - 800ms,e,29.394080401128168,40.87582497578655,35.40814455900847,25.612924398171117,29.394080401128168,40.87582497578655,35.40814455900847,25.612924398171117,0,0,0,0,33,33,33,33,33,3.1622776601683795,6.324555320336759,8.366600265340756,10
12,9,0.12023749999934807,o,44.4,Limited Time - 800ms,e,37.17651457061099,31.42423306533172,44.43027293390878,38.170722216401174,37.17651457061099,31.42423306533172,44.43027293390878,38.170722216401174,0,0,0,0,33,33,33,33,33,3.1622776601683795,6.324555320336759,8.366600265340756,10
12,10,0.14306140004191548,o,41.7,Limited Time - 800ms,e,33.574606322262916,24.811152923487462,41.68010299379145,29.171898249753003,33.574606322262916,24.811152923487462,41.68010299379145,29.171898249753003,0,0,0,0,33,33,33,33,33,3.1622776601683795,6.324555320336759,8.366600265340756,10
12,11,0.09568279999075457,o,25.1,Limited Time - 800ms,e,33.06843155716389,45.37641027514537,25.14301530542585,41.57781736992807,33.06843155716389,45.37641027514537,25.14301530542585,41.57781736992807,0,0,0,0,33,33,33,33,33,3.1622776601683795,6.324555320336759,8.366600265340756,10
12,12,0.6529703999985941,q,34.5,Limited Time - 800ms,e,34.54646183273063,27.17219057469163,42.07481703050829,25.165032784515404,34.54646183273063,27.17219057469163,42.07481703050829,25.165032784515404,0,0,0,0,33,33,33,33,33,3.1622776601683795,6.324555320336759,8.366600265340756,10
12,13,0.07888839999213815,o,44.4,Limited Time - 800ms,e,34.61270252186678,39.244826379171116,44.38071423871679,33.469959867427775,34.61270252186678,39.244826379171116,44.38071423871679,33.469959867427775,0,0,0,0,33,33,33,33,33,3.1622776601683795,6.324555320336759,8.366600265340756,10
12,14,0.09301910002250224,o,20.2,Limited Time - 800ms,e,34.23925015952522,28.913756411037124,20.160964967964695,38.45653545348186,34.23925015952522,28.913756411037124,20.160964967964695,38.45653545348186,0,0,0,0,33,33,33,33,33,3.1622776601683795,6.324555320336759,8.366600265340756,10
12,15,0.03793900000164285,o,18.5,Limited Time - 800ms,e,34.721794154430484,38.3720404145997,18.48278203597684,29.043652781310694,34.721794154430484,38.3720404145997,18.48278203597684,29.043652781310694,0,0,0,0,33,33,33,33,33,3.1622776601683795,6.324555320336759,8.366600265340756,10
12,16,0.6009616999654099,o,34.2,Limited Time - 800ms,e,32.41279237716232,33.34737615801919,34.157088679555685,36.22689852019036,32.41279237716232,33.34737615801919,34.157088679555685,36.22689852019036,0,0,0,0,33,33,33,33,33,3.1622776601683795,6.324555320336759,8.366600265340756,10
12,17,0.0715830999542959,o,44.3,Limited Time - 800ms,e,39.53907370205646,34.54508482718542,44.348686809892754,34.30484225420755,39.53907370205646,34.54508482718542,44.348686809892754,34.30484225420755,0,0,0,0,33,33,33,33,33,3.1622776601683795,6.324555320336759,8.366600265340756,10
12,18,0.23486309999134392,p,50.2,Limited Time - 800ms,e,31.407009461715948,36.938888281851284,35.177789596709566,50.16431057450039,31.407009461715948,36.938888281851284,35.177789596709566,50.16431057450039,0,0,0,0,33,33,33,33,33,3.1622776601683795,6.324555320336759,8.366600265340756,10
12,19,0.09604960004799068,p,25.5,Limited Time - 800ms,e,32.308577246591106,34.43780400395029,35.65333045942923,25.547965257976735,32.308577246591106,34.43780400395029,35.65333045942923,25.547965257976735,0,0,0,0,33,33,33,33,33,3.1622776601683795,6.324555320336759,8.366600265340756,10
12,20,0.07138069998472929,p,30.0,Limited Time - 800ms,e,33.637290150544416,21.951547728485455,27.23223943110421,29.97469797111099,33.637290150544416,21.951547728485455,27.23223943110421,29.97469797111099,0,0,0,0,33,33,33,33,33,3.1622776601683795,6.324555320336759,8.366600265340756,10
13,1,0.5504331000265665,o,30.7,Unlimited Time,l,44.51651757576866,25.628784107618912,30.661060329312974,29.624746598317373,25.628784107618912,29.624746598317373,30.661060329312974,44.51651757576866,-10,-0.33,0.33,10,33,23,32.67,33.33,43,3.1622776601683795,3.1622776601683795,3.1622776601683795,3.1622776601683795
13,2,0.6041218999889679,p,33.4,Unlimited Time,l,37.12686561072045,24.227743836961515,30.157436073794933,33.362467473106356,24.227743836961515,33.362467473106356,30.157436073794933,37.12686561072045,-10,-0.33,0.33,10,33,23,32.67,33.33,43,3.1622776601683795,3.1622776601683795,3.1622776601683795,3.1622776601683795
13,3,0.014769800007343292,p,30.4,Unlimited Time,l,45.02932947804225,22.314830647936848,33.67470280632278,30.351510931071257,22.314830647936848,30.351510931071257,33.67470280632278,45.02932947804225,-10,-0.33,0.33,10,33,23,32.67,33.33,43,3.1622776601683795,3.1622776601683795,3.1622776601683795,3.1622776601683795
13,4,0.34234219999052584,p,28.1,Unlimited Time,l,45.766120056095446,25.753638730798365,32.61307376579906,28.072733235542646,25.753638730798365,28.072733235542646,32.61307376579906,45.766120056095446,-10,-0.33,0.33,10,33,23,32.67,33.33,43,3.1622776601683795,3.1622776601683795,3.1622776601683795,3.1622776601683795
13,5,0.3750237000058405,p,33.2,Unlimited Time,l,43.02148216284696,22.306889448799776,34.93553387365878,33.24185712944505,22.306889448799776,33.24185712944505,34.93553387365878,43.02148216284696,-10,-0.33,0.33,10,33,23,32.67,33.33,43,3.1622776601683795,3.1622776601683795,3.1622776601683795,3.1622776601683795
13,6,0.5018695999751799,p,33.2,Unlimited Time,l,43.822164712823025,20.185006402619923,36.103663741151756,33.24216405356294,20.185006402619923,33.24216405356294,36.103663741151756,43.822164712823025,-10,-0.33,0.33,10,33,23,32.67,33.33,43,3.1622776601683795,3.1622776601683795,3.1622776601683795,3.1622776601683795
13,7,0.341479399939999,p,37.0,Unlimited Time,l,38.657839897585575,21.587541455261768,35.19361580506416,37.04231283552655,21.587541455261768,37.04231283552655,35.19361580506416,38.657839897585575,-10,-0.33,0.33,10,33,23,32.67,33.33,43,3.1622776601683795,3.1622776601683795,3.1622776601683795,3.1622776601683795
13,8,0.17102349997730926,p,34.5,Unlimited Time,l,43.66918181390832,18.902844686529072,31.426006941205124,34.51042457371359,18.902844686529072,34.51042457371359,31.426006941205124,43.66918181390832,-10,-0.33,0.33,10,33,23,32.67,33.33,43,3.1622776601683795,3.1622776601683795,3.1622776601683795,3.1622776601683795
13,9,0.3672050999593921,p,35.6,Unlimited Time,l,40.700248941477824,21.17881791332348,29.403224409902176,35.558823221402044,21.17881791332348,35.558823221402044,29.403224409902176,40.700248941477824,-10,-0.33,0.33,10,33,23,32.67,33.33,43,3.1622776601683795,3.1622776601683795,3.1622776601683795,3.1622776601683795
13,10,0.08280169998761266,p,34.7,Unlimited Time,l,43.05328830720761,27.913181799673296,34.96873541379661,34.68615463903532,27.913181799673296,34.68615463903532,34.96873541379661,43.05328830720761,-10,-0.33,0.33,10,33,23,32.67,33.33,43,3.1622776601683795,3.1622776601683795,3.1622776601683795,3.1622776601683795
13,11,0.596495799953118,p,35.7,Unlimited Time,l,41.809591915733584,17.417059255906132,35.75512762404608,35.663319618178896,17.417059255906132,35.663319618178896,35.75512762404608,41.809591915733584,-10,-0.33,0.33,10,33,23,32.67,33.33,43,3.1622776601683795,3.1622776601683795,3.1622776601683795,3.1622776601683795
13,12,0.31444460002239794,p,34.2,Unlimited Time,l,49.459494722926195,15.840376674754491,35.12399397886617,34.24744480707876,15.840376674754491,34.24744480707876,35.12399397886617,49.459494722926195,-10,-0.33,0.33,10,33,23,32.67,33.33,43,3.1622776601683795,3.1622776601683795,3.1622776601683795,3.1622776601683795
13,13,0.26754069997696206,p,32.8,Unlimited Time,l,46.84756175318661,26.195093054338074,36.158889308047414,32.79398596272695,26.195093054338074,32.79398596272695,36.158889308047414,46.84756175318661,-10,-0.33,0.33,10,33,23,32.67,33.33,43,3.1622776601683795,3.1622776601683795,3.1622776601683795,3.1622776601683795
13,14,0.2801481999922544,p,31.3,Unlimited Time,l,41.247099517624434,22.9250542603102,35.313891456065974,31.30838046812616,22.9250542603102,31.30838046812616,35.313891456065974,41.247099517624434,-10,-0.33,0.33,10,33,23,32.67,33.33,43,3.1622776601683795,3.1622776601683795,3.1622776601683795,3.1622776601683795
13,15,1.3628996000043117,w,26.8,Unlimited Time,l,39.29646975895089,26.785683132990094,29.9346248391048,35.87408651765292,26.785683132990094,35.87408651765292,29.9346248391048,39.29646975895089,-10,-0.33,0.33,10,33,23,32.67,33.33,43,3.1622776601683795,3.1622776601683795,3.1622776601683795,3.1622776601683795
13,16,0.5049057999858633,w,19.4,Unlimited Time,l,41.86603703433378,19.431431166143753,33.161698093800354,32.208037666836965,19.431431166143753,32.208037666836965,33.161698093800354,41.86603703433378,-10,-0.33,0.33,10,33,23,32.67,33.33,43,3.1622776601683795,3.1622776601683795,3.1622776601683795,3.1622776601683795
13,17,0.6392441999632865,q,44.8,Unlimited Time,l,44.836474053352084,20.971789871952765,33.19793755482191,34.64901997118578,20.971789871952765,34.64901997118578,33.19793755482191,44.836474053352084,-10,-0.33,0.33,10,33,23,32.67,33.33,43,3.1622776601683795,3.1622776601683795,3.1622776601683795,3.1622776601683795
13,18,0.36374820000492036,q,40.5,Unlimited Time,l,40.461252188474965,22.840414862685922,34.68539856046115,38.87727774439802,22.840414862685922,38.87727774439802,34.68539856046115,40.461252188474965,-10,-0.33,0.33,10,33,23,32.67,33.33,43,3.1622776601683795,3.1622776601683795,3.1622776601683795,3.1622776601683795
13,19,0.5302067000302486,q,41.4,Unlimited Time,l,41.37790719287037,24.817933056880957,35.99259099832552,30.39679140021478,24.817933056880957,30.39679140021478,35.99259099832552,41.37790719287037,-10,-0.33,0.33,10,33,23,32.67,33.33,43,3.1622776601683795,3.1622776601683795,3.1622776601683795,3.1622776601683795
13,20,0.7808530999463983,p,33.2,Unlimited Time,l,44.54159406239472,19.106079704504022,38.73128904563992,33.20609488342599,19.106079704504022,33.20609488342599,38.73128904563992,44.54159406239472,-10,-0.33,0.33,10,33,23,32.67,33.33,43,3.1622776601683795,3.1622776601683795,3.1622776601683795,3.1622776601683795
14,1,,,0.0,Limited Time - 400ms,h,10.835387532640976,29.1947513094647,22.730454018884135,40.51939873590259,10.835387532640976,22.730454018884135,29.1947513094647,40.51939873590259,-10,-0.33,0.33,10,33,23,32.67,33.33,43,10,10,10,10
14,2,0.2459600000292994,p,39.5,Limited Time - 400ms,h,26.684569874651526,32.863703290569866,22.814992805575905,39.53207724390195,26.684569874651526,22.814992805575905,32.863703290569866,39.53207724390195,-10,-0.33,0.33,10,33,23,32.67,33.33,43,10,10,10,10
14,3,0.1473376000067219,p,32.8,Limited Time - 400ms,h,14.763863072470135,36.38874214715845,42.079245952713705,32.82367432646026,14.763863072470135,42.079245952713705,36.38874214715845,32.82367432646026,-10,-0.33,0.33,10,33,23,32.67,33.33,43,10,10,10,10
14,4,0.14081450004596263,p,36.2,Limited Time - 400ms,h,34.594323493644474,49.97571016277814,32.41122862244218,36.22276518252828,34.594323493644474,32.41122862244218,49.97571016277814,36.22276518252828,-10,-0.33,0.33,10,33,23,32.67,33.33,43,10,10,10,10
14,5,0.07188209996093065,p,38.0,Limited Time - 400ms,h,29.3645543992169,33.69855057023661,26.252497235593438,38.000915134785465,29.3645543992169,26.252497235593438,33.69855057023661,38.000915134785465,-10,-0.33,0.33,10,33,23,32.67,33.33,43,10,10,10,10
14,6,0.22734129999298602,o,21.0,Limited Time - 400ms,h,44.61971744211243,15.990466579681911,21.014356336958773,42.868768217411954,44.61971744211243,21.014356336958773,15.990466579681911,42.868768217411954,-10,-0.33,0.33,10,33,23,32.67,33.33,43,10,10,10,10
14,7,0.1458942000172101,o,30.4,Limited Time - 400ms,h,45.51681150634723,31.00777289635912,30.38928350457803,52.12512654640364,45.51681150634723,30.38928350457803,31.00777289635912,52.12512654640364,-10,-0.33,0.33,10,33,23,32.67,33.33,43,10,10,10,10
14,8,0.16967380000278354,o,42.0,Limited Time - 400ms,h,29.223629306052064,43.127588023577715,41.9533249229772,56.418760117190004,29.223629306052064,41.9533249229772,43.127588023577715,56.418760117190004,-10,-0.33,0.33,10,33,23,32.67,33.33,43,10,10,10,10
14,9,0.15964979998534545,o,39.0,Limited Time - 400ms,h,29.050069683967656,24.966768192574282,38.96369102956068,42.219723202306376,29.050069683967656,38.96369102956068,24.966768192574282,42.219723202306376,-10,-0.33,0.33,10,33,23,32.67,33.33,43,10,10,10,10
14,10,0.12705100001767278,o,41.2,Limited Time - 400ms,h,33.272554573382465,35.92028154204594,41.24806296253814,46.31485634833349,33.272554573382465,41.24806296253814,35.92028154204594,46.31485634833349,-10,-0.33,0.33,10,33,23,32.67,33.33,43,10,10,10,10
14,11,0.16486020002048463,p,43.3,Limited Time - 400ms,h,32.03177757864751,35.18200079604253,24.674587981534305,43.288915160308115,32.03177757864751,24.674587981534305,35.18200079604253,43.288915160308115,-10,-0.33,0.33,10,33,23,32.67,33.33,43,10,10,10,10
14,12,0.1366050000069663,p,49.9,Limited Time - 400ms,h,18.19854687188854,40.90780735244309,35.445371556017996,49.85378955305051,18.19854687188854,35.445371556017996,40.90780735244309,49.85378955305051,-10,-0.33,0.33,10,33,23,32.67,33.33,43,10,10,10,10
14,13,0.11153649998595938,p,48.0,Limited Time - 400ms,h,20.86026703324235,28.29220568689371,42.913880672503936,47.99765333556618,20.86026703324235,42.913880672503936,28.29220568689371,47.99765333556618,-10,-0.33,0.33,10,33,23,32.67,33.33,43,10,10,10,10
14,14,0.14789040002506226,p,35.0,Limited Time - 400ms,h,29.893321251293322,39.007570292241816,34.60329270639891,34.96011506054899,29.893321251293322,34.60329270639891,39.007570292241816,34.96011506054899,-10,-0.33,0.33,10,33,23,32.67,33.33,43,10,10,10,10
14,15,0.07216179999522865,p,42.4,Limited Time - 400ms,h,24.305520942658056,37.16456374552209,39.75914365051297,42.39572927263379,24.305520942658056,39.75914365051297,37.16456374552209,42.39572927263379,-10,-0.33,0.33,10,33,23,32.67,33.33,43,10,10,10,10
14,16,0.09532010002294555,p,45.1,Limited Time - 400ms,h,22.589122318135967,15.458974649344949,41.01226613097259,45.14700957058515,22.589122318135967,41.01226613097259,15.458974649344949,45.14700957058515,-10,-0.33,0.33,10,33,23,32.67,33.33,43,10,10,10,10
14,17,0.17395179998129606,p,54.7,Limited Time - 400ms,h,27.89592243157423,47.81698324794731,41.77538539852161,54.67396535562835,27.89592243157423,41.77538539852161,47.81698324794731,54.67396535562835,-10,-0.33,0.33,10,33,23,32.67,33.33,43,10,10,10,10
14,18,0.18235150002874434,p,55.6,Limited Time - 400ms,h,39.142557315571196,47.02253891438387,26.993047291528214,55.56480077963315,39.142557315571196,26.993047291528214,47.02253891438387,55.56480077963315,-10,-0.33,0.33,10,33,23,32.67,33.33,43,10,10,10,10
14,19,0.14893870003288612,p,52.7,Limited Time - 400ms,h,18.633924280807815,16.241695219394636,34.62364921216388,52.74367076573736,18.633924280807815,34.62364921216388,16.241695219394636,52.74367076573736,-10,-0.33,0.33,10,33,23,32.67,33.33,43,10,10,10,10
14,20,0.17080600000917912,p,47.7,Limited Time - 400ms,h,24.298435930173117,35.35935277902411,26.295880194891772,47.66275440588663,24.298435930173117,26.295880194891772,35.35935277902411,47.66275440588663,-10,-0.33,0.33,10,33,23,32.67,33.33,43,10,10,10,10
15,1,0.2985035000019707,q,25.6,Limited Time - 800ms,l,25.628784107618912,44.51651757576866,29.624746598317373,30.661060329312974,25.628784107618912,29.624746598317373,30.661060329312974,44.51651757576866,-10,-0.33,0.33,10,33,23,32.67,33.33,43,3.1622776601683795,3.1622776601683795,3.1622776601683795,3.1622776601683795
15,2,0.017159599985461682,o,33.4,Limited Time - 800ms,l,24.227743836961515,37.12686561072045,33.362467473106356,30.157436073794933,24.227743836961515,33.362467473106356,30.157436073794933,37.12686561072045,-10,-0.33,0.33,10,33,23,32.67,33.33,43,3.1622776601683795,3.1622776601683795,3.1622776601683795,3.1622776601683795
15,3,0.1795770000317134,o,30.4,Limited Time - 800ms,l,22.314830647936848,45.02932947804225,30.351510931071257,33.67470280632278,22.314830647936848,30.351510931071257,33.67470280632278,45.02932947804225,-10,-0.33,0.33,10,33,23,32.67,33.33,43,3.1622776601683795,3.1622776601683795,3.1622776601683795,3.1622776601683795
15,4,0.1840570999775082,o,28.1,Limited Time - 800ms,l,25.753638730798365,45.766120056095446,28.072733235542646,32.61307376579906,25.753638730798365,28.072733235542646,32.61307376579906,45.766120056095446,-10,-0.33,0.33,10,33,23,32.67,33.33,43,3.1622776601683795,3.1622776601683795,3.1622776601683795,3.1622776601683795
15,5,0.11517289996845648,p,34.9,Limited Time - 800ms,l,22.306889448799776,43.02148216284696,33.24185712944505,34.93553387365878,22.306889448799776,33.24185712944505,34.93553387365878,43.02148216284696,-10,-0.33,0.33,10,33,23,32.67,33.33,43,3.1622776601683795,3.1622776601683795,3.1622776601683795,3.1622776601683795
15,6,0.2138975000125356,p,36.1,Limited Time - 800ms,l,20.185006402619923,43.822164712823025,33.24216405356294,36.103663741151756,20.185006402619923,33.24216405356294,36.103663741151756,43.822164712823025,-10,-0.33,0.33,10,33,23,32.67,33.33,43,3.1622776601683795,3.1622776601683795,3.1622776601683795,3.1622776601683795
15,7,0.17061190004460514,p,35.2,Limited Time - 800ms,l,21.587541455261768,38.657839897585575,37.04231283552655,35.19361580506416,21.587541455261768,37.04231283552655,35.19361580506416,38.657839897585575,-10,-0.33,0.33,10,33,23,32.67,33.33,43,3.1622776601683795,3.1622776601683795,3.1622776601683795,3.1622776601683795
15,8,0.1551278000115417,p,31.4,Limited Time - 800ms,l,18.902844686529072,43.66918181390832,34.51042457371359,31.426006941205124,18.902844686529072,34.51042457371359,31.426006941205124,43.66918181390832,-10,-0.33,0.33,10,33,23,32.67,33.33,43,3.1622776601683795,3.1622776601683795,3.1622776601683795,3.1622776601683795
15,9,0.1827635999652557,p,29.4,Limited Time - 800ms,l,21.17881791332348,40.700248941477824,35.558823221402044,29.403224409902176,21.17881791332348,35.558823221402044,29.403224409902176,40.700248941477824,-10,-0.33,0.33,10,33,23,32.67,33.33,43,3.1622776601683795,3.1622776601683795,3.1622776601683795,3.1622776601683795
15,10,0.17924730002414435,p,35.0,Limited Time - 800ms,l,27.913181799673296,43.05328830720761,34.68615463903532,34.96873541379661,27.913181799673296,34.68615463903532,34.96873541379661,43.05328830720761,-10,-0.33,0.33,10,33,23,32.67,33.33,43,3.1622776601683795,3.1622776601683795,3.1622776601683795,3.1622776601683795
15,11,0.26388340000994503,p,35.8,Limited Time - 800ms,l,17.417059255906132,41.809591915733584,35.663319618178896,35.75512762404608,17.417059255906132,35.663319618178896,35.75512762404608,41.809591915733584,-10,-0.33,0.33,10,33,23,32.67,33.33,43,3.1622776601683795,3.1622776601683795,3.1622776601683795,3.1622776601683795
15,12,0.1934688999899663,p,35.1,Limited Time - 800ms,l,15.840376674754491,49.459494722926195,34.24744480707876,35.12399397886617,15.840376674754491,34.24744480707876,35.12399397886617,49.459494722926195,-10,-0.33,0.33,10,33,23,32.67,33.33,43,3.1622776601683795,3.1622776601683795,3.1622776601683795,3.1622776601683795
15,13,0.15708119998453185,o,32.8,Limited Time - 800ms,l,26.195093054338074,46.84756175318661,32.79398596272695,36.158889308047414,26.195093054338074,32.79398596272695,36.158889308047414,46.84756175318661,-10,-0.33,0.33,10,33,23,32.67,33.33,43,3.1622776601683795,3.1622776601683795,3.1622776601683795,3.1622776601683795
15,14,0.13484389998484403,o,31.3,Limited Time - 800ms,l,22.9250542603102,41.247099517624434,31.30838046812616,35.313891456065974,22.9250542603102,31.30838046812616,35.313891456065974,41.247099517624434,-10,-0.33,0.33,10,33,23,32.67,33.33,43,3.1622776601683795,3.1622776601683795,3.1622776601683795,3.1622776601683795
15,15,0.14075090002734214,p,29.9,Limited Time - 800ms,l,26.785683132990094,39.29646975895089,35.87408651765292,29.9346248391048,26.785683132990094,35.87408651765292,29.9346248391048,39.29646975895089,-10,-0.33,0.33,10,33,23,32.67,33.33,43,3.1622776601683795,3.1622776601683795,3.1622776601683795,3.1622776601683795
15,16,0.13981779996538535,p,33.2,Limited Time - 800ms,l,19.431431166143753,41.86603703433378,32.208037666836965,33.161698093800354,19.431431166143753,32.208037666836965,33.161698093800354,41.86603703433378,-10,-0.33,0.33,10,33,23,32.67,33.33,43,3.1622776601683795,3.1622776601683795,3.1622776601683795,3.1622776601683795
15,17,0.14955209998879582,p,33.2,Limited Time - 800ms,l,20.971789871952765,44.836474053352084,34.64901997118578,33.19793755482191,20.971789871952765,34.64901997118578,33.19793755482191,44.836474053352084,-10,-0.33,0.33,10,33,23,32.67,33.33,43,3.1622776601683795,3.1622776601683795,3.1622776601683795,3.1622776601683795
15,18,0.0017955999937839806,q,22.8,Limited Time - 800ms,l,22.840414862685922,40.461252188474965,38.87727774439802,34.68539856046115,22.840414862685922,38.87727774439802,34.68539856046115,40.461252188474965,-10,-0.33,0.33,10,33,23,32.67,33.33,43,3.1622776601683795,3.1622776601683795,3.1622776601683795,3.1622776601683795
15,19,0.016015700006391853,p,36.0,Limited Time - 800ms,l,24.817933056880957,41.37790719287037,30.39679140021478,35.99259099832552,24.817933056880957,30.39679140021478,35.99259099832552,41.37790719287037,-10,-0.33,0.33,10,33,23,32.67,33.33,43,3.1622776601683795,3.1622776601683795,3.1622776601683795,3.1622776601683795
15,20,0.11588890000712126,q,19.1,Limited Time - 800ms,l,19.106079704504022,44.54159406239472,33.20609488342599,38.73128904563992,19.106079704504022,33.20609488342599,38.73128904563992,44.54159406239472,-10,-0.33,0.33,10,33,23,32.67,33.33,43,3.1622776601683795,3.1622776601683795,3.1622776601683795,3.1622776601683795
16,1,2.128916199959349,o,25.6,Unlimited Time,l,30.661060329312974,44.51651757576866,25.628784107618912,29.624746598317373,25.628784107618912,29.624746598317373,30.661060329312974,44.51651757576866,-10,-0.33,0.33,10,33,23,32.67,33.33,43,3.1622776601683795,3.1622776601683795,3.1622776601683795,3.1622776601683795
16,2,0.6236953000188805,w,37.1,Unlimited Time,l,30.157436073794933,37.12686561072045,24.227743836961515,33.362467473106356,24.227743836961515,33.362467473106356,30.157436073794933,37.12686561072045,-10,-0.33,0.33,10,33,23,32.67,33.33,43,3.1622776601683795,3.1622776601683795,3.1622776601683795,3.1622776601683795
16,3,1.718401099962648,p,30.4,Unlimited Time,l,33.67470280632278,45.02932947804225,22.314830647936848,30.351510931071257,22.314830647936848,30.351510931071257,33.67470280632278,45.02932947804225,-10,-0.33,0.33,10,33,23,32.67,33.33,43,3.1622776601683795,3.1622776601683795,3.1622776601683795,3.1622776601683795
16,4,0.45474870002362877,w,45.8,Unlimited Time,l,32.61307376579906,45.766120056095446,25.753638730798365,28.072733235542646,25.753638730798365,28.072733235542646,32.61307376579906,45.766120056095446,-10,-0.33,0.33,10,33,23,32.67,33.33,43,3.1622776601683795,3.1622776601683795,3.1622776601683795,3.1622776601683795
16,5,0.33406630001263693,w,43.0,Unlimited Time,l,34.93553387365878,43.02148216284696,22.306889448799776,33.24185712944505,22.306889448799776,33.24185712944505,34.93553387365878,43.02148216284696,-10,-0.33,0.33,10,33,23,32.67,33.33,43,3.1622776601683795,3.1622776601683795,3.1622776601683795,3.1622776601683795
16,6,0.38103059999411926,w,43.8,Unlimited Time,l,36.103663741151756,43.822164712823025,20.185006402619923,33.24216405356294,20.185006402619923,33.24216405356294,36.103663741151756,43.822164712823025,-10,-0.33,0.33,10,33,23,32.67,33.33,43,3.1622776601683795,3.1622776601683795,3.1622776601683795,3.1622776601683795
16,7,0.5289637999958359,w,38.7,Unlimited Time,l,35.19361580506416,38.657839897585575,21.587541455261768,37.04231283552655,21.587541455261768,37.04231283552655,35.19361580506416,38.657839897585575,-10,-0.33,0.33,10,33,23,32.67,33.33,43,3.1622776601683795,3.1622776601683795,3.1622776601683795,3.1622776601683795
16,8,0.5176659999997355,p,34.5,Unlimited Time,l,31.426006941205124,43.66918181390832,18.902844686529072,34.51042457371359,18.902844686529072,34.51042457371359,31.426006941205124,43.66918181390832,-10,-0.33,0.33,10,33,23,32.67,33.33,43,3.1622776601683795,3.1622776601683795,3.1622776601683795,3.1622776601683795
16,9,0.2621835999889299,p,35.6,Unlimited Time,l,29.403224409902176,40.700248941477824,21.17881791332348,35.558823221402044,21.17881791332348,35.558823221402044,29.403224409902176,40.700248941477824,-10,-0.33,0.33,10,33,23,32.67,33.33,43,3.1622776601683795,3.1622776601683795,3.1622776601683795,3.1622776601683795
16,10,0.3531209999928251,p,34.7,Unlimited Time,l,34.96873541379661,43.05328830720761,27.913181799673296,34.68615463903532,27.913181799673296,34.68615463903532,34.96873541379661,43.05328830720761,-10,-0.33,0.33,10,33,23,32.67,33.33,43,3.1622776601683795,3.1622776601683795,3.1622776601683795,3.1622776601683795
16,11,0.3593564999755472,w,41.8,Unlimited Time,l,35.75512762404608,41.809591915733584,17.417059255906132,35.663319618178896,17.417059255906132,35.663319618178896,35.75512762404608,41.809591915733584,-10,-0.33,0.33,10,33,23,32.67,33.33,43,3.1622776601683795,3.1622776601683795,3.1622776601683795,3.1622776601683795
16,12,0.24673260003328323,w,49.5,Unlimited Time,l,35.12399397886617,49.459494722926195,15.840376674754491,34.24744480707876,15.840376674754491,34.24744480707876,35.12399397886617,49.459494722926195,-10,-0.33,0.33,10,33,23,32.67,33.33,43,3.1622776601683795,3.1622776601683795,3.1622776601683795,3.1622776601683795
16,13,0.36208120000083,w,46.8,Unlimited Time,l,36.158889308047414,46.84756175318661,26.195093054338074,32.79398596272695,26.195093054338074,32.79398596272695,36.158889308047414,46.84756175318661,-10,-0.33,0.33,10,33,23,32.67,33.33,43,3.1622776601683795,3.1622776601683795,3.1622776601683795,3.1622776601683795
16,14,0.4758197999908589,w,41.2,Unlimited Time,l,35.313891456065974,41.247099517624434,22.9250542603102,31.30838046812616,22.9250542603102,31.30838046812616,35.313891456065974,41.247099517624434,-10,-0.33,0.33,10,33,23,32.67,33.33,43,3.1622776601683795,3.1622776601683795,3.1622776601683795,3.1622776601683795
16,15,0.5462511000223458,q,29.9,Unlimited Time,l,29.9346248391048,39.29646975895089,26.785683132990094,35.87408651765292,26.785683132990094,35.87408651765292,29.9346248391048,39.29646975895089,-10,-0.33,0.33,10,33,23,32.67,33.33,43,3.1622776601683795,3.1622776601683795,3.1622776601683795,3.1622776601683795
16,16,0.31885780004085973,w,41.9,Unlimited Time,l,33.161698093800354,41.86603703433378,19.431431166143753,32.208037666836965,19.431431166143753,32.208037666836965,33.161698093800354,41.86603703433378,-10,-0.33,0.33,10,33,23,32.67,33.33,43,3.1622776601683795,3.1622776601683795,3.1622776601683795,3.1622776601683795
16,17,0.33643969998229295,w,44.8,Unlimited Time,l,33.19793755482191,44.836474053352084,20.971789871952765,34.64901997118578,20.971789871952765,34.64901997118578,33.19793755482191,44.836474053352084,-10,-0.33,0.33,10,33,23,32.67,33.33,43,3.1622776601683795,3.1622776601683795,3.1622776601683795,3.1622776601683795
16,18,0.4067562000127509,w,40.5,Unlimited Time,l,34.68539856046115,40.461252188474965,22.840414862685922,38.87727774439802,22.840414862685922,38.87727774439802,34.68539856046115,40.461252188474965,-10,-0.33,0.33,10,33,23,32.67,33.33,43,3.1622776601683795,3.1622776601683795,3.1622776601683795,3.1622776601683795
16,19,0.40576160000637174,w,41.4,Unlimited Time,l,35.99259099832552,41.37790719287037,24.817933056880957,30.39679140021478,24.817933056880957,30.39679140021478,35.99259099832552,41.37790719287037,-10,-0.33,0.33,10,33,23,32.67,33.33,43,3.1622776601683795,3.1622776601683795,3.1622776601683795,3.1622776601683795
16,20,0.33545649994630367,w,44.5,Unlimited Time,l,38.73128904563992,44.54159406239472,19.106079704504022,33.20609488342599,19.106079704504022,33.20609488342599,38.73128904563992,44.54159406239472,-10,-0.33,0.33,10,33,23,32.67,33.33,43,3.1622776601683795,3.1622776601683795,3.1622776601683795,3.1622776601683795
17,1,0.09928570000920445,o,23.6,Limited Time - 400ms,i,45.99300983865363,18.223281358939072,23.635172042882687,28.39554678753022,23.635172042882687,28.39554678753022,45.99300983865363,18.223281358939072,-10,-10,10,10,33,23,23,43,43,3.1622776601683795,10,3.1622776601683795,10
17,2,0.01295499998377636,o,20.6,Limited Time - 400ms,i,47.82826010995246,42.07681064918182,20.55631765928765,24.594720763144743,20.55631765928765,24.594720763144743,47.82826010995246,42.07681064918182,-10,-10,10,10,33,23,23,43,43,3.1622776601683795,10,3.1622776601683795,10
17,3,0.18211520003387704,o,21.5,Limited Time - 400ms,i,40.98863361538178,40.23818044106062,21.451400752778152,20.521081880073275,21.451400752778152,20.521081880073275,40.98863361538178,40.23818044106062,-10,-10,10,10,33,23,23,43,43,3.1622776601683795,10,3.1622776601683795,10
17,4,0.18958800000837073,o,23.9,Limited Time - 400ms,i,46.66954760285145,39.77695793050775,23.94330836835327,17.919913549848303,23.94330836835327,17.919913549848303,46.66954760285145,39.77695793050775,-10,-10,10,10,33,23,23,43,43,3.1622776601683795,10,3.1622776601683795,10
17,5,0.18057089997455478,o,20.4,Limited Time - 400ms,i,39.56290452537471,58.448126774132795,20.395019243866976,3.30960380415128,20.395019243866976,3.30960380415128,39.56290452537471,58.448126774132795,-10,-10,10,10,33,23,23,43,43,3.1622776601683795,10,3.1622776601683795,10
17,6,0.19057350000366569,o,27.8,Limited Time - 400ms,i,42.80725623116951,46.538046773031766,27.822277889682127,31.110449047813336,27.822277889682127,31.110449047813336,42.80725623116951,46.538046773031766,-10,-10,10,10,33,23,23,43,43,3.1622776601683795,10,3.1622776601683795,10
17,7,0.1794287000084296,o,21.7,Limited Time - 400ms,i,38.9505016988921,51.41943219175299,21.660436249567674,8.172460467619631,21.660436249567674,8.172460467619631,38.9505016988921,51.41943219175299,-10,-10,10,10,33,23,23,43,43,3.1622776601683795,10,3.1622776601683795,10
17,8,0.180034400022123,o,26.1,Limited Time - 400ms,i,45.19696320288755,51.583586161859046,26.145363230124595,8.384471443849876,26.145363230124595,8.384471443849876,45.19696320288755,51.583586161859046,-10,-10,10,10,33,23,23,43,43,3.1622776601683795,10,3.1622776601683795,10
17,9,0.15142349997768179,o,22.3,Limited Time - 400ms,i,43.81849435033229,28.58046972007451,22.290055153055658,32.74947639293488,22.290055153055658,32.74947639293488,43.81849435033229,28.58046972007451,-10,-10,10,10,33,23,23,43,43,3.1622776601683795,10,3.1622776601683795,10
17,10,0.12000200001057237,o,19.2,Limited Time - 400ms,i,40.51041643614343,42.0473571068502,19.189182202236026,14.190540209953056,19.189182202236026,14.190540209953056,40.51041643614343,42.0473571068502,-10,-10,10,10,33,23,23,43,43,3.1622776601683795,10,3.1622776601683795,10
17,11,0.06985589995747432,w,50.3,Limited Time - 400ms,i,46.292218243263335,50.288693631438974,24.08492078067194,34.51967178458525,24.08492078067194,34.51967178458525,46.292218243263335,50.288693631438974,-10,-10,10,10,33,23,23,43,43,3.1622776601683795,10,3.1622776601683795,10
17,12,0.14005769998766482,w,46.7,Limited Time - 400ms,i,42.82289002440943,46.66520213895466,28.24686584854357,18.314218051158296,28.24686584854357,18.314218051158296,42.82289002440943,46.66520213895466,-10,-10,10,10,33,23,23,43,43,3.1622776601683795,10,3.1622776601683795,10
17,13,0.13531670003430918,w,42.6,Limited Time - 400ms,i,34.25833123486518,42.55845400854442,26.564355575883358,34.352189794892766,26.564355575883358,34.352189794892766,34.25833123486518,42.55845400854442,-10,-10,10,10,33,23,23,43,43,3.1622776601683795,10,3.1622776601683795,10
17,14,0.14241660002153367,w,23.7,Limited Time - 400ms,i,46.65507855305575,23.749431885789,24.045843364020982,16.778588096344578,24.045843364020982,16.778588096344578,46.65507855305575,23.749431885789,-10,-10,10,10,33,23,23,43,43,3.1622776601683795,10,3.1622776601683795,10
17,15,0.17696069995872676,w,47.1,Limited Time - 400ms,i,45.026151697874525,47.14397474542684,24.730107478271027,22.866234099402767,24.730107478271027,22.866234099402767,45.026151697874525,47.14397474542684,-10,-10,10,10,33,23,23,43,43,3.1622776601683795,10,3.1622776601683795,10
17,16,0.0102377999573946,o,21.3,Limited Time - 400ms,i,43.97837428054633,52.67924329087314,21.263347871530105,28.278180737070997,21.263347871530105,28.278180737070997,43.97837428054633,52.67924329087314,-10,-10,10,10,33,23,23,43,43,3.1622776601683795,10,3.1622776601683795,10
17,17,0.1957659999607131,o,20.5,Limited Time - 400ms,i,40.54418360644929,50.75788640328584,20.483726208981636,22.94206914033395,20.483726208981636,22.94206914033395,40.54418360644929,50.75788640328584,-10,-10,10,10,33,23,23,43,43,3.1622776601683795,10,3.1622776601683795,10
17,18,0.22965569997904822,o,18.4,Limited Time - 400ms,i,39.89695958866403,52.95997289373077,18.39074391745791,30.290480600106353,18.39074391745791,30.290480600106353,39.89695958866403,52.95997289373077,-10,-10,10,10,33,23,23,43,43,3.1622776601683795,10,3.1622776601683795,10
17,19,0.22032550000585616,o,25.8,Limited Time - 400ms,i,40.65286540033851,34.57943207321174,25.79689074116285,16.860339747879145,25.79689074116285,16.860339747879145,40.65286540033851,34.57943207321174,-10,-10,10,10,33,23,23,43,43,3.1622776601683795,10,3.1622776601683795,10
17,20,0.07646389998262748,p,19.7,Limited Time - 400ms,i,47.818882731150026,34.02945466708293,25.67596527954196,19.698057025106074,25.67596527954196,19.698057025106074,47.818882731150026,34.02945466708293,-10,-10,10,10,33,23,23,43,43,3.1622776601683795,10,3.1622776601683795,10
18,1,0.2601359999971464,q,23.6,Limited Time - 800ms,i,23.635172042882687,28.39554678753022,45.99300983865363,18.223281358939072,23.635172042882687,28.39554678753022,45.99300983865363,18.223281358939072,-10,-10,10,10,33,23,23,43,43,3.1622776601683795,10,3.1622776601683795,10
18,2,0.36673120001796633,q,20.6,Limited Time - 800ms,i,20.55631765928765,24.594720763144743,47.82826010995246,42.07681064918182,20.55631765928765,24.594720763144743,47.82826010995246,42.07681064918182,-10,-10,10,10,33,23,23,43,43,3.1622776601683795,10,3.1622776601683795,10
18,3,0.22187359997769818,p,40.2,Limited Time - 800ms,i,21.451400752778152,20.521081880073275,40.98863361538178,40.23818044106062,21.451400752778152,20.521081880073275,40.98863361538178,40.23818044106062,-10,-10,10,10,33,23,23,43,43,3.1622776601683795,10,3.1622776601683795,10
18,4,0.030941099976189435,p,39.8,Limited Time - 800ms,i,23.94330836835327,17.919913549848303,46.66954760285145,39.77695793050775,23.94330836835327,17.919913549848303,46.66954760285145,39.77695793050775,-10,-10,10,10,33,23,23,43,43,3.1622776601683795,10,3.1622776601683795,10
18,5,0.027689199952874333,p,58.4,Limited Time - 800ms,i,20.395019243866976,3.30960380415128,39.56290452537471,58.448126774132795,20.395019243866976,3.30960380415128,39.56290452537471,58.448126774132795,-10,-10,10,10,33,23,23,43,43,3.1622776601683795,10,3.1622776601683795,10
18,6,0.2718006999930367,p,46.5,Limited Time - 800ms,i,27.822277889682127,31.110449047813336,42.80725623116951,46.538046773031766,27.822277889682127,31.110449047813336,42.80725623116951,46.538046773031766,-10,-10,10,10,33,23,23,43,43,3.1622776601683795,10,3.1622776601683795,10
18,7,0.23367779998807237,p,51.4,Limited Time - 800ms,i,21.660436249567674,8.172460467619631,38.9505016988921,51.41943219175299,21.660436249567674,8.172460467619631,38.9505016988921,51.41943219175299,-10,-10,10,10,33,23,23,43,43,3.1622776601683795,10,3.1622776601683795,10
18,8,0.15060220001032576,p,51.6,Limited Time - 800ms,i,26.145363230124595,8.384471443849876,45.19696320288755,51.583586161859046,26.145363230124595,8.384471443849876,45.19696320288755,51.583586161859046,-10,-10,10,10,33,23,23,43,43,3.1622776601683795,10,3.1622776601683795,10
18,9,0.19728999998187646,p,28.6,Limited Time - 800ms,i,22.290055153055658,32.74947639293488,43.81849435033229,28.58046972007451,22.290055153055658,32.74947639293488,43.81849435033229,28.58046972007451,-10,-10,10,10,33,23,23,43,43,3.1622776601683795,10,3.1622776601683795,10
18,10,0.2520302999764681,o,40.5,Limited Time - 800ms,i,19.189182202236026,14.190540209953056,40.51041643614343,42.0473571068502,19.189182202236026,14.190540209953056,40.51041643614343,42.0473571068502,-10,-10,10,10,33,23,23,43,43,3.1622776601683795,10,3.1622776601683795,10
18,11,0.17775450000772253,o,46.3,Limited Time - 800ms,i,24.08492078067194,34.51967178458525,46.292218243263335,50.288693631438974,24.08492078067194,34.51967178458525,46.292218243263335,50.288693631438974,-10,-10,10,10,33,23,23,43,43,3.1622776601683795,10,3.1622776601683795,10
