Round Number,Trial Number,Reaction Time,Choice,Reward (Health Points),Time Condition,Payoff Condition,Q mapped,W mapped,O mapped,P mapped,One value,Two value,Three value,Four value,One mean,Two mean,Three mean,Four mean,Mean Shift,One shifted mean,Two shifted mean,Three shifted mean,Four shifted mean,One SD,Two SD,Three SD,Four SD
1,1,0.7137549000326544,q,84.8,Unlimited Time,i,84.78550267434031,56.64820292514952,37.33248467759247,33.5397793652025,33.5397793652025,37.33248467759247,56.64820292514952,84.78550267434031,-10,-10,10,10,46,36,36,56,56,3.1622776601683795,10,3.1622776601683795,10
1,2,0.44917450001230463,p,38.3,Unlimited Time,i,49.8941621139871,60.66620274228735,48.38552964568872,38.30189010707626,38.30189010707626,48.38552964568872,60.66620274228735,49.8941621139871,-10,-10,10,10,46,36,36,56,56,3.1622776601683795,10,3.1622776601683795,10
1,3,0.4480312999803573,o,39.6,Unlimited Time,i,27.380922489700595,54.83247162998626,39.552194246705994,39.297921974231976,39.297921974231976,39.552194246705994,54.83247162998626,27.380922489700595,-10,-10,10,10,46,36,36,56,56,3.1622776601683795,10,3.1622776601683795,10
1,4,0.6478578000096604,w,63.2,Unlimited Time,i,56.39877638928574,63.153838126201464,44.96408262168243,36.598143623924955,36.598143623924955,44.96408262168243,63.153838126201464,56.39877638928574,-10,-10,10,10,46,36,36,56,56,3.1622776601683795,10,3.1622776601683795,10
1,5,0.5315831000334583,w,56.7,Unlimited Time,i,74.48387231019329,56.727884699443436,38.947490692393565,35.803442292784524,35.803442292784524,38.947490692393565,56.727884699443436,74.48387231019329,-10,-10,10,10,46,36,36,56,56,3.1622776601683795,10,3.1622776601683795,10
1,6,1.472046600014437,w,56.5,Unlimited Time,i,57.78302829060671,56.47910125968012,32.75804879390972,34.51490310328139,34.51490310328139,32.75804879390972,56.47910125968012,57.78302829060671,-10,-10,10,10,46,36,36,56,56,3.1622776601683795,10,3.1622776601683795,10
1,7,0.772311799984891,w,56.3,Unlimited Time,i,42.39664611001072,56.33122952315076,37.766224364844796,36.145255316735515,36.145255316735515,37.766224364844796,56.33122952315076,42.39664611001072,-10,-10,10,10,46,36,36,56,56,3.1622776601683795,10,3.1622776601683795,10
1,8,0.6747440999606624,q,58.0,Unlimited Time,i,57.955389544883914,52.48288921516622,31.06503661996304,33.08939173984423,33.08939173984423,31.06503661996304,52.48288921516622,57.955389544883914,-10,-10,10,10,46,36,36,56,56,3.1622776601683795,10,3.1622776601683795,10
1,9,0.5262977000093088,w,50.1,Unlimited Time,i,35.81853906935538,50.065449998817726,28.84648985409703,40.299481573446165,40.299481573446165,28.84648985409703,50.065449998817726,35.81853906935538,-10,-10,10,10,46,36,36,56,56,3.1622776601683795,10,3.1622776601683795,10
1,10,1.0093167999875732,q,68.5,Unlimited Time,i,68.47257266036665,59.82565301250804,22.913907033567597,32.60966729817646,32.60966729817646,22.913907033567597,59.82565301250804,68.47257266036665,-10,-10,10,10,46,36,36,56,56,3.1622776601683795,10,3.1622776601683795,10
1,11,0.6634697000263259,q,60.4,Unlimited Time,i,60.42954018360187,56.79979225035197,30.05618898532064,35.89820925599533,35.89820925599533,30.05618898532064,56.79979225035197,60.42954018360187,-10,-10,10,10,46,36,36,56,56,3.1622776601683795,10,3.1622776601683795,10
1,12,0.6855132000055164,q,55.4,Unlimited Time,i,55.37478178287532,59.39254836389436,31.817927986227886,31.466332150788375,31.466332150788375,31.817927986227886,59.39254836389436,55.37478178287532,-10,-10,10,10,46,36,36,56,56,3.1622776601683795,10,3.1622776601683795,10
1,13,0.802814099995885,w,56.9,Unlimited Time,i,70.58810035608279,56.92730901082981,9.381615940953647,38.06235076197608,38.06235076197608,9.381615940953647,56.92730901082981,70.58810035608279,-10,-10,10,10,46,36,36,56,56,3.1622776601683795,10,3.1622776601683795,10
1,14,0.6303986999555491,o,38.3,Unlimited Time,i,60.16312193787012,54.30659485070135,38.336890054401884,32.444731390333445,32.444731390333445,38.336890054401884,54.30659485070135,60.16312193787012,-10,-10,10,10,46,36,36,56,56,3.1622776601683795,10,3.1622776601683795,10
1,15,0.45168529998045415,p,41.2,Unlimited Time,i,36.765191158824706,55.12649857237735,20.46346927404093,41.167180926368474,41.167180926368474,20.46346927404093,55.12649857237735,36.765191158824706,-10,-10,10,10,46,36,36,56,56,3.1622776601683795,10,3.1622776601683795,10
1,16,0.30913699994562194,w,56.5,Unlimited Time,i,58.5410293376259,56.544112043554186,40.11504044706954,33.54273661508621,33.54273661508621,40.11504044706954,56.544112043554186,58.5410293376259,-10,-10,10,10,46,36,36,56,56,3.1622776601683795,10,3.1622776601683795,10
1,17,0.7764179999940097,w,54.0,Unlimited Time,i,47.58156006127338,54.02176699965781,33.20832340510511,39.66545577749164,39.66545577749164,33.20832340510511,54.02176699965781,47.58156006127338,-10,-10,10,10,46,36,36,56,56,3.1622776601683795,10,3.1622776601683795,10
1,18,0.4288224999909289,q,54.8,Unlimited Time,i,54.76551592737228,55.970560499912224,22.28999569070551,37.211578715324706,37.211578715324706,22.28999569070551,55.970560499912224,54.76551592737228,-10,-10,10,10,46,36,36,56,56,3.1622776601683795,10,3.1622776601683795,10
1,19,0.5660980000393465,q,56.6,Unlimited Time,i,56.554067872270764,57.93362653477492,50.26405886544343,35.53854625678945,35.53854625678945,50.26405886544343,57.93362653477492,56.554067872270764,-10,-10,10,10,46,36,36,56,56,3.1622776601683795,10,3.1622776601683795,10
1,20,0.43433079996611923,q,52.5,Unlimited Time,i,52.485713775809685,58.72338693309837,43.94507710305814,31.01853116898442,31.01853116898442,43.94507710305814,58.72338693309837,52.485713775809685,-10,-10,10,10,46,36,36,56,56,3.1622776601683795,10,3.1622776601683795,10
2,1,0.3066570999799296,q,44.4,Limited Time - 400ms,l,44.40047443027471,47.28860361868998,49.204494102558186,39.951285779626325,39.951285779626325,44.40047443027471,49.204494102558186,47.28860361868998,-10,-0.33,0.33,10,46,36,45.67,46.33,56,3.1622776601683795,3.1622776601683795,3.1622776601683795,3.1622776601683795
2,2,0.2692346999538131,w,58.8,Limited Time - 400ms,l,46.92903008557677,58.78882765108012,39.586014129919306,35.025365578261855,35.025365578261855,46.92903008557677,39.586014129919306,58.78882765108012,-10,-0.33,0.33,10,46,36,45.67,46.33,56,3.1622776601683795,3.1622776601683795,3.1622776601683795,3.1622776601683795
2,3,,,0.0,Limited Time - 400ms,l,53.07100135072237,59.722858360790575,41.35684928725186,32.539805219223254,32.539805219223254,53.07100135072237,41.35684928725186,59.722858360790575,-10,-0.33,0.33,10,46,36,45.67,46.33,56,3.1622776601683795,3.1622776601683795,3.1622776601683795,3.1622776601683795
2,4,0.3472978000063449,p,36.5,Limited Time - 400ms,l,41.766651616642854,58.90547093459043,44.61042106657842,36.45309989037121,36.45309989037121,41.766651616642854,44.61042106657842,58.90547093459043,-10,-0.33,0.33,10,46,36,45.67,46.33,56,3.1622776601683795,3.1622776601683795,3.1622776601683795,3.1622776601683795
2,5,0.28028229996562004,o,43.4,Limited Time - 400ms,l,47.57713815765308,55.3088584043691,43.382445744708086,36.40896948414421,36.40896948414421,47.57713815765308,43.382445744708086,55.3088584043691,-10,-0.33,0.33,10,46,36,45.67,46.33,56,3.1622776601683795,3.1622776601683795,3.1622776601683795,3.1622776601683795
2,6,0.19152829999802634,w,51.0,Limited Time - 400ms,l,40.62196361586564,50.99299034389597,42.79474249864186,39.36293253398707,39.36293253398707,40.62196361586564,42.79474249864186,50.99299034389597,-10,-0.33,0.33,10,46,36,45.67,46.33,56,3.1622776601683795,3.1622776601683795,3.1622776601683795,3.1622776601683795
2,7,0.27311379997991025,w,58.2,Limited Time - 400ms,l,49.03839759461889,58.17531215143796,48.77272660743503,41.428214089101665,41.428214089101665,49.03839759461889,48.77272660743503,58.17531215143796,-10,-0.33,0.33,10,46,36,45.67,46.33,56,3.1622776601683795,3.1622776601683795,3.1622776601683795,3.1622776601683795
2,8,0.30848929996136576,w,59.4,Limited Time - 400ms,l,45.34172609726801,59.4128044806482,50.32937040937494,38.69469834645123,38.69469834645123,45.34172609726801,50.32937040937494,59.4128044806482,-10,-0.33,0.33,10,46,36,45.67,46.33,56,3.1622776601683795,3.1622776601683795,3.1622776601683795,3.1622776601683795
2,9,0.2509086999925785,w,50.7,Limited Time - 400ms,l,37.72014318978805,50.69739108414985,41.825561831037064,38.5616398934612,38.5616398934612,37.72014318978805,41.825561831037064,50.69739108414985,-10,-0.33,0.33,10,46,36,45.67,46.33,56,3.1622776601683795,3.1622776601683795,3.1622776601683795,3.1622776601683795
2,10,0.20202960004098713,q,45.6,Limited Time - 400ms,l,45.63007018654775,51.922488010190214,49.623590711650486,36.80641133592912,36.80641133592912,45.63007018654775,49.623590711650486,51.922488010190214,-10,-0.33,0.33,10,46,36,45.67,46.33,56,3.1622776601683795,3.1622776601683795,3.1622776601683795,3.1622776601683795
2,11,0.25677430001087487,w,57.0,Limited Time - 400ms,l,46.1394468754021,56.955137008974305,42.87664699050241,39.672811561913036,39.672811561913036,46.1394468754021,42.87664699050241,56.955137008974305,-10,-0.33,0.33,10,46,36,45.67,46.33,56,3.1622776601683795,3.1622776601683795,3.1622776601683795,3.1622776601683795
2,12,0.3552331999526359,w,57.9,Limited Time - 400ms,l,44.058644828452685,57.91127791013886,48.44217386772735,37.91916766395961,37.91916766395961,44.058644828452685,48.44217386772735,57.91127791013886,-10,-0.33,0.33,10,46,36,45.67,46.33,56,3.1622776601683795,3.1622776601683795,3.1622776601683795,3.1622776601683795
2,13,,,0.0,Limited Time - 400ms,l,52.80067462537002,63.205016493814554,47.596838925830895,32.81147694826011,32.81147694826011,52.80067462537002,47.596838925830895,63.205016493814554,-10,-0.33,0.33,10,46,36,45.67,46.33,56,3.1622776601683795,3.1622776601683795,3.1622776601683795,3.1622776601683795
2,14,,,0.0,Limited Time - 400ms,l,44.42073771683882,54.15139954428947,44.21715195068499,42.53066078259254,42.53066078259254,44.42073771683882,44.21715195068499,54.15139954428947,-10,-0.33,0.33,10,46,36,45.67,46.33,56,3.1622776601683795,3.1622776601683795,3.1622776601683795,3.1622776601683795
2,15,,,0.0,Limited Time - 400ms,l,49.39651274948634,58.78367559552649,49.743671739169365,35.05337908632115,35.05337908632115,49.39651274948634,49.743671739169365,58.78367559552649,-10,-0.33,0.33,10,46,36,45.67,46.33,56,3.1622776601683795,3.1622776601683795,3.1622776601683795,3.1622776601683795
2,16,,,0.0,Limited Time - 400ms,l,47.38054386602922,53.68578507318764,46.69585556546605,41.01859122077179,41.01859122077179,47.38054386602922,46.69585556546605,53.68578507318764,-10,-0.33,0.33,10,46,36,45.67,46.33,56,3.1622776601683795,3.1622776601683795,3.1622776601683795,3.1622776601683795
2,17,,,0.0,Limited Time - 400ms,l,42.99804321118743,56.51602924426082,46.91743285112018,37.967436286922165,37.967436286922165,42.99804321118743,46.91743285112018,56.51602924426082,-10,-0.33,0.33,10,46,36,45.67,46.33,56,3.1622776601683795,3.1622776601683795,3.1622776601683795,3.1622776601683795
2,18,0.36252659995807335,w,55.6,Limited Time - 400ms,l,47.528671838451515,55.60476899384755,47.011481748739925,35.79782809481028,35.79782809481028,47.528671838451515,47.011481748739925,55.60476899384755,-10,-0.33,0.33,10,46,36,45.67,46.33,56,3.1622776601683795,3.1622776601683795,3.1622776601683795,3.1622776601683795
2,19,,,0.0,Limited Time - 400ms,l,42.21065725553275,52.89343509600554,43.19426121162116,36.04763245343371,36.04763245343371,42.21065725553275,43.19426121162116,52.89343509600554,-10,-0.33,0.33,10,46,36,45.67,46.33,56,3.1622776601683795,3.1622776601683795,3.1622776601683795,3.1622776601683795
2,20,0.0728318999754265,o,41.7,Limited Time - 400ms,l,44.91132412749428,47.15808970153083,41.705200970176364,35.121394493118096,35.121394493118096,44.91132412749428,41.705200970176364,47.15808970153083,-10,-0.33,0.33,10,46,36,45.67,46.33,56,3.1622776601683795,3.1622776601683795,3.1622776601683795,3.1622776601683795
3,1,0.45754430000670254,w,32.8,Limited Time - 800ms,h,33.700366418595024,32.8160715282708,56.94158768746217,45.81303938691877,45.81303938691877,33.700366418595024,32.8160715282708,56.94158768746217,-10,-0.33,0.33,10,46,36,45.67,46.33,56,10,10,10,10
3,2,0.14815419999649748,o,49.3,Limited Time - 800ms,h,44.30980047681465,44.995596188358775,49.308913564124076,39.22342144019746,39.22342144019746,44.30980047681465,44.995596188358775,49.308913564124076,-10,-0.33,0.33,10,46,36,45.67,46.33,56,10,10,10,10
3,3,0.17308859998593107,p,41.0,Limited Time - 800ms,h,54.132984065475014,32.37680833036242,76.17134435860649,40.98351506977319,40.98351506977319,54.132984065475014,32.37680833036242,76.17134435860649,-10,-0.33,0.33,10,46,36,45.67,46.33,56,10,10,10,10
3,4,0.018580600037239492,o,66.4,Limited Time - 800ms,h,55.08782450530512,47.891830308188766,66.43528133254534,32.432281213574484,32.432281213574484,55.08782450530512,47.891830308188766,66.43528133254534,-10,-0.33,0.33,10,46,36,45.67,46.33,56,10,10,10,10
3,5,0.01907109998865053,q,66.5,Limited Time - 800ms,h,66.47825574840428,53.32140378250266,42.30286041102026,55.44329527041745,55.44329527041745,66.47825574840428,53.32140378250266,42.30286041102026,-10,-0.33,0.33,10,46,36,45.67,46.33,56,10,10,10,10
3,6,0.0005665000062435865,o,71.2,Limited Time - 800ms,h,32.557230223308906,49.75436652953162,71.19804312753708,51.03028933467271,51.03028933467271,32.557230223308906,49.75436652953162,71.19804312753708,-10,-0.33,0.33,10,46,36,45.67,46.33,56,10,10,10,10
3,7,0.018339600006584078,q,58.8,Limited Time - 800ms,h,58.7897220507814,61.156163021069936,42.35857700698033,33.13611439369515,33.13611439369515,58.7897220507814,61.156163021069936,42.35857700698033,-10,-0.33,0.33,10,46,36,45.67,46.33,56,10,10,10,10
3,8,0.2445844000321813,q,51.3,Limited Time - 800ms,h,51.29763319857854,49.78518177627626,29.019718321876237,46.975036773307565,46.975036773307565,51.29763319857854,49.78518177627626,29.019718321876237,-10,-0.33,0.33,10,46,36,45.67,46.33,56,10,10,10,10
3,9,0.2930047999834642,q,22.9,Limited Time - 800ms,h,22.90629714345833,46.27591794955395,47.21992826464664,24.754470654430662,24.754470654430662,22.90629714345833,46.27591794955395,47.21992826464664,-10,-0.33,0.33,10,46,36,45.67,46.33,56,10,10,10,10
3,10,0.23472609999589622,q,50.5,Limited Time - 800ms,h,50.5245400639583,55.25517611149425,43.04419369745919,18.173770143373837,18.173770143373837,50.5245400639583,55.25517611149425,43.04419369745919,-10,-0.33,0.33,10,46,36,45.67,46.33,56,10,10,10,10
3,11,0.20195560000138357,w,50.8,Limited Time - 800ms,h,31.680351583969525,50.7967607648833,57.88725308543626,55.446877782474914,55.446877782474914,31.680351583969525,50.7967607648833,57.88725308543626,-10,-0.33,0.33,10,46,36,45.67,46.33,56,10,10,10,10
3,12,0.429152799944859,o,57.0,Limited Time - 800ms,h,38.6909519238816,51.42067205836823,56.96048467638926,37.780065321037725,37.780065321037725,38.6909519238816,51.42067205836823,56.96048467638926,-10,-0.33,0.33,10,46,36,45.67,46.33,56,10,10,10,10
3,13,0.25538559997221455,p,20.5,Limited Time - 800ms,h,31.911260322617593,39.36595772077914,43.01581400858214,20.533172174286637,20.533172174286637,31.911260322617593,39.36595772077914,43.01581400858214,-10,-0.33,0.33,10,46,36,45.67,46.33,56,10,10,10,10
3,14,0.29720070003531873,o,42.4,Limited Time - 800ms,h,46.71574523925031,35.6878047307403,42.402267024072295,21.836100368018204,21.836100368018204,46.71574523925031,35.6878047307403,42.402267024072295,-10,-0.33,0.33,10,46,36,45.67,46.33,56,10,10,10,10
3,15,0.2252951999544166,o,68.9,Limited Time - 800ms,h,64.43779468791726,45.591125463280676,68.90079294289495,28.0521922603529,28.0521922603529,64.43779468791726,45.591125463280676,68.90079294289495,-10,-0.33,0.33,10,46,36,45.67,46.33,56,10,10,10,10
3,16,0.19705590000376105,o,49.5,Limited Time - 800ms,h,48.756126004928625,19.152934870986062,49.45804979038324,31.836657278426195,31.836657278426195,48.756126004928625,19.152934870986062,49.45804979038324,-10,-0.33,0.33,10,46,36,45.67,46.33,56,10,10,10,10
3,17,0.2871472999686375,o,62.7,Limited Time - 800ms,h,38.15062951739043,65.80291626268617,62.746086318524014,34.1125697420242,34.1125697420242,38.15062951739043,65.80291626268617,62.746086318524014,-10,-0.33,0.33,10,46,36,45.67,46.33,56,10,10,10,10
3,18,0.18445450003491715,o,42.7,Limited Time - 800ms,h,46.28818168117212,58.90955938129006,42.66480295021739,36.79422605350009,36.79422605350009,46.28818168117212,58.90955938129006,42.66480295021739,-10,-0.33,0.33,10,46,36,45.67,46.33,56,10,10,10,10
3,19,0.23818200000096112,o,64.0,Limited Time - 800ms,h,45.5185710539179,48.49298419136898,63.997226321089876,43.48538930434736,43.48538930434736,45.5185710539179,48.49298419136898,63.997226321089876,-10,-0.33,0.33,10,46,36,45.67,46.33,56,10,10,10,10
3,20,0.23009790002834052,w,45.3,Limited Time - 800ms,h,60.23119177382159,45.2723296274377,64.47356782013877,19.701706545457412,19.701706545457412,60.23119177382159,45.2723296274377,64.47356782013877,-10,-0.33,0.33,10,46,36,45.67,46.33,56,10,10,10,10
4,1,0.5775339999818243,o,45.8,Unlimited Time,h,33.700366418595024,56.94158768746217,45.81303938691877,32.8160715282708,45.81303938691877,33.700366418595024,32.8160715282708,56.94158768746217,-10,-0.33,0.33,10,46,36,45.67,46.33,56,10,10,10,10
4,2,0.3009308000328019,p,45.0,Unlimited Time,h,44.30980047681465,49.308913564124076,39.22342144019746,44.995596188358775,39.22342144019746,44.30980047681465,44.995596188358775,49.308913564124076,-10,-0.33,0.33,10,46,36,45.67,46.33,56,10,10,10,10
4,3,0.3715339999762364,w,76.2,Unlimited Time,h,54.132984065475014,76.17134435860649,40.98351506977319,32.37680833036242,40.98351506977319,54.132984065475014,32.37680833036242,76.17134435860649,-10,-0.33,0.33,10,46,36,45.67,46.33,56,10,10,10,10
4,4,0.26423309999518096,q,55.1,Unlimited Time,h,55.08782450530512,66.43528133254534,32.432281213574484,47.891830308188766,32.432281213574484,55.08782450530512,47.891830308188766,66.43528133254534,-10,-0.33,0.33,10,46,36,45.67,46.33,56,10,10,10,10
4,5,0.2900750999688171,w,42.3,Unlimited Time,h,66.47825574840428,42.30286041102026,55.44329527041745,53.32140378250266,55.44329527041745,66.47825574840428,53.32140378250266,42.30286041102026,-10,-0.33,0.33,10,46,36,45.67,46.33,56,10,10,10,10
4,6,0.6110171999898739,q,32.6,Unlimited Time,h,32.557230223308906,71.19804312753708,51.03028933467271,49.75436652953162,51.03028933467271,32.557230223308906,49.75436652953162,71.19804312753708,-10,-0.33,0.33,10,46,36,45.67,46.33,56,10,10,10,10
4,7,0.4671472000190988,w,42.4,Unlimited Time,h,58.7897220507814,42.35857700698033,33.13611439369515,61.156163021069936,33.13611439369515,58.7897220507814,61.156163021069936,42.35857700698033,-10,-0.33,0.33,10,46,36,45.67,46.33,56,10,10,10,10
4,8,0.35922119999304414,w,29.0,Unlimited Time,h,51.29763319857854,29.019718321876237,46.975036773307565,49.78518177627626,46.975036773307565,51.29763319857854,49.78518177627626,29.019718321876237,-10,-0.33,0.33,10,46,36,45.67,46.33,56,10,10,10,10
4,9,0.21581149997655302,o,24.8,Unlimited Time,h,22.90629714345833,47.21992826464664,24.754470654430662,46.27591794955395,24.754470654430662,22.90629714345833,46.27591794955395,47.21992826464664,-10,-0.33,0.33,10,46,36,45.67,46.33,56,10,10,10,10
4,10,0.4034481000271626,p,55.3,Unlimited Time,h,50.5245400639583,43.04419369745919,18.173770143373837,55.25517611149425,18.173770143373837,50.5245400639583,55.25517611149425,43.04419369745919,-10,-0.33,0.33,10,46,36,45.67,46.33,56,10,10,10,10
4,11,0.29837279999628663,q,31.7,Unlimited Time,h,31.680351583969525,57.88725308543626,55.446877782474914,50.7967607648833,55.446877782474914,31.680351583969525,50.7967607648833,57.88725308543626,-10,-0.33,0.33,10,46,36,45.67,46.33,56,10,10,10,10
4,12,0.3420934000168927,w,57.0,Unlimited Time,h,38.6909519238816,56.96048467638926,37.780065321037725,51.42067205836823,37.780065321037725,38.6909519238816,51.42067205836823,56.96048467638926,-10,-0.33,0.33,10,46,36,45.67,46.33,56,10,10,10,10
4,13,0.4729548000032082,p,39.4,Unlimited Time,h,31.911260322617593,43.01581400858214,20.533172174286637,39.36595772077914,20.533172174286637,31.911260322617593,39.36595772077914,43.01581400858214,-10,-0.33,0.33,10,46,36,45.67,46.33,56,10,10,10,10
4,14,0.293215700017754,o,21.8,Unlimited Time,h,46.71574523925031,42.402267024072295,21.836100368018204,35.6878047307403,21.836100368018204,46.71574523925031,35.6878047307403,42.402267024072295,-10,-0.33,0.33,10,46,36,45.67,46.33,56,10,10,10,10
4,15,0.2005891000153497,q,64.4,Unlimited Time,h,64.43779468791726,68.90079294289495,28.0521922603529,45.591125463280676,28.0521922603529,64.43779468791726,45.591125463280676,68.90079294289495,-10,-0.33,0.33,10,46,36,45.67,46.33,56,10,10,10,10
4,16,0.2503122000489384,q,48.8,Unlimited Time,h,48.756126004928625,49.45804979038324,31.836657278426195,19.152934870986062,31.836657278426195,48.756126004928625,19.152934870986062,49.45804979038324,-10,-0.33,0.33,10,46,36,45.67,46.33,56,10,10,10,10
4,17,0.3389076999737881,q,38.2,Unlimited Time,h,38.15062951739043,62.746086318524014,34.1125697420242,65.80291626268617,34.1125697420242,38.15062951739043,65.80291626268617,62.746086318524014,-10,-0.33,0.33,10,46,36,45.67,46.33,56,10,10,10,10
4,18,0.32707389997085556,w,42.7,Unlimited Time,h,46.28818168117212,42.66480295021739,36.79422605350009,58.90955938129006,36.79422605350009,46.28818168117212,58.90955938129006,42.66480295021739,-10,-0.33,0.33,10,46,36,45.67,46.33,56,10,10,10,10
4,19,0.32973719999426976,w,64.0,Unlimited Time,h,45.5185710539179,63.997226321089876,43.48538930434736,48.49298419136898,43.48538930434736,45.5185710539179,48.49298419136898,63.997226321089876,-10,-0.33,0.33,10,46,36,45.67,46.33,56,10,10,10,10
4,20,0.4070098999654874,w,64.5,Unlimited Time,h,60.23119177382159,64.47356782013877,19.701706545457412,45.2723296274377,19.701706545457412,60.23119177382159,45.2723296274377,64.47356782013877,-10,-0.33,0.33,10,46,36,45.67,46.33,56,10,10,10,10
5,1,0.3257634000037797,w,62.8,Limited Time - 400ms,e,52.0025785001919,62.799286042517565,38.85701615602653,43.37645007507732,43.37645007507732,52.0025785001919,62.799286042517565,38.85701615602653,0,0,0,0,46,46,46,46,46,3.1622776601683795,6.324555320336759,8.366600265340756,10
5,2,0.25116200000047684,o,52.3,Limited Time - 400ms,e,54.86269083106198,38.214147427171056,52.31267007984367,43.8614827075283,43.8614827075283,54.86269083106198,38.214147427171056,52.31267007984367,0,0,0,0,46,46,46,46,46,3.1622776601683795,6.324555320336759,8.366600265340756,10
5,3,0.20572859997628257,w,53.9,Limited Time - 400ms,e,40.18683806735713,53.895840010379835,42.1944006488885,48.6500451517144,48.6500451517144,40.18683806735713,53.895840010379835,42.1944006488885,0,0,0,0,46,46,46,46,46,3.1622776601683795,6.324555320336759,8.366600265340756,10
5,4,0.2550281999865547,w,42.1,Limited Time - 400ms,e,43.86563492043006,42.10084660874551,69.71208676251008,49.825224051679164,49.825224051679164,43.86563492043006,42.10084660874551,69.71208676251008,0,0,0,0,46,46,46,46,46,3.1622776601683795,6.324555320336759,8.366600265340756,10
5,5,0.2503417999832891,o,45.5,Limited Time - 400ms,e,57.11552562282014,52.106348882458676,45.45411682006638,50.87983156051268,50.87983156051268,57.11552562282014,52.106348882458676,45.45411682006638,0,0,0,0,46,46,46,46,46,3.1622776601683795,6.324555320336759,8.366600265340756,10
5,6,0.24169609998352826,o,45.1,Limited Time - 400ms,e,52.18972355364916,59.75198547829412,45.08030969962776,42.71157585659781,42.71157585659781,52.18972355364916,59.75198547829412,45.08030969962776,0,0,0,0,46,46,46,46,46,3.1622776601683795,6.324555320336759,8.366600265340756,10
5,7,0.19724150002002716,p,44.3,Limited Time - 400ms,e,45.66436411558956,29.17707036084902,26.828331841429012,44.30922386719642,44.30922386719642,45.66436411558956,29.17707036084902,26.828331841429012,0,0,0,0,46,46,46,46,46,3.1622776601683795,6.324555320336759,8.366600265340756,10
5,8,0.24672180000925437,p,49.9,Limited Time - 400ms,e,43.98376512308018,31.492624534990696,45.80578301035835,49.917466774509315,49.917466774509315,43.98376512308018,31.492624534990696,45.80578301035835,0,0,0,0,46,46,46,46,46,3.1622776601683795,6.324555320336759,8.366600265340756,10
5,9,0.21701919997576624,q,46.3,Limited Time - 400ms,e,46.29550500074732,53.4306224729123,41.183548399459,42.992604211543814,42.992604211543814,46.29550500074732,53.4306224729123,41.183548399459,0,0,0,0,46,46,46,46,46,3.1622776601683795,6.324555320336759,8.366600265340756,10
5,10,0.12703779997536913,w,42.3,Limited Time - 400ms,e,45.01731580165199,42.30263550499015,36.858887414585176,44.11768392592987,44.11768392592987,45.01731580165199,42.30263550499015,36.858887414585176,0,0,0,0,46,46,46,46,46,3.1622776601683795,6.324555320336759,8.366600265340756,10
5,11,0.24703969998518005,w,29.8,Limited Time - 400ms,e,43.32084538140786,29.80080033672622,59.4401190262802,44.94587364696086,44.94587364696086,43.32084538140786,29.80080033672622,59.4401190262802,0,0,0,0,46,46,46,46,46,3.1622776601683795,6.324555320336759,8.366600265340756,10
5,12,0.2235352999996394,o,61.1,Limited Time - 400ms,e,44.893870283962755,38.64471057471604,61.107833991259895,45.98872354251588,45.98872354251588,44.893870283962755,38.64471057471604,61.107833991259895,0,0,0,0,46,46,46,46,46,3.1622776601683795,6.324555320336759,8.366600265340756,10
5,13,0.21015139995142817,o,55.6,Limited Time - 400ms,e,55.34642154972884,36.89297469462914,55.60827877959396,39.56427831891088,39.56427831891088,55.34642154972884,36.89297469462914,55.60827877959396,0,0,0,0,46,46,46,46,46,3.1622776601683795,6.324555320336759,8.366600265340756,10
5,14,0.23222570004872978,o,23.1,Limited Time - 400ms,e,63.81654272436116,35.13401770497502,23.10624488833668,38.44510765215882,38.44510765215882,63.81654272436116,35.13401770497502,23.10624488833668,0,0,0,0,46,46,46,46,46,3.1622776601683795,6.324555320336759,8.366600265340756,10
5,15,0.19890129996929318,w,47.7,Limited Time - 400ms,e,40.99348900659025,47.74008227027513,32.74448945054277,48.16808515847625,48.16808515847625,40.99348900659025,47.74008227027513,32.74448945054277,0,0,0,0,46,46,46,46,46,3.1622776601683795,6.324555320336759,8.366600265340756,10
5,16,0.24301189999096096,w,37.2,Limited Time - 400ms,e,45.41795006893173,37.22738689607425,46.933471447749305,51.75035238540926,51.75035238540926,45.41795006893173,37.22738689607425,46.933471447749305,0,0,0,0,46,46,46,46,46,3.1622776601683795,6.324555320336759,8.366600265340756,10
5,17,0.0037700000102631748,p,48.4,Limited Time - 400ms,e,37.76918337631527,53.98442408804998,46.40471481099359,48.448891572680466,48.448891572680466,37.76918337631527,53.98442408804998,46.40471481099359,0,0,0,0,46,46,46,46,46,3.1622776601683795,6.324555320336759,8.366600265340756,10
5,18,0.0011439999798312783,q,30.0,Limited Time - 400ms,e,29.989624869441048,62.37492607409666,46.94082643968444,46.414153365051725,46.414153365051725,29.989624869441048,62.37492607409666,46.94082643968444,0,0,0,0,46,46,46,46,46,3.1622776601683795,6.324555320336759,8.366600265340756,10
5,19,0.026367300015408546,o,45.2,Limited Time - 400ms,e,48.428500960403674,42.67265453169865,45.18709513879592,48.56487157353459,48.56487157353459,48.428500960403674,42.67265453169865,45.18709513879592,0,0,0,0,46,46,46,46,46,3.1622776601683795,6.324555320336759,8.366600265340756,10
5,20,,,0.0,Limited Time - 400ms,e,55.54355326426742,31.658135726646776,38.83291067672687,45.21108019193209,45.21108019193209,55.54355326426742,31.658135726646776,38.83291067672687,0,0,0,0,46,46,46,46,46,3.1622776601683795,6.324555320336759,8.366600265340756,10
6,1,0.4203817999805324,w,43.4,Limited Time - 800ms,e,38.85701615602653,43.37645007507732,62.799286042517565,52.0025785001919,43.37645007507732,52.0025785001919,62.799286042517565,38.85701615602653,0,0,0,0,46,46,46,46,46,3.1622776601683795,6.324555320336759,8.366600265340756,10
6,2,0.2008475000038743,o,38.2,Limited Time - 800ms,e,52.31267007984367,43.8614827075283,38.214147427171056,54.86269083106198,43.8614827075283,54.86269083106198,38.214147427171056,52.31267007984367,0,0,0,0,46,46,46,46,46,3.1622776601683795,6.324555320336759,8.366600265340756,10
6,3,0.22379479999653995,p,40.2,Limited Time - 800ms,e,42.1944006488885,48.6500451517144,53.895840010379835,40.18683806735713,48.6500451517144,40.18683806735713,53.895840010379835,42.1944006488885,0,0,0,0,46,46,46,46,46,3.1622776601683795,6.324555320336759,8.366600265340756,10
6,4,0.20326400001067668,q,69.7,Limited Time - 800ms,e,69.71208676251008,49.825224051679164,42.10084660874551,43.86563492043006,49.825224051679164,43.86563492043006,42.10084660874551,69.71208676251008,0,0,0,0,46,46,46,46,46,3.1622776601683795,6.324555320336759,8.366600265340756,10
6,5,0.28364979999605566,q,45.5,Limited Time - 800ms,e,45.45411682006638,50.87983156051268,52.106348882458676,57.11552562282014,50.87983156051268,57.11552562282014,52.106348882458676,45.45411682006638,0,0,0,0,46,46,46,46,46,3.1622776601683795,6.324555320336759,8.366600265340756,10
6,6,0.2423251000000164,q,45.1,Limited Time - 800ms,e,45.08030969962776,42.71157585659781,59.75198547829412,52.18972355364916,42.71157585659781,52.18972355364916,59.75198547829412,45.08030969962776,0,0,0,0,46,46,46,46,46,3.1622776601683795,6.324555320336759,8.366600265340756,10
6,7,0.21719429997028783,w,44.3,Limited Time - 800ms,e,26.828331841429012,44.30922386719642,29.17707036084902,45.66436411558956,44.30922386719642,45.66436411558956,29.17707036084902,26.828331841429012,0,0,0,0,46,46,46,46,46,3.1622776601683795,6.324555320336759,8.366600265340756,10
6,8,0.20642830000724643,o,31.5,Limited Time - 800ms,e,45.80578301035835,49.917466774509315,31.492624534990696,43.98376512308018,49.917466774509315,43.98376512308018,31.492624534990696,45.80578301035835,0,0,0,0,46,46,46,46,46,3.1622776601683795,6.324555320336759,8.366600265340756,10
6,9,0.19048719998681918,p,46.3,Limited Time - 800ms,e,41.183548399459,42.992604211543814,53.4306224729123,46.29550500074732,42.992604211543814,46.29550500074732,53.4306224729123,41.183548399459,0,0,0,0,46,46,46,46,46,3.1622776601683795,6.324555320336759,8.366600265340756,10
6,10,0.24215809995075688,p,45.0,Limited Time - 800ms,e,36.858887414585176,44.11768392592987,42.30263550499015,45.01731580165199,44.11768392592987,45.01731580165199,42.30263550499015,36.858887414585176,0,0,0,0,46,46,46,46,46,3.1622776601683795,6.324555320336759,8.366600265340756,10
6,11,0.14007469994248822,q,59.4,Limited Time - 800ms,e,59.4401190262802,44.94587364696086,29.80080033672622,43.32084538140786,44.94587364696086,43.32084538140786,29.80080033672622,59.4401190262802,0,0,0,0,46,46,46,46,46,3.1622776601683795,6.324555320336759,8.366600265340756,10
6,12,0.2891092000063509,q,61.1,Limited Time - 800ms,e,61.107833991259895,45.98872354251588,38.64471057471604,44.893870283962755,45.98872354251588,44.893870283962755,38.64471057471604,61.107833991259895,0,0,0,0,46,46,46,46,46,3.1622776601683795,6.324555320336759,8.366600265340756,10
6,13,0.21339699998497963,q,55.6,Limited Time - 800ms,e,55.60827877959396,39.56427831891088,36.89297469462914,55.34642154972884,39.56427831891088,55.34642154972884,36.89297469462914,55.60827877959396,0,0,0,0,46,46,46,46,46,3.1622776601683795,6.324555320336759,8.366600265340756,10
6,14,0.20935880002798513,q,23.1,Limited Time - 800ms,e,23.10624488833668,38.44510765215882,35.13401770497502,63.81654272436116,38.44510765215882,63.81654272436116,35.13401770497502,23.10624488833668,0,0,0,0,46,46,46,46,46,3.1622776601683795,6.324555320336759,8.366600265340756,10
6,15,0.1584212000016123,p,41.0,Limited Time - 800ms,e,32.74448945054277,48.16808515847625,47.74008227027513,40.99348900659025,48.16808515847625,40.99348900659025,47.74008227027513,32.74448945054277,0,0,0,0,46,46,46,46,46,3.1622776601683795,6.324555320336759,8.366600265340756,10
6,16,0.21444830001564696,p,45.4,Limited Time - 800ms,e,46.933471447749305,51.75035238540926,37.22738689607425,45.41795006893173,51.75035238540926,45.41795006893173,37.22738689607425,46.933471447749305,0,0,0,0,46,46,46,46,46,3.1622776601683795,6.324555320336759,8.366600265340756,10
6,17,0.2497715000063181,p,37.8,Limited Time - 800ms,e,46.40471481099359,48.448891572680466,53.98442408804998,37.76918337631527,48.448891572680466,37.76918337631527,53.98442408804998,46.40471481099359,0,0,0,0,46,46,46,46,46,3.1622776601683795,6.324555320336759,8.366600265340756,10
6,18,0.12102210003649816,o,62.4,Limited Time - 800ms,e,46.94082643968444,46.414153365051725,62.37492607409666,29.989624869441048,46.414153365051725,29.989624869441048,62.37492607409666,46.94082643968444,0,0,0,0,46,46,46,46,46,3.1622776601683795,6.324555320336759,8.366600265340756,10
6,19,0.20005839999066666,o,42.7,Limited Time - 800ms,e,45.18709513879592,48.56487157353459,42.67265453169865,48.428500960403674,48.56487157353459,48.428500960403674,42.67265453169865,45.18709513879592,0,0,0,0,46,46,46,46,46,3.1622776601683795,6.324555320336759,8.366600265340756,10
6,20,0.23343490000115708,o,31.7,Limited Time - 800ms,e,38.83291067672687,45.21108019193209,31.658135726646776,55.54355326426742,45.21108019193209,55.54355326426742,31.658135726646776,38.83291067672687,0,0,0,0,46,46,46,46,46,3.1622776601683795,6.324555320336759,8.366600265340756,10
7,1,0.2502391000161879,o,47.3,Unlimited Time,l,39.951285779626325,44.40047443027471,47.28860361868998,49.204494102558186,39.951285779626325,44.40047443027471,49.204494102558186,47.28860361868998,-10,-0.33,0.33,10,46,36,45.67,46.33,56,3.1622776601683795,3.1622776601683795,3.1622776601683795,3.1622776601683795
7,2,0.21603519999189302,o,58.8,Unlimited Time,l,35.025365578261855,46.92903008557677,58.78882765108012,39.586014129919306,35.025365578261855,46.92903008557677,39.586014129919306,58.78882765108012,-10,-0.33,0.33,10,46,36,45.67,46.33,56,3.1622776601683795,3.1622776601683795,3.1622776601683795,3.1622776601683795
7,3,0.21706799999810755,w,53.1,Unlimited Time,l,32.539805219223254,53.07100135072237,59.722858360790575,41.35684928725186,32.539805219223254,53.07100135072237,41.35684928725186,59.722858360790575,-10,-0.33,0.33,10,46,36,45.67,46.33,56,3.1622776601683795,3.1622776601683795,3.1622776601683795,3.1622776601683795
7,4,0.24306369997793809,w,41.8,Unlimited Time,l,36.45309989037121,41.766651616642854,58.90547093459043,44.61042106657842,36.45309989037121,41.766651616642854,44.61042106657842,58.90547093459043,-10,-0.33,0.33,10,46,36,45.67,46.33,56,3.1622776601683795,3.1622776601683795,3.1622776601683795,3.1622776601683795
7,5,0.04230719996849075,p,43.4,Unlimited Time,l,36.40896948414421,47.57713815765308,55.3088584043691,43.382445744708086,36.40896948414421,47.57713815765308,43.382445744708086,55.3088584043691,-10,-0.33,0.33,10,46,36,45.67,46.33,56,3.1622776601683795,3.1622776601683795,3.1622776601683795,3.1622776601683795
7,6,0.09764380002161488,p,42.8,Unlimited Time,l,39.36293253398707,40.62196361586564,50.99299034389597,42.79474249864186,39.36293253398707,40.62196361586564,42.79474249864186,50.99299034389597,-10,-0.33,0.33,10,46,36,45.67,46.33,56,3.1622776601683795,3.1622776601683795,3.1622776601683795,3.1622776601683795
7,7,0.5285137999453582,q,41.4,Unlimited Time,l,41.428214089101665,49.03839759461889,58.17531215143796,48.77272660743503,41.428214089101665,49.03839759461889,48.77272660743503,58.17531215143796,-10,-0.33,0.33,10,46,36,45.67,46.33,56,3.1622776601683795,3.1622776601683795,3.1622776601683795,3.1622776601683795
7,8,0.20300290000159293,q,38.7,Unlimited Time,l,38.69469834645123,45.34172609726801,59.4128044806482,50.32937040937494,38.69469834645123,45.34172609726801,50.32937040937494,59.4128044806482,-10,-0.33,0.33,10,46,36,45.67,46.33,56,3.1622776601683795,3.1622776601683795,3.1622776601683795,3.1622776601683795
7,9,0.1498095000279136,q,38.6,Unlimited Time,l,38.5616398934612,37.72014318978805,50.69739108414985,41.825561831037064,38.5616398934612,37.72014318978805,41.825561831037064,50.69739108414985,-10,-0.33,0.33,10,46,36,45.67,46.33,56,3.1622776601683795,3.1622776601683795,3.1622776601683795,3.1622776601683795
7,10,0.179930999991484,p,49.6,Unlimited Time,l,36.80641133592912,45.63007018654775,51.922488010190214,49.623590711650486,36.80641133592912,45.63007018654775,49.623590711650486,51.922488010190214,-10,-0.33,0.33,10,46,36,45.67,46.33,56,3.1622776601683795,3.1622776601683795,3.1622776601683795,3.1622776601683795
7,11,0.18600260000675917,o,57.0,Unlimited Time,l,39.672811561913036,46.1394468754021,56.955137008974305,42.87664699050241,39.672811561913036,46.1394468754021,42.87664699050241,56.955137008974305,-10,-0.33,0.33,10,46,36,45.67,46.33,56,3.1622776601683795,3.1622776601683795,3.1622776601683795,3.1622776601683795
7,12,0.2433599999640137,w,44.1,Unlimited Time,l,37.91916766395961,44.058644828452685,57.91127791013886,48.44217386772735,37.91916766395961,44.058644828452685,48.44217386772735,57.91127791013886,-10,-0.33,0.33,10,46,36,45.67,46.33,56,3.1622776601683795,3.1622776601683795,3.1622776601683795,3.1622776601683795
7,13,0.19290750002255663,o,63.2,Unlimited Time,l,32.81147694826011,52.80067462537002,63.205016493814554,47.596838925830895,32.81147694826011,52.80067462537002,47.596838925830895,63.205016493814554,-10,-0.33,0.33,10,46,36,45.67,46.33,56,3.1622776601683795,3.1622776601683795,3.1622776601683795,3.1622776601683795
7,14,0.2809857999673113,o,54.2,Unlimited Time,l,42.53066078259254,44.42073771683882,54.15139954428947,44.21715195068499,42.53066078259254,44.42073771683882,44.21715195068499,54.15139954428947,-10,-0.33,0.33,10,46,36,45.67,46.33,56,3.1622776601683795,3.1622776601683795,3.1622776601683795,3.1622776601683795
7,15,0.1495162999490276,p,49.7,Unlimited Time,l,35.05337908632115,49.39651274948634,58.78367559552649,49.743671739169365,35.05337908632115,49.39651274948634,49.743671739169365,58.78367559552649,-10,-0.33,0.33,10,46,36,45.67,46.33,56,3.1622776601683795,3.1622776601683795,3.1622776601683795,3.1622776601683795
7,16,0.15032549999887124,p,46.7,Unlimited Time,l,41.01859122077179,47.38054386602922,53.68578507318764,46.69585556546605,41.01859122077179,47.38054386602922,46.69585556546605,53.68578507318764,-10,-0.33,0.33,10,46,36,45.67,46.33,56,3.1622776601683795,3.1622776601683795,3.1622776601683795,3.1622776601683795
7,17,0.223265899985563,q,38.0,Unlimited Time,l,37.967436286922165,42.99804321118743,56.51602924426082,46.91743285112018,37.967436286922165,42.99804321118743,46.91743285112018,56.51602924426082,-10,-0.33,0.33,10,46,36,45.67,46.33,56,3.1622776601683795,3.1622776601683795,3.1622776601683795,3.1622776601683795
7,18,0.2541695000254549,q,35.8,Unlimited Time,l,35.79782809481028,47.528671838451515,55.60476899384755,47.011481748739925,35.79782809481028,47.528671838451515,47.011481748739925,55.60476899384755,-10,-0.33,0.33,10,46,36,45.67,46.33,56,3.1622776601683795,3.1622776601683795,3.1622776601683795,3.1622776601683795
7,19,0.21920449996832758,q,36.0,Unlimited Time,l,36.04763245343371,42.21065725553275,52.89343509600554,43.19426121162116,36.04763245343371,42.21065725553275,43.19426121162116,52.89343509600554,-10,-0.33,0.33,10,46,36,45.67,46.33,56,3.1622776601683795,3.1622776601683795,3.1622776601683795,3.1622776601683795
7,20,0.2458799999440089,q,35.1,Unlimited Time,l,35.121394493118096,44.91132412749428,47.15808970153083,41.705200970176364,35.121394493118096,44.91132412749428,41.705200970176364,47.15808970153083,-10,-0.33,0.33,10,46,36,45.67,46.33,56,3.1622776601683795,3.1622776601683795,3.1622776601683795,3.1622776601683795
8,1,0.3366058000246994,o,84.8,Limited Time - 400ms,i,33.5397793652025,37.33248467759247,84.78550267434031,56.64820292514952,33.5397793652025,37.33248467759247,56.64820292514952,84.78550267434031,-10,-10,10,10,46,36,36,56,56,3.1622776601683795,10,3.1622776601683795,10
8,2,0.2396689000306651,w,48.4,Limited Time - 400ms,i,38.30189010707626,48.38552964568872,49.8941621139871,60.66620274228735,38.30189010707626,48.38552964568872,60.66620274228735,49.8941621139871,-10,-10,10,10,46,36,36,56,56,3.1622776601683795,10,3.1622776601683795,10
8,3,0.06637549999868497,p,54.8,Limited Time - 400ms,i,39.297921974231976,39.552194246705994,27.380922489700595,54.83247162998626,39.297921974231976,39.552194246705994,54.83247162998626,27.380922489700595,-10,-10,10,10,46,36,36,56,56,3.1622776601683795,10,3.1622776601683795,10
8,4,,,0.0,Limited Time - 400ms,i,36.598143623924955,44.96408262168243,56.39877638928574,63.153838126201464,36.598143623924955,44.96408262168243,63.153838126201464,56.39877638928574,-10,-10,10,10,46,36,36,56,56,3.1622776601683795,10,3.1622776601683795,10
8,5,0.289617000031285,o,74.5,Limited Time - 400ms,i,35.803442292784524,38.947490692393565,74.48387231019329,56.727884699443436,35.803442292784524,38.947490692393565,56.727884699443436,74.48387231019329,-10,-10,10,10,46,36,36,56,56,3.1622776601683795,10,3.1622776601683795,10
8,6,0.16315239999676123,o,57.8,Limited Time - 400ms,i,34.51490310328139,32.75804879390972,57.78302829060671,56.47910125968012,34.51490310328139,32.75804879390972,56.47910125968012,57.78302829060671,-10,-10,10,10,46,36,36,56,56,3.1622776601683795,10,3.1622776601683795,10
8,7,0.15828049997799098,o,42.4,Limited Time - 400ms,i,36.145255316735515,37.766224364844796,42.39664611001072,56.33122952315076,36.145255316735515,37.766224364844796,56.33122952315076,42.39664611001072,-10,-10,10,10,46,36,36,56,56,3.1622776601683795,10,3.1622776601683795,10
8,8,0.16131859994493425,o,58.0,Limited Time - 400ms,i,33.08939173984423,31.06503661996304,57.955389544883914,52.48288921516622,33.08939173984423,31.06503661996304,52.48288921516622,57.955389544883914,-10,-10,10,10,46,36,36,56,56,3.1622776601683795,10,3.1622776601683795,10
8,9,0.0038660999853163958,q,40.3,Limited Time - 400ms,i,40.299481573446165,28.84648985409703,35.81853906935538,50.065449998817726,40.299481573446165,28.84648985409703,50.065449998817726,35.81853906935538,-10,-10,10,10,46,36,36,56,56,3.1622776601683795,10,3.1622776601683795,10
8,10,0.11618790001375601,q,32.6,Limited Time - 400ms,i,32.60966729817646,22.913907033567597,68.47257266036665,59.82565301250804,32.60966729817646,22.913907033567597,59.82565301250804,68.47257266036665,-10,-10,10,10,46,36,36,56,56,3.1622776601683795,10,3.1622776601683795,10
8,11,0.18425669998396188,w,30.1,Limited Time - 400ms,i,35.89820925599533,30.05618898532064,60.42954018360187,56.79979225035197,35.89820925599533,30.05618898532064,56.79979225035197,60.42954018360187,-10,-10,10,10,46,36,36,56,56,3.1622776601683795,10,3.1622776601683795,10
8,12,0.10518020001472905,w,31.8,Limited Time - 400ms,i,31.466332150788375,31.817927986227886,55.37478178287532,59.39254836389436,31.466332150788375,31.817927986227886,59.39254836389436,55.37478178287532,-10,-10,10,10,46,36,36,56,56,3.1622776601683795,10,3.1622776601683795,10
8,13,,,0.0,Limited Time - 400ms,i,38.06235076197608,9.381615940953647,70.58810035608279,56.92730901082981,38.06235076197608,9.381615940953647,56.92730901082981,70.58810035608279,-10,-10,10,10,46,36,36,56,56,3.1622776601683795,10,3.1622776601683795,10
8,14,0.3339999000309035,p,54.3,Limited Time - 400ms,i,32.444731390333445,38.336890054401884,60.16312193787012,54.30659485070135,32.444731390333445,38.336890054401884,54.30659485070135,60.16312193787012,-10,-10,10,10,46,36,36,56,56,3.1622776601683795,10,3.1622776601683795,10
8,15,0.01982519996818155,p,55.1,Limited Time - 400ms,i,41.167180926368474,20.46346927404093,36.765191158824706,55.12649857237735,41.167180926368474,20.46346927404093,55.12649857237735,36.765191158824706,-10,-10,10,10,46,36,36,56,56,3.1622776601683795,10,3.1622776601683795,10
8,16,0.10853200004203245,p,56.5,Limited Time - 400ms,i,33.54273661508621,40.11504044706954,58.5410293376259,56.544112043554186,33.54273661508621,40.11504044706954,56.544112043554186,58.5410293376259,-10,-10,10,10,46,36,36,56,56,3.1622776601683795,10,3.1622776601683795,10
8,17,0.12727659998927265,o,47.6,Limited Time - 400ms,i,39.66545577749164,33.20832340510511,47.58156006127338,54.02176699965781,39.66545577749164,33.20832340510511,54.02176699965781,47.58156006127338,-10,-10,10,10,46,36,36,56,56,3.1622776601683795,10,3.1622776601683795,10
8,18,0.23570479999762028,o,54.8,Limited Time - 400ms,i,37.211578715324706,22.28999569070551,54.76551592737228,55.970560499912224,37.211578715324706,22.28999569070551,55.970560499912224,54.76551592737228,-10,-10,10,10,46,36,36,56,56,3.1622776601683795,10,3.1622776601683795,10
8,19,0.23796299996320158,w,50.3,Limited Time - 400ms,i,35.53854625678945,50.26405886544343,56.554067872270764,57.93362653477492,35.53854625678945,50.26405886544343,57.93362653477492,56.554067872270764,-10,-10,10,10,46,36,36,56,56,3.1622776601683795,10,3.1622776601683795,10
8,20,0.23250490002101287,w,43.9,Limited Time - 400ms,i,31.01853116898442,43.94507710305814,52.485713775809685,58.72338693309837,31.01853116898442,43.94507710305814,58.72338693309837,52.485713775809685,-10,-10,10,10,46,36,36,56,56,3.1622776601683795,10,3.1622776601683795,10
9,1,0.21305669995490462,o,56.9,Limited Time - 800ms,h,33.700366418595024,32.8160715282708,56.94158768746217,45.81303938691877,45.81303938691877,33.700366418595024,32.8160715282708,56.94158768746217,-10,-0.33,0.33,10,46,36,45.67,46.33,56,10,10,10,10
9,2,0.18938260001596063,o,49.3,Limited Time - 800ms,h,44.30980047681465,44.995596188358775,49.308913564124076,39.22342144019746,39.22342144019746,44.30980047681465,44.995596188358775,49.308913564124076,-10,-0.33,0.33,10,46,36,45.67,46.33,56,10,10,10,10
9,3,0.11272410000674427,w,32.4,Limited Time - 800ms,h,54.132984065475014,32.37680833036242,76.17134435860649,40.98351506977319,40.98351506977319,54.132984065475014,32.37680833036242,76.17134435860649,-10,-0.33,0.33,10,46,36,45.67,46.33,56,10,10,10,10
9,4,0.1614831000333652,w,47.9,Limited Time - 800ms,h,55.08782450530512,47.891830308188766,66.43528133254534,32.432281213574484,32.432281213574484,55.08782450530512,47.891830308188766,66.43528133254534,-10,-0.33,0.33,10,46,36,45.67,46.33,56,10,10,10,10
9,5,0.072242499969434,p,55.4,Limited Time - 800ms,h,66.47825574840428,53.32140378250266,42.30286041102026,55.44329527041745,55.44329527041745,66.47825574840428,53.32140378250266,42.30286041102026,-10,-0.33,0.33,10,46,36,45.67,46.33,56,10,10,10,10
9,6,0.19940469996072352,p,51.0,Limited Time - 800ms,h,32.557230223308906,49.75436652953162,71.19804312753708,51.03028933467271,51.03028933467271,32.557230223308906,49.75436652953162,71.19804312753708,-10,-0.33,0.33,10,46,36,45.67,46.33,56,10,10,10,10
9,7,0.18445419997442514,q,58.8,Limited Time - 800ms,h,58.7897220507814,61.156163021069936,42.35857700698033,33.13611439369515,33.13611439369515,58.7897220507814,61.156163021069936,42.35857700698033,-10,-0.33,0.33,10,46,36,45.67,46.33,56,10,10,10,10
9,8,0.18767930002650246,q,51.3,Limited Time - 800ms,h,51.29763319857854,49.78518177627626,29.019718321876237,46.975036773307565,46.975036773307565,51.29763319857854,49.78518177627626,29.019718321876237,-10,-0.33,0.33,10,46,36,45.67,46.33,56,10,10,10,10
9,9,0.09499359998153523,o,47.2,Limited Time - 800ms,h,22.90629714345833,46.27591794955395,47.21992826464664,24.754470654430662,24.754470654430662,22.90629714345833,46.27591794955395,47.21992826464664,-10,-0.33,0.33,10,46,36,45.67,46.33,56,10,10,10,10
9,10,0.18199950002599508,o,43.0,Limited Time - 800ms,h,50.5245400639583,55.25517611149425,43.04419369745919,18.173770143373837,18.173770143373837,50.5245400639583,55.25517611149425,43.04419369745919,-10,-0.33,0.33,10,46,36,45.67,46.33,56,10,10,10,10
9,11,0.10772660002112389,p,55.4,Limited Time - 800ms,h,31.680351583969525,50.7967607648833,57.88725308543626,55.446877782474914,55.446877782474914,31.680351583969525,50.7967607648833,57.88725308543626,-10,-0.33,0.33,10,46,36,45.67,46.33,56,10,10,10,10
9,12,0.154660000000149,p,37.8,Limited Time - 800ms,h,38.6909519238816,51.42067205836823,56.96048467638926,37.780065321037725,37.780065321037725,38.6909519238816,51.42067205836823,56.96048467638926,-10,-0.33,0.33,10,46,36,45.67,46.33,56,10,10,10,10
9,13,0.15612520003924146,q,31.9,Limited Time - 800ms,h,31.911260322617593,39.36595772077914,43.01581400858214,20.533172174286637,20.533172174286637,31.911260322617593,39.36595772077914,43.01581400858214,-10,-0.33,0.33,10,46,36,45.67,46.33,56,10,10,10,10
9,14,0.19481170002836734,q,46.7,Limited Time - 800ms,h,46.71574523925031,35.6878047307403,42.402267024072295,21.836100368018204,21.836100368018204,46.71574523925031,35.6878047307403,42.402267024072295,-10,-0.33,0.33,10,46,36,45.67,46.33,56,10,10,10,10
9,15,0.12344029999803752,w,45.6,Limited Time - 800ms,h,64.43779468791726,45.591125463280676,68.90079294289495,28.0521922603529,28.0521922603529,64.43779468791726,45.591125463280676,68.90079294289495,-10,-0.33,0.33,10,46,36,45.67,46.33,56,10,10,10,10
9,16,0.19161580002401024,w,19.2,Limited Time - 800ms,h,48.756126004928625,19.152934870986062,49.45804979038324,31.836657278426195,31.836657278426195,48.756126004928625,19.152934870986062,49.45804979038324,-10,-0.33,0.33,10,46,36,45.67,46.33,56,10,10,10,10
9,17,0.18775099999038503,w,65.8,Limited Time - 800ms,h,38.15062951739043,65.80291626268617,62.746086318524014,34.1125697420242,34.1125697420242,38.15062951739043,65.80291626268617,62.746086318524014,-10,-0.33,0.33,10,46,36,45.67,46.33,56,10,10,10,10
9,18,0.0870918000000529,o,42.7,Limited Time - 800ms,h,46.28818168117212,58.90955938129006,42.66480295021739,36.79422605350009,36.79422605350009,46.28818168117212,58.90955938129006,42.66480295021739,-10,-0.33,0.33,10,46,36,45.67,46.33,56,10,10,10,10
9,19,0.20536039996659383,o,64.0,Limited Time - 800ms,h,45.5185710539179,48.49298419136898,63.997226321089876,43.48538930434736,43.48538930434736,45.5185710539179,48.49298419136898,63.997226321089876,-10,-0.33,0.33,10,46,36,45.67,46.33,56,10,10,10,10
9,20,0.21711359999608248,p,19.7,Limited Time - 800ms,h,60.23119177382159,45.2723296274377,64.47356782013877,19.701706545457412,19.701706545457412,60.23119177382159,45.2723296274377,64.47356782013877,-10,-0.33,0.33,10,46,36,45.67,46.33,56,10,10,10,10
10,1,0.23340109997661784,o,62.8,Unlimited Time,e,38.85701615602653,43.37645007507732,62.799286042517565,52.0025785001919,43.37645007507732,52.0025785001919,62.799286042517565,38.85701615602653,0,0,0,0,46,46,46,46,46,3.1622776601683795,6.324555320336759,8.366600265340756,10
10,2,0.19641309999860823,p,54.9,Unlimited Time,e,52.31267007984367,43.8614827075283,38.214147427171056,54.86269083106198,43.8614827075283,54.86269083106198,38.214147427171056,52.31267007984367,0,0,0,0,46,46,46,46,46,3.1622776601683795,6.324555320336759,8.366600265340756,10
10,3,0.16932869999436662,w,48.7,Unlimited Time,e,42.1944006488885,48.6500451517144,53.895840010379835,40.18683806735713,48.6500451517144,40.18683806735713,53.895840010379835,42.1944006488885,0,0,0,0,46,46,46,46,46,3.1622776601683795,6.324555320336759,8.366600265340756,10
10,4,0.2060308000072837,q,69.7,Unlimited Time,e,69.71208676251008,49.825224051679164,42.10084660874551,43.86563492043006,49.825224051679164,43.86563492043006,42.10084660874551,69.71208676251008,0,0,0,0,46,46,46,46,46,3.1622776601683795,6.324555320336759,8.366600265340756,10
10,5,0.17527960002189502,q,45.5,Unlimited Time,e,45.45411682006638,50.87983156051268,52.106348882458676,57.11552562282014,50.87983156051268,57.11552562282014,52.106348882458676,45.45411682006638,0,0,0,0,46,46,46,46,46,3.1622776601683795,6.324555320336759,8.366600265340756,10
10,6,0.16810730000725016,q,45.1,Unlimited Time,e,45.08030969962776,42.71157585659781,59.75198547829412,52.18972355364916,42.71157585659781,52.18972355364916,59.75198547829412,45.08030969962776,0,0,0,0,46,46,46,46,46,3.1622776601683795,6.324555320336759,8.366600265340756,10
10,7,0.09432040003594011,q,26.8,Unlimited Time,e,26.828331841429012,44.30922386719642,29.17707036084902,45.66436411558956,44.30922386719642,45.66436411558956,29.17707036084902,26.828331841429012,0,0,0,0,46,46,46,46,46,3.1622776601683795,6.324555320336759,8.366600265340756,10
10,8,0.018442399974446744,o,31.5,Unlimited Time,e,45.80578301035835,49.917466774509315,31.492624534990696,43.98376512308018,49.917466774509315,43.98376512308018,31.492624534990696,45.80578301035835,0,0,0,0,46,46,46,46,46,3.1622776601683795,6.324555320336759,8.366600265340756,10
10,9,0.06731380004202947,o,53.4,Unlimited Time,e,41.183548399459,42.992604211543814,53.4306224729123,46.29550500074732,42.992604211543814,46.29550500074732,53.4306224729123,41.183548399459,0,0,0,0,46,46,46,46,46,3.1622776601683795,6.324555320336759,8.366600265340756,10
10,10,0.4899221999803558,p,45.0,Unlimited Time,e,36.858887414585176,44.11768392592987,42.30263550499015,45.01731580165199,44.11768392592987,45.01731580165199,42.30263550499015,36.858887414585176,0,0,0,0,46,46,46,46,46,3.1622776601683795,6.324555320336759,8.366600265340756,10
10,11,0.13507949997438118,p,43.3,Unlimited Time,e,59.4401190262802,44.94587364696086,29.80080033672622,43.32084538140786,44.94587364696086,43.32084538140786,29.80080033672622,59.4401190262802,0,0,0,0,46,46,46,46,46,3.1622776601683795,6.324555320336759,8.366600265340756,10
10,12,0.08380409999517724,p,44.9,Unlimited Time,e,61.107833991259895,45.98872354251588,38.64471057471604,44.893870283962755,45.98872354251588,44.893870283962755,38.64471057471604,61.107833991259895,0,0,0,0,46,46,46,46,46,3.1622776601683795,6.324555320336759,8.366600265340756,10
10,13,0.012677800026722252,w,39.6,Unlimited Time,e,55.60827877959396,39.56427831891088,36.89297469462914,55.34642154972884,39.56427831891088,55.34642154972884,36.89297469462914,55.60827877959396,0,0,0,0,46,46,46,46,46,3.1622776601683795,6.324555320336759,8.366600265340756,10
10,14,0.16004719998454675,w,38.4,Unlimited Time,e,23.10624488833668,38.44510765215882,35.13401770497502,63.81654272436116,38.44510765215882,63.81654272436116,35.13401770497502,23.10624488833668,0,0,0,0,46,46,46,46,46,3.1622776601683795,6.324555320336759,8.366600265340756,10
10,15,0.08091839996632189,o,47.7,Unlimited Time,e,32.74448945054277,48.16808515847625,47.74008227027513,40.99348900659025,48.16808515847625,40.99348900659025,47.74008227027513,32.74448945054277,0,0,0,0,46,46,46,46,46,3.1622776601683795,6.324555320336759,8.366600265340756,10
10,16,0.025706099986564368,o,37.2,Unlimited Time,e,46.933471447749305,51.75035238540926,37.22738689607425,45.41795006893173,51.75035238540926,45.41795006893173,37.22738689607425,46.933471447749305,0,0,0,0,46,46,46,46,46,3.1622776601683795,6.324555320336759,8.366600265340756,10
10,17,0.48860009998315945,q,46.4,Unlimited Time,e,46.40471481099359,48.448891572680466,53.98442408804998,37.76918337631527,48.448891572680466,37.76918337631527,53.98442408804998,46.40471481099359,0,0,0,0,46,46,46,46,46,3.1622776601683795,6.324555320336759,8.366600265340756,10
10,18,0.24205369997071102,q,46.9,Unlimited Time,e,46.94082643968444,46.414153365051725,62.37492607409666,29.989624869441048,46.414153365051725,29.989624869441048,62.37492607409666,46.94082643968444,0,0,0,0,46,46,46,46,46,3.1622776601683795,6.324555320336759,8.366600265340756,10
10,19,0.25519859994528815,w,48.6,Unlimited Time,e,45.18709513879592,48.56487157353459,42.67265453169865,48.428500960403674,48.56487157353459,48.428500960403674,42.67265453169865,45.18709513879592,0,0,0,0,46,46,46,46,46,3.1622776601683795,6.324555320336759,8.366600265340756,10
10,20,0.21056859998498112,w,45.2,Unlimited Time,e,38.83291067672687,45.21108019193209,31.658135726646776,55.54355326426742,45.21108019193209,55.54355326426742,31.658135726646776,38.83291067672687,0,0,0,0,46,46,46,46,46,3.1622776601683795,6.324555320336759,8.366600265340756,10
11,1,,,0.0,Limited Time - 400ms,l,47.28860361868998,39.951285779626325,44.40047443027471,49.204494102558186,39.951285779626325,44.40047443027471,49.204494102558186,47.28860361868998,-10,-0.33,0.33,10,46,36,45.67,46.33,56,3.1622776601683795,3.1622776601683795,3.1622776601683795,3.1622776601683795
11,2,0.2305761000025086,p,39.6,Limited Time - 400ms,l,58.78882765108012,35.025365578261855,46.92903008557677,39.586014129919306,35.025365578261855,46.92903008557677,39.586014129919306,58.78882765108012,-10,-0.33,0.33,10,46,36,45.67,46.33,56,3.1622776601683795,3.1622776601683795,3.1622776601683795,3.1622776601683795
11,3,0.10435400001006201,o,53.1,Limited Time - 400ms,l,59.722858360790575,32.539805219223254,53.07100135072237,41.35684928725186,32.539805219223254,53.07100135072237,41.35684928725186,59.722858360790575,-10,-0.33,0.33,10,46,36,45.67,46.33,56,3.1622776601683795,3.1622776601683795,3.1622776601683795,3.1622776601683795
11,4,0.02786139998352155,w,36.5,Limited Time - 400ms,l,58.90547093459043,36.45309989037121,41.766651616642854,44.61042106657842,36.45309989037121,41.766651616642854,44.61042106657842,58.90547093459043,-10,-0.33,0.33,10,46,36,45.67,46.33,56,3.1622776601683795,3.1622776601683795,3.1622776601683795,3.1622776601683795
11,5,0.08988630003295839,q,55.3,Limited Time - 400ms,l,55.3088584043691,36.40896948414421,47.57713815765308,43.382445744708086,36.40896948414421,47.57713815765308,43.382445744708086,55.3088584043691,-10,-0.33,0.33,10,46,36,45.67,46.33,56,3.1622776601683795,3.1622776601683795,3.1622776601683795,3.1622776601683795
11,6,,,0.0,Limited Time - 400ms,l,50.99299034389597,39.36293253398707,40.62196361586564,42.79474249864186,39.36293253398707,40.62196361586564,42.79474249864186,50.99299034389597,-10,-0.33,0.33,10,46,36,45.67,46.33,56,3.1622776601683795,3.1622776601683795,3.1622776601683795,3.1622776601683795
11,7,0.1839338000281714,q,58.2,Limited Time - 400ms,l,58.17531215143796,41.428214089101665,49.03839759461889,48.77272660743503,41.428214089101665,49.03839759461889,48.77272660743503,58.17531215143796,-10,-0.33,0.33,10,46,36,45.67,46.33,56,3.1622776601683795,3.1622776601683795,3.1622776601683795,3.1622776601683795
11,8,,,0.0,Limited Time - 400ms,l,59.4128044806482,38.69469834645123,45.34172609726801,50.32937040937494,38.69469834645123,45.34172609726801,50.32937040937494,59.4128044806482,-10,-0.33,0.33,10,46,36,45.67,46.33,56,3.1622776601683795,3.1622776601683795,3.1622776601683795,3.1622776601683795
11,9,0.355007000034675,q,50.7,Limited Time - 400ms,l,50.69739108414985,38.5616398934612,37.72014318978805,41.825561831037064,38.5616398934612,37.72014318978805,41.825561831037064,50.69739108414985,-10,-0.33,0.33,10,46,36,45.67,46.33,56,3.1622776601683795,3.1622776601683795,3.1622776601683795,3.1622776601683795
11,10,0.11342509998939931,o,45.6,Limited Time - 400ms,l,51.922488010190214,36.80641133592912,45.63007018654775,49.623590711650486,36.80641133592912,45.63007018654775,49.623590711650486,51.922488010190214,-10,-0.33,0.33,10,46,36,45.67,46.33,56,3.1622776601683795,3.1622776601683795,3.1622776601683795,3.1622776601683795
11,11,0.02298559999326244,o,46.1,Limited Time - 400ms,l,56.955137008974305,39.672811561913036,46.1394468754021,42.87664699050241,39.672811561913036,46.1394468754021,42.87664699050241,56.955137008974305,-10,-0.33,0.33,10,46,36,45.67,46.33,56,3.1622776601683795,3.1622776601683795,3.1622776601683795,3.1622776601683795
11,12,0.09345069999108091,o,44.1,Limited Time - 400ms,l,57.91127791013886,37.91916766395961,44.058644828452685,48.44217386772735,37.91916766395961,44.058644828452685,48.44217386772735,57.91127791013886,-10,-0.33,0.33,10,46,36,45.67,46.33,56,3.1622776601683795,3.1622776601683795,3.1622776601683795,3.1622776601683795
11,13,0.2731731000239961,q,63.2,Limited Time - 400ms,l,63.205016493814554,32.81147694826011,52.80067462537002,47.596838925830895,32.81147694826011,52.80067462537002,47.596838925830895,63.205016493814554,-10,-0.33,0.33,10,46,36,45.67,46.33,56,3.1622776601683795,3.1622776601683795,3.1622776601683795,3.1622776601683795
11,14,0.10699449997628108,o,44.4,Limited Time - 400ms,l,54.15139954428947,42.53066078259254,44.42073771683882,44.21715195068499,42.53066078259254,44.42073771683882,44.21715195068499,54.15139954428947,-10,-0.33,0.33,10,46,36,45.67,46.33,56,3.1622776601683795,3.1622776601683795,3.1622776601683795,3.1622776601683795
11,15,0.20992360002128407,q,58.8,Limited Time - 400ms,l,58.78367559552649,35.05337908632115,49.39651274948634,49.743671739169365,35.05337908632115,49.39651274948634,49.743671739169365,58.78367559552649,-10,-0.33,0.33,10,46,36,45.67,46.33,56,3.1622776601683795,3.1622776601683795,3.1622776601683795,3.1622776601683795
11,16,0.15570030000526458,o,47.4,Limited Time - 400ms,l,53.68578507318764,41.01859122077179,47.38054386602922,46.69585556546605,41.01859122077179,47.38054386602922,46.69585556546605,53.68578507318764,-10,-0.33,0.33,10,46,36,45.67,46.33,56,3.1622776601683795,3.1622776601683795,3.1622776601683795,3.1622776601683795
11,17,0.10134079999988899,w,38.0,Limited Time - 400ms,l,56.51602924426082,37.967436286922165,42.99804321118743,46.91743285112018,37.967436286922165,42.99804321118743,46.91743285112018,56.51602924426082,-10,-0.33,0.33,10,46,36,45.67,46.33,56,3.1622776601683795,3.1622776601683795,3.1622776601683795,3.1622776601683795
11,18,0.15564589999848977,p,47.0,Limited Time - 400ms,l,55.60476899384755,35.79782809481028,47.528671838451515,47.011481748739925,35.79782809481028,47.528671838451515,47.011481748739925,55.60476899384755,-10,-0.33,0.33,10,46,36,45.67,46.33,56,3.1622776601683795,3.1622776601683795,3.1622776601683795,3.1622776601683795
11,19,0.1104856000165455,q,52.9,Limited Time - 400ms,l,52.89343509600554,36.04763245343371,42.21065725553275,43.19426121162116,36.04763245343371,42.21065725553275,43.19426121162116,52.89343509600554,-10,-0.33,0.33,10,46,36,45.67,46.33,56,3.1622776601683795,3.1622776601683795,3.1622776601683795,3.1622776601683795
11,20,0.1142763999523595,o,44.9,Limited Time - 400ms,l,47.15808970153083,35.121394493118096,44.91132412749428,41.705200970176364,35.121394493118096,44.91132412749428,41.705200970176364,47.15808970153083,-10,-0.33,0.33,10,46,36,45.67,46.33,56,3.1622776601683795,3.1622776601683795,3.1622776601683795,3.1622776601683795
12,1,0.5203978000208735,o,49.2,Limited Time - 800ms,l,44.40047443027471,39.951285779626325,49.204494102558186,47.28860361868998,39.951285779626325,44.40047443027471,49.204494102558186,47.28860361868998,-10,-0.33,0.33,10,46,36,45.67,46.33,56,3.1622776601683795,3.1622776601683795,3.1622776601683795,3.1622776601683795
12,2,0.07952959998510778,q,46.9,Limited Time - 800ms,l,46.92903008557677,35.025365578261855,39.586014129919306,58.78882765108012,35.025365578261855,46.92903008557677,39.586014129919306,58.78882765108012,-10,-0.33,0.33,10,46,36,45.67,46.33,56,3.1622776601683795,3.1622776601683795,3.1622776601683795,3.1622776601683795
12,3,0.13995320000685751,p,59.7,Limited Time - 800ms,l,53.07100135072237,32.539805219223254,41.35684928725186,59.722858360790575,32.539805219223254,53.07100135072237,41.35684928725186,59.722858360790575,-10,-0.33,0.33,10,46,36,45.67,46.33,56,3.1622776601683795,3.1622776601683795,3.1622776601683795,3.1622776601683795
12,4,0.12769749999279156,w,36.5,Limited Time - 800ms,l,41.766651616642854,36.45309989037121,44.61042106657842,58.90547093459043,36.45309989037121,41.766651616642854,44.61042106657842,58.90547093459043,-10,-0.33,0.33,10,46,36,45.67,46.33,56,3.1622776601683795,3.1622776601683795,3.1622776601683795,3.1622776601683795
12,5,0.05805260001216084,o,43.4,Limited Time - 800ms,l,47.57713815765308,36.40896948414421,43.382445744708086,55.3088584043691,36.40896948414421,47.57713815765308,43.382445744708086,55.3088584043691,-10,-0.33,0.33,10,46,36,45.67,46.33,56,3.1622776601683795,3.1622776601683795,3.1622776601683795,3.1622776601683795
12,6,0.050180999969597906,q,40.6,Limited Time - 800ms,l,40.62196361586564,39.36293253398707,42.79474249864186,50.99299034389597,39.36293253398707,40.62196361586564,42.79474249864186,50.99299034389597,-10,-0.33,0.33,10,46,36,45.67,46.33,56,3.1622776601683795,3.1622776601683795,3.1622776601683795,3.1622776601683795
12,7,0.08378690003883094,p,58.2,Limited Time - 800ms,l,49.03839759461889,41.428214089101665,48.77272660743503,58.17531215143796,41.428214089101665,49.03839759461889,48.77272660743503,58.17531215143796,-10,-0.33,0.33,10,46,36,45.67,46.33,56,3.1622776601683795,3.1622776601683795,3.1622776601683795,3.1622776601683795
12,8,0.028180500026792288,w,38.7,Limited Time - 800ms,l,45.34172609726801,38.69469834645123,50.32937040937494,59.4128044806482,38.69469834645123,45.34172609726801,50.32937040937494,59.4128044806482,-10,-0.33,0.33,10,46,36,45.67,46.33,56,3.1622776601683795,3.1622776601683795,3.1622776601683795,3.1622776601683795
12,9,0.02508499997202307,o,41.8,Limited Time - 800ms,l,37.72014318978805,38.5616398934612,41.825561831037064,50.69739108414985,38.5616398934612,37.72014318978805,41.825561831037064,50.69739108414985,-10,-0.33,0.33,10,46,36,45.67,46.33,56,3.1622776601683795,3.1622776601683795,3.1622776601683795,3.1622776601683795
12,10,0.0027798000373877585,q,45.6,Limited Time - 800ms,l,45.63007018654775,36.80641133592912,49.623590711650486,51.922488010190214,36.80641133592912,45.63007018654775,49.623590711650486,51.922488010190214,-10,-0.33,0.33,10,46,36,45.67,46.33,56,3.1622776601683795,3.1622776601683795,3.1622776601683795,3.1622776601683795
12,11,0.03836429998045787,p,57.0,Limited Time - 800ms,l,46.1394468754021,39.672811561913036,42.87664699050241,56.955137008974305,39.672811561913036,46.1394468754021,42.87664699050241,56.955137008974305,-10,-0.33,0.33,10,46,36,45.67,46.33,56,3.1622776601683795,3.1622776601683795,3.1622776601683795,3.1622776601683795
12,12,0.058216099976561964,w,37.9,Limited Time - 800ms,l,44.058644828452685,37.91916766395961,48.44217386772735,57.91127791013886,37.91916766395961,44.058644828452685,48.44217386772735,57.91127791013886,-10,-0.33,0.33,10,46,36,45.67,46.33,56,3.1622776601683795,3.1622776601683795,3.1622776601683795,3.1622776601683795
12,13,0.19732670002849773,w,32.8,Limited Time - 800ms,l,52.80067462537002,32.81147694826011,47.596838925830895,63.205016493814554,32.81147694826011,52.80067462537002,47.596838925830895,63.205016493814554,-10,-0.33,0.33,10,46,36,45.67,46.33,56,3.1622776601683795,3.1622776601683795,3.1622776601683795,3.1622776601683795
12,14,0.08447659999364987,o,44.2,Limited Time - 800ms,l,44.42073771683882,42.53066078259254,44.21715195068499,54.15139954428947,42.53066078259254,44.42073771683882,44.21715195068499,54.15139954428947,-10,-0.33,0.33,10,46,36,45.67,46.33,56,3.1622776601683795,3.1622776601683795,3.1622776601683795,3.1622776601683795
12,15,0.1324832999962382,w,35.1,Limited Time - 800ms,l,49.39651274948634,35.05337908632115,49.743671739169365,58.78367559552649,35.05337908632115,49.39651274948634,49.743671739169365,58.78367559552649,-10,-0.33,0.33,10,46,36,45.67,46.33,56,3.1622776601683795,3.1622776601683795,3.1622776601683795,3.1622776601683795
12,16,0.20508430001791567,p,53.7,Limited Time - 800ms,l,47.38054386602922,41.01859122077179,46.69585556546605,53.68578507318764,41.01859122077179,47.38054386602922,46.69585556546605,53.68578507318764,-10,-0.33,0.33,10,46,36,45.67,46.33,56,3.1622776601683795,3.1622776601683795,3.1622776601683795,3.1622776601683795
12,17,0.11392620002152398,q,43.0,Limited Time - 800ms,l,42.99804321118743,37.967436286922165,46.91743285112018,56.51602924426082,37.967436286922165,42.99804321118743,46.91743285112018,56.51602924426082,-10,-0.33,0.33,10,46,36,45.67,46.33,56,3.1622776601683795,3.1622776601683795,3.1622776601683795,3.1622776601683795
12,18,0.14345259999390692,p,55.6,Limited Time - 800ms,l,47.528671838451515,35.79782809481028,47.011481748739925,55.60476899384755,35.79782809481028,47.528671838451515,47.011481748739925,55.60476899384755,-10,-0.33,0.33,10,46,36,45.67,46.33,56,3.1622776601683795,3.1622776601683795,3.1622776601683795,3.1622776601683795
12,19,0.0643860999844037,w,36.0,Limited Time - 800ms,l,42.21065725553275,36.04763245343371,43.19426121162116,52.89343509600554,36.04763245343371,42.21065725553275,43.19426121162116,52.89343509600554,-10,-0.33,0.33,10,46,36,45.67,46.33,56,3.1622776601683795,3.1622776601683795,3.1622776601683795,3.1622776601683795
12,20,0.005334899993613362,w,35.1,Limited Time - 800ms,l,44.91132412749428,35.121394493118096,41.705200970176364,47.15808970153083,35.121394493118096,44.91132412749428,41.705200970176364,47.15808970153083,-10,-0.33,0.33,10,46,36,45.67,46.33,56,3.1622776601683795,3.1622776601683795,3.1622776601683795,3.1622776601683795
13,1,0.3042251000297256,w,56.6,Unlimited Time,i,37.33248467759247,56.64820292514952,84.78550267434031,33.5397793652025,33.5397793652025,37.33248467759247,56.64820292514952,84.78550267434031,-10,-10,10,10,46,36,36,56,56,3.1622776601683795,10,3.1622776601683795,10
13,2,0.07924350001849234,o,49.9,Unlimited Time,i,48.38552964568872,60.66620274228735,49.8941621139871,38.30189010707626,38.30189010707626,48.38552964568872,60.66620274228735,49.8941621139871,-10,-10,10,10,46,36,36,56,56,3.1622776601683795,10,3.1622776601683795,10
13,3,0.04869740002322942,p,39.3,Unlimited Time,i,39.552194246705994,54.83247162998626,27.380922489700595,39.297921974231976,39.297921974231976,39.552194246705994,54.83247162998626,27.380922489700595,-10,-10,10,10,46,36,36,56,56,3.1622776601683795,10,3.1622776601683795,10
13,4,0.09502980002434924,q,45.0,Unlimited Time,i,44.96408262168243,63.153838126201464,56.39877638928574,36.598143623924955,36.598143623924955,44.96408262168243,63.153838126201464,56.39877638928574,-10,-10,10,10,46,36,36,56,56,3.1622776601683795,10,3.1622776601683795,10
13,5,0.17214490001788363,w,56.7,Unlimited Time,i,38.947490692393565,56.727884699443436,74.48387231019329,35.803442292784524,35.803442292784524,38.947490692393565,56.727884699443436,74.48387231019329,-10,-10,10,10,46,36,36,56,56,3.1622776601683795,10,3.1622776601683795,10
13,6,0.2133075000019744,w,56.5,Unlimited Time,i,32.75804879390972,56.47910125968012,57.78302829060671,34.51490310328139,34.51490310328139,32.75804879390972,56.47910125968012,57.78302829060671,-10,-10,10,10,46,36,36,56,56,3.1622776601683795,10,3.1622776601683795,10
13,7,0.12617350002983585,o,42.4,Unlimited Time,i,37.766224364844796,56.33122952315076,42.39664611001072,36.145255316735515,36.145255316735515,37.766224364844796,56.33122952315076,42.39664611001072,-10,-10,10,10,46,36,36,56,56,3.1622776601683795,10,3.1622776601683795,10
13,8,0.1557524999952875,o,58.0,Unlimited Time,i,31.06503661996304,52.48288921516622,57.955389544883914,33.08939173984423,33.08939173984423,31.06503661996304,52.48288921516622,57.955389544883914,-10,-10,10,10,46,36,36,56,56,3.1622776601683795,10,3.1622776601683795,10
13,9,0.08333230001153424,w,50.1,Unlimited Time,i,28.84648985409703,50.065449998817726,35.81853906935538,40.299481573446165,40.299481573446165,28.84648985409703,50.065449998817726,35.81853906935538,-10,-10,10,10,46,36,36,56,56,3.1622776601683795,10,3.1622776601683795,10
13,10,0.10416450002230704,o,68.5,Unlimited Time,i,22.913907033567597,59.82565301250804,68.47257266036665,32.60966729817646,32.60966729817646,22.913907033567597,59.82565301250804,68.47257266036665,-10,-10,10,10,46,36,36,56,56,3.1622776601683795,10,3.1622776601683795,10
13,11,0.08570920000784099,o,60.4,Unlimited Time,i,30.05618898532064,56.79979225035197,60.42954018360187,35.89820925599533,35.89820925599533,30.05618898532064,56.79979225035197,60.42954018360187,-10,-10,10,10,46,36,36,56,56,3.1622776601683795,10,3.1622776601683795,10
13,12,0.020010099979117513,o,55.4,Unlimited Time,i,31.817927986227886,59.39254836389436,55.37478178287532,31.466332150788375,31.466332150788375,31.817927986227886,59.39254836389436,55.37478178287532,-10,-10,10,10,46,36,36,56,56,3.1622776601683795,10,3.1622776601683795,10
13,13,0.0813518000068143,p,38.1,Unlimited Time,i,9.381615940953647,56.92730901082981,70.58810035608279,38.06235076197608,38.06235076197608,9.381615940953647,56.92730901082981,70.58810035608279,-10,-10,10,10,46,36,36,56,56,3.1622776601683795,10,3.1622776601683795,10
13,14,0.09502000000793487,q,38.3,Unlimited Time,i,38.336890054401884,54.30659485070135,60.16312193787012,32.444731390333445,32.444731390333445,38.336890054401884,54.30659485070135,60.16312193787012,-10,-10,10,10,46,36,36,56,56,3.1622776601683795,10,3.1622776601683795,10
13,15,0.07028370001353323,o,36.8,Unlimited Time,i,20.46346927404093,55.12649857237735,36.765191158824706,41.167180926368474,41.167180926368474,20.46346927404093,55.12649857237735,36.765191158824706,-10,-10,10,10,46,36,36,56,56,3.1622776601683795,10,3.1622776601683795,10
13,16,0.08960230002412573,o,58.5,Unlimited Time,i,40.11504044706954,56.544112043554186,58.5410293376259,33.54273661508621,33.54273661508621,40.11504044706954,56.544112043554186,58.5410293376259,-10,-10,10,10,46,36,36,56,56,3.1622776601683795,10,3.1622776601683795,10
13,17,0.04851809999672696,w,54.0,Unlimited Time,i,33.20832340510511,54.02176699965781,47.58156006127338,39.66545577749164,39.66545577749164,33.20832340510511,54.02176699965781,47.58156006127338,-10,-10,10,10,46,36,36,56,56,3.1622776601683795,10,3.1622776601683795,10
13,18,0.0606565999914892,o,54.8,Unlimited Time,i,22.28999569070551,55.970560499912224,54.76551592737228,37.211578715324706,37.211578715324706,22.28999569070551,55.970560499912224,54.76551592737228,-10,-10,10,10,46,36,36,56,56,3.1622776601683795,10,3.1622776601683795,10
13,19,0.05592050001723692,o,56.6,Unlimited Time,i,50.26405886544343,57.93362653477492,56.554067872270764,35.53854625678945,35.53854625678945,50.26405886544343,57.93362653477492,56.554067872270764,-10,-10,10,10,46,36,36,56,56,3.1622776601683795,10,3.1622776601683795,10
13,20,0.061416100012138486,o,52.5,Unlimited Time,i,43.94507710305814,58.72338693309837,52.485713775809685,31.01853116898442,31.01853116898442,43.94507710305814,58.72338693309837,52.485713775809685,-10,-10,10,10,46,36,36,56,56,3.1622776601683795,10,3.1622776601683795,10
14,1,0.2750711000408046,o,33.7,Limited Time - 400ms,h,45.81303938691877,32.8160715282708,33.700366418595024,56.94158768746217,45.81303938691877,33.700366418595024,32.8160715282708,56.94158768746217,-10,-0.33,0.33,10,46,36,45.67,46.33,56,10,10,10,10
14,2,0.021809500001836568,q,39.2,Limited Time - 400ms,h,39.22342144019746,44.995596188358775,44.30980047681465,49.308913564124076,39.22342144019746,44.30980047681465,44.995596188358775,49.308913564124076,-10,-0.33,0.33,10,46,36,45.67,46.33,56,10,10,10,10
14,3,0.1541014999966137,w,32.4,Limited Time - 400ms,h,40.98351506977319,32.37680833036242,54.132984065475014,76.17134435860649,40.98351506977319,54.132984065475014,32.37680833036242,76.17134435860649,-10,-0.33,0.33,10,46,36,45.67,46.33,56,10,10,10,10
14,4,0.16496869997354224,w,47.9,Limited Time - 400ms,h,32.432281213574484,47.891830308188766,55.08782450530512,66.43528133254534,32.432281213574484,55.08782450530512,47.891830308188766,66.43528133254534,-10,-0.33,0.33,10,46,36,45.67,46.33,56,10,10,10,10
14,5,0.10880059999180958,w,53.3,Limited Time - 400ms,h,55.44329527041745,53.32140378250266,66.47825574840428,42.30286041102026,55.44329527041745,66.47825574840428,53.32140378250266,42.30286041102026,-10,-0.33,0.33,10,46,36,45.67,46.33,56,10,10,10,10
14,6,0.039924300042912364,o,32.6,Limited Time - 400ms,h,51.03028933467271,49.75436652953162,32.557230223308906,71.19804312753708,51.03028933467271,32.557230223308906,49.75436652953162,71.19804312753708,-10,-0.33,0.33,10,46,36,45.67,46.33,56,10,10,10,10
14,7,0.05704719998175278,w,61.2,Limited Time - 400ms,h,33.13611439369515,61.156163021069936,58.7897220507814,42.35857700698033,33.13611439369515,58.7897220507814,61.156163021069936,42.35857700698033,-10,-0.33,0.33,10,46,36,45.67,46.33,56,10,10,10,10
14,8,0.1799618000513874,p,29.0,Limited Time - 400ms,h,46.975036773307565,49.78518177627626,51.29763319857854,29.019718321876237,46.975036773307565,51.29763319857854,49.78518177627626,29.019718321876237,-10,-0.33,0.33,10,46,36,45.67,46.33,56,10,10,10,10
14,9,0.013528099982067943,w,46.3,Limited Time - 400ms,h,24.754470654430662,46.27591794955395,22.90629714345833,47.21992826464664,24.754470654430662,22.90629714345833,46.27591794955395,47.21992826464664,-10,-0.33,0.33,10,46,36,45.67,46.33,56,10,10,10,10
14,10,0.036963699967600405,o,50.5,Limited Time - 400ms,h,18.173770143373837,55.25517611149425,50.5245400639583,43.04419369745919,18.173770143373837,50.5245400639583,55.25517611149425,43.04419369745919,-10,-0.33,0.33,10,46,36,45.67,46.33,56,10,10,10,10
14,11,0.05603330000303686,o,31.7,Limited Time - 400ms,h,55.446877782474914,50.7967607648833,31.680351583969525,57.88725308543626,55.446877782474914,31.680351583969525,50.7967607648833,57.88725308543626,-10,-0.33,0.33,10,46,36,45.67,46.33,56,10,10,10,10
14,12,0.09441069996682927,o,38.7,Limited Time - 400ms,h,37.780065321037725,51.42067205836823,38.6909519238816,56.96048467638926,37.780065321037725,38.6909519238816,51.42067205836823,56.96048467638926,-10,-0.33,0.33,10,46,36,45.67,46.33,56,10,10,10,10
14,13,,,0.0,Limited Time - 400ms,h,20.533172174286637,39.36595772077914,31.911260322617593,43.01581400858214,20.533172174286637,31.911260322617593,39.36595772077914,43.01581400858214,-10,-0.33,0.33,10,46,36,45.67,46.33,56,10,10,10,10
14,14,,,0.0,Limited Time - 400ms,h,21.836100368018204,35.6878047307403,46.71574523925031,42.402267024072295,21.836100368018204,46.71574523925031,35.6878047307403,42.402267024072295,-10,-0.33,0.33,10,46,36,45.67,46.33,56,10,10,10,10
14,15,0.02588090003700927,o,64.4,Limited Time - 400ms,h,28.0521922603529,45.591125463280676,64.43779468791726,68.90079294289495,28.0521922603529,64.43779468791726,45.591125463280676,68.90079294289495,-10,-0.33,0.33,10,46,36,45.67,46.33,56,10,10,10,10
14,16,0.21910149999894202,w,19.2,Limited Time - 400ms,h,31.836657278426195,19.152934870986062,48.756126004928625,49.45804979038324,31.836657278426195,48.756126004928625,19.152934870986062,49.45804979038324,-10,-0.33,0.33,10,46,36,45.67,46.33,56,10,10,10,10
14,17,0.13932289998047054,o,38.2,Limited Time - 400ms,h,34.1125697420242,65.80291626268617,38.15062951739043,62.746086318524014,34.1125697420242,38.15062951739043,65.80291626268617,62.746086318524014,-10,-0.33,0.33,10,46,36,45.67,46.33,56,10,10,10,10
14,18,0.0707272999570705,w,58.9,Limited Time - 400ms,h,36.79422605350009,58.90955938129006,46.28818168117212,42.66480295021739,36.79422605350009,46.28818168117212,58.90955938129006,42.66480295021739,-10,-0.33,0.33,10,46,36,45.67,46.33,56,10,10,10,10
14,19,0.1163865000125952,p,64.0,Limited Time - 400ms,h,43.48538930434736,48.49298419136898,45.5185710539179,63.997226321089876,43.48538930434736,45.5185710539179,48.49298419136898,63.997226321089876,-10,-0.33,0.33,10,46,36,45.67,46.33,56,10,10,10,10
14,20,0.17518669995479286,q,19.7,Limited Time - 400ms,h,19.701706545457412,45.2723296274377,60.23119177382159,64.47356782013877,19.701706545457412,60.23119177382159,45.2723296274377,64.47356782013877,-10,-0.33,0.33,10,46,36,45.67,46.33,56,10,10,10,10
15,1,0.5522691999794915,o,62.8,Limited Time - 800ms,e,38.85701615602653,52.0025785001919,62.799286042517565,43.37645007507732,43.37645007507732,52.0025785001919,62.799286042517565,38.85701615602653,0,0,0,0,46,46,46,46,46,3.1622776601683795,6.324555320336759,8.366600265340756,10
15,2,0.05946259998017922,q,52.3,Limited Time - 800ms,e,52.31267007984367,54.86269083106198,38.214147427171056,43.8614827075283,43.8614827075283,54.86269083106198,38.214147427171056,52.31267007984367,0,0,0,0,46,46,46,46,46,3.1622776601683795,6.324555320336759,8.366600265340756,10
15,3,0.0568963999976404,p,48.7,Limited Time - 800ms,e,42.1944006488885,40.18683806735713,53.895840010379835,48.6500451517144,48.6500451517144,40.18683806735713,53.895840010379835,42.1944006488885,0,0,0,0,46,46,46,46,46,3.1622776601683795,6.324555320336759,8.366600265340756,10
15,4,0.061402599967550486,q,69.7,Limited Time - 800ms,e,69.71208676251008,43.86563492043006,42.10084660874551,49.825224051679164,49.825224051679164,43.86563492043006,42.10084660874551,69.71208676251008,0,0,0,0,46,46,46,46,46,3.1622776601683795,6.324555320336759,8.366600265340756,10
15,5,0.06285799999022856,o,52.1,Limited Time - 800ms,e,45.45411682006638,57.11552562282014,52.106348882458676,50.87983156051268,50.87983156051268,57.11552562282014,52.106348882458676,45.45411682006638,0,0,0,0,46,46,46,46,46,3.1622776601683795,6.324555320336759,8.366600265340756,10
15,6,0.05728779995115474,q,45.1,Limited Time - 800ms,e,45.08030969962776,52.18972355364916,59.75198547829412,42.71157585659781,42.71157585659781,52.18972355364916,59.75198547829412,45.08030969962776,0,0,0,0,46,46,46,46,46,3.1622776601683795,6.324555320336759,8.366600265340756,10
15,7,0.12695629999507219,p,44.3,Limited Time - 800ms,e,26.828331841429012,45.66436411558956,29.17707036084902,44.30922386719642,44.30922386719642,45.66436411558956,29.17707036084902,26.828331841429012,0,0,0,0,46,46,46,46,46,3.1622776601683795,6.324555320336759,8.366600265340756,10
15,8,0.09832180000375956,w,44.0,Limited Time - 800ms,e,45.80578301035835,43.98376512308018,31.492624534990696,49.917466774509315,49.917466774509315,43.98376512308018,31.492624534990696,45.80578301035835,0,0,0,0,46,46,46,46,46,3.1622776601683795,6.324555320336759,8.366600265340756,10
15,9,0.07805289997486398,o,53.4,Limited Time - 800ms,e,41.183548399459,46.29550500074732,53.4306224729123,42.992604211543814,42.992604211543814,46.29550500074732,53.4306224729123,41.183548399459,0,0,0,0,46,46,46,46,46,3.1622776601683795,6.324555320336759,8.366600265340756,10
15,10,0.1290943999774754,w,45.0,Limited Time - 800ms,e,36.858887414585176,45.01731580165199,42.30263550499015,44.11768392592987,44.11768392592987,45.01731580165199,42.30263550499015,36.858887414585176,0,0,0,0,46,46,46,46,46,3.1622776601683795,6.324555320336759,8.366600265340756,10
15,11,0.1747163999825716,p,44.9,Limited Time - 800ms,e,59.4401190262802,43.32084538140786,29.80080033672622,44.94587364696086,44.94587364696086,43.32084538140786,29.80080033672622,59.4401190262802,0,0,0,0,46,46,46,46,46,3.1622776601683795,6.324555320336759,8.366600265340756,10
15,12,0.122723100008443,q,61.1,Limited Time - 800ms,e,61.107833991259895,44.893870283962755,38.64471057471604,45.98872354251588,45.98872354251588,44.893870283962755,38.64471057471604,61.107833991259895,0,0,0,0,46,46,46,46,46,3.1622776601683795,6.324555320336759,8.366600265340756,10
15,13,0.02840690000448376,w,55.3,Limited Time - 800ms,e,55.60827877959396,55.34642154972884,36.89297469462914,39.56427831891088,39.56427831891088,55.34642154972884,36.89297469462914,55.60827877959396,0,0,0,0,46,46,46,46,46,3.1622776601683795,6.324555320336759,8.366600265340756,10
15,14,0.13195840001571923,o,35.1,Limited Time - 800ms,e,23.10624488833668,63.81654272436116,35.13401770497502,38.44510765215882,38.44510765215882,63.81654272436116,35.13401770497502,23.10624488833668,0,0,0,0,46,46,46,46,46,3.1622776601683795,6.324555320336759,8.366600265340756,10
15,15,0.04830610001226887,q,32.7,Limited Time - 800ms,e,32.74448945054277,40.99348900659025,47.74008227027513,48.16808515847625,48.16808515847625,40.99348900659025,47.74008227027513,32.74448945054277,0,0,0,0,46,46,46,46,46,3.1622776601683795,6.324555320336759,8.366600265340756,10
15,16,0.19055900000967085,p,51.8,Limited Time - 800ms,e,46.933471447749305,45.41795006893173,37.22738689607425,51.75035238540926,51.75035238540926,45.41795006893173,37.22738689607425,46.933471447749305,0,0,0,0,46,46,46,46,46,3.1622776601683795,6.324555320336759,8.366600265340756,10
15,17,0.11063040001317859,w,37.8,Limited Time - 800ms,e,46.40471481099359,37.76918337631527,53.98442408804998,48.448891572680466,48.448891572680466,37.76918337631527,53.98442408804998,46.40471481099359,0,0,0,0,46,46,46,46,46,3.1622776601683795,6.324555320336759,8.366600265340756,10
15,18,0.08906930004013702,o,62.4,Limited Time - 800ms,e,46.94082643968444,29.989624869441048,62.37492607409666,46.414153365051725,46.414153365051725,29.989624869441048,62.37492607409666,46.94082643968444,0,0,0,0,46,46,46,46,46,3.1622776601683795,6.324555320336759,8.366600265340756,10
15,19,0.04007579997414723,q,45.2,Limited Time - 800ms,e,45.18709513879592,48.428500960403674,42.67265453169865,48.56487157353459,48.56487157353459,48.428500960403674,42.67265453169865,45.18709513879592,0,0,0,0,46,46,46,46,46,3.1622776601683795,6.324555320336759,8.366600265340756,10
15,20,0.0652049999916926,p,45.2,Limited Time - 800ms,e,38.83291067672687,55.54355326426742,31.658135726646776,45.21108019193209,45.21108019193209,55.54355326426742,31.658135726646776,38.83291067672687,0,0,0,0,46,46,46,46,46,3.1622776601683795,6.324555320336759,8.366600265340756,10
16,1,0.3353822000208311,o,32.8,Unlimited Time,h,33.700366418595024,56.94158768746217,32.8160715282708,45.81303938691877,45.81303938691877,33.700366418595024,32.8160715282708,56.94158768746217,-10,-0.33,0.33,10,46,36,45.67,46.33,56,10,10,10,10
16,2,0.16383520001545548,p,39.2,Unlimited Time,h,44.30980047681465,49.308913564124076,44.995596188358775,39.22342144019746,39.22342144019746,44.30980047681465,44.995596188358775,49.308913564124076,-10,-0.33,0.33,10,46,36,45.67,46.33,56,10,10,10,10
16,3,0.18482159997802228,w,76.2,Unlimited Time,h,54.132984065475014,76.17134435860649,32.37680833036242,40.98351506977319,40.98351506977319,54.132984065475014,32.37680833036242,76.17134435860649,-10,-0.33,0.33,10,46,36,45.67,46.33,56,10,10,10,10
16,4,0.13830200000666082,q,55.1,Unlimited Time,h,55.08782450530512,66.43528133254534,47.891830308188766,32.432281213574484,32.432281213574484,55.08782450530512,47.891830308188766,66.43528133254534,-10,-0.33,0.33,10,46,36,45.67,46.33,56,10,10,10,10
16,5,0.12644980003824458,w,42.3,Unlimited Time,h,66.47825574840428,42.30286041102026,53.32140378250266,55.44329527041745,55.44329527041745,66.47825574840428,53.32140378250266,42.30286041102026,-10,-0.33,0.33,10,46,36,45.67,46.33,56,10,10,10,10
16,6,0.04487490002065897,w,71.2,Unlimited Time,h,32.557230223308906,71.19804312753708,49.75436652953162,51.03028933467271,51.03028933467271,32.557230223308906,49.75436652953162,71.19804312753708,-10,-0.33,0.33,10,46,36,45.67,46.33,56,10,10,10,10
16,7,0.46575859998119995,w,42.4,Unlimited Time,h,58.7897220507814,42.35857700698033,61.156163021069936,33.13611439369515,33.13611439369515,58.7897220507814,61.156163021069936,42.35857700698033,-10,-0.33,0.33,10,46,36,45.67,46.33,56,10,10,10,10
16,8,0.03682410001056269,w,29.0,Unlimited Time,h,51.29763319857854,29.019718321876237,49.78518177627626,46.975036773307565,46.975036773307565,51.29763319857854,49.78518177627626,29.019718321876237,-10,-0.33,0.33,10,46,36,45.67,46.33,56,10,10,10,10
16,9,0.4221609000233002,w,47.2,Unlimited Time,h,22.90629714345833,47.21992826464664,46.27591794955395,24.754470654430662,24.754470654430662,22.90629714345833,46.27591794955395,47.21992826464664,-10,-0.33,0.33,10,46,36,45.67,46.33,56,10,10,10,10
16,10,0.5907255999627523,w,43.0,Unlimited Time,h,50.5245400639583,43.04419369745919,55.25517611149425,18.173770143373837,18.173770143373837,50.5245400639583,55.25517611149425,43.04419369745919,-10,-0.33,0.33,10,46,36,45.67,46.33,56,10,10,10,10
16,11,0.3819157999823801,o,50.8,Unlimited Time,h,31.680351583969525,57.88725308543626,50.7967607648833,55.446877782474914,55.446877782474914,31.680351583969525,50.7967607648833,57.88725308543626,-10,-0.33,0.33,10,46,36,45.67,46.33,56,10,10,10,10
16,12,0.12387910002144054,p,37.8,Unlimited Time,h,38.6909519238816,56.96048467638926,51.42067205836823,37.780065321037725,37.780065321037725,38.6909519238816,51.42067205836823,56.96048467638926,-10,-0.33,0.33,10,46,36,45.67,46.33,56,10,10,10,10
16,13,0.2904539000010118,q,31.9,Unlimited Time,h,31.911260322617593,43.01581400858214,39.36595772077914,20.533172174286637,20.533172174286637,31.911260322617593,39.36595772077914,43.01581400858214,-10,-0.33,0.33,10,46,36,45.67,46.33,56,10,10,10,10
16,14,0.08669989998452365,q,46.7,Unlimited Time,h,46.71574523925031,42.402267024072295,35.6878047307403,21.836100368018204,21.836100368018204,46.71574523925031,35.6878047307403,42.402267024072295,-10,-0.33,0.33,10,46,36,45.67,46.33,56,10,10,10,10
16,15,0.06588299997383729,o,45.6,Unlimited Time,h,64.43779468791726,68.90079294289495,45.591125463280676,28.0521922603529,28.0521922603529,64.43779468791726,45.591125463280676,68.90079294289495,-10,-0.33,0.33,10,46,36,45.67,46.33,56,10,10,10,10
16,16,0.30220949999056756,w,49.5,Unlimited Time,h,48.756126004928625,49.45804979038324,19.152934870986062,31.836657278426195,31.836657278426195,48.756126004928625,19.152934870986062,49.45804979038324,-10,-0.33,0.33,10,46,36,45.67,46.33,56,10,10,10,10
16,17,0.23387379996711388,o,65.8,Unlimited Time,h,38.15062951739043,62.746086318524014,65.80291626268617,34.1125697420242,34.1125697420242,38.15062951739043,65.80291626268617,62.746086318524014,-10,-0.33,0.33,10,46,36,45.67,46.33,56,10,10,10,10
16,18,0.32846729998709634,o,58.9,Unlimited Time,h,46.28818168117212,42.66480295021739,58.90955938129006,36.79422605350009,36.79422605350009,46.28818168117212,58.90955938129006,42.66480295021739,-10,-0.33,0.33,10,46,36,45.67,46.33,56,10,10,10,10
16,19,0.19967970001744106,o,48.5,Unlimited Time,h,45.5185710539179,63.997226321089876,48.49298419136898,43.48538930434736,43.48538930434736,45.5185710539179,48.49298419136898,63.997226321089876,-10,-0.33,0.33,10,46,36,45.67,46.33,56,10,10,10,10
16,20,0.2060300000011921,o,45.3,Unlimited Time,h,60.23119177382159,64.47356782013877,45.2723296274377,19.701706545457412,19.701706545457412,60.23119177382159,45.2723296274377,64.47356782013877,-10,-0.33,0.33,10,46,36,45.67,46.33,56,10,10,10,10
17,1,0.3409856000216678,w,33.5,Limited Time - 400ms,i,56.64820292514952,33.5397793652025,37.33248467759247,84.78550267434031,33.5397793652025,37.33248467759247,56.64820292514952,84.78550267434031,-10,-10,10,10,46,36,36,56,56,3.1622776601683795,10,3.1622776601683795,10
17,2,0.25468750001164153,o,48.4,Limited Time - 400ms,i,60.66620274228735,38.30189010707626,48.38552964568872,49.8941621139871,38.30189010707626,48.38552964568872,60.66620274228735,49.8941621139871,-10,-10,10,10,46,36,36,56,56,3.1622776601683795,10,3.1622776601683795,10
17,3,0.21870959998341277,p,27.4,Limited Time - 400ms,i,54.83247162998626,39.297921974231976,39.552194246705994,27.380922489700595,39.297921974231976,39.552194246705994,54.83247162998626,27.380922489700595,-10,-10,10,10,46,36,36,56,56,3.1622776601683795,10,3.1622776601683795,10
17,4,0.23571889998856932,q,63.2,Limited Time - 400ms,i,63.153838126201464,36.598143623924955,44.96408262168243,56.39877638928574,36.598143623924955,44.96408262168243,63.153838126201464,56.39877638928574,-10,-10,10,10,46,36,36,56,56,3.1622776601683795,10,3.1622776601683795,10
17,5,0.22038409998640418,q,56.7,Limited Time - 400ms,i,56.727884699443436,35.803442292784524,38.947490692393565,74.48387231019329,35.803442292784524,38.947490692393565,56.727884699443436,74.48387231019329,-10,-10,10,10,46,36,36,56,56,3.1622776601683795,10,3.1622776601683795,10
17,6,0.22839269996620715,q,56.5,Limited Time - 400ms,i,56.47910125968012,34.51490310328139,32.75804879390972,57.78302829060671,34.51490310328139,32.75804879390972,56.47910125968012,57.78302829060671,-10,-10,10,10,46,36,36,56,56,3.1622776601683795,10,3.1622776601683795,10
17,7,0.042622099979780614,q,56.3,Limited Time - 400ms,i,56.33122952315076,36.145255316735515,37.766224364844796,42.39664611001072,36.145255316735515,37.766224364844796,56.33122952315076,42.39664611001072,-10,-10,10,10,46,36,36,56,56,3.1622776601683795,10,3.1622776601683795,10
17,8,0.20966269995551556,q,52.5,Limited Time - 400ms,i,52.48288921516622,33.08939173984423,31.06503661996304,57.955389544883914,33.08939173984423,31.06503661996304,52.48288921516622,57.955389544883914,-10,-10,10,10,46,36,36,56,56,3.1622776601683795,10,3.1622776601683795,10
17,9,0.16429430001880974,q,50.1,Limited Time - 400ms,i,50.065449998817726,40.299481573446165,28.84648985409703,35.81853906935538,40.299481573446165,28.84648985409703,50.065449998817726,35.81853906935538,-10,-10,10,10,46,36,36,56,56,3.1622776601683795,10,3.1622776601683795,10
17,10,0.23035630001686513,q,59.8,Limited Time - 400ms,i,59.82565301250804,32.60966729817646,22.913907033567597,68.47257266036665,32.60966729817646,22.913907033567597,59.82565301250804,68.47257266036665,-10,-10,10,10,46,36,36,56,56,3.1622776601683795,10,3.1622776601683795,10
17,11,0.2100575999938883,q,56.8,Limited Time - 400ms,i,56.79979225035197,35.89820925599533,30.05618898532064,60.42954018360187,35.89820925599533,30.05618898532064,56.79979225035197,60.42954018360187,-10,-10,10,10,46,36,36,56,56,3.1622776601683795,10,3.1622776601683795,10
17,12,0.11893090000376105,q,59.4,Limited Time - 400ms,i,59.39254836389436,31.466332150788375,31.817927986227886,55.37478178287532,31.466332150788375,31.817927986227886,59.39254836389436,55.37478178287532,-10,-10,10,10,46,36,36,56,56,3.1622776601683795,10,3.1622776601683795,10
17,13,0.19404390000272542,q,56.9,Limited Time - 400ms,i,56.92730901082981,38.06235076197608,9.381615940953647,70.58810035608279,38.06235076197608,9.381615940953647,56.92730901082981,70.58810035608279,-10,-10,10,10,46,36,36,56,56,3.1622776601683795,10,3.1622776601683795,10
17,14,0.12940340000204742,q,54.3,Limited Time - 400ms,i,54.30659485070135,32.444731390333445,38.336890054401884,60.16312193787012,32.444731390333445,38.336890054401884,54.30659485070135,60.16312193787012,-10,-10,10,10,46,36,36,56,56,3.1622776601683795,10,3.1622776601683795,10
17,15,0.1053906999877654,q,55.1,Limited Time - 400ms,i,55.12649857237735,41.167180926368474,20.46346927404093,36.765191158824706,41.167180926368474,20.46346927404093,55.12649857237735,36.765191158824706,-10,-10,10,10,46,36,36,56,56,3.1622776601683795,10,3.1622776601683795,10
17,16,0.022808099980466068,q,56.5,Limited Time - 400ms,i,56.544112043554186,33.54273661508621,40.11504044706954,58.5410293376259,33.54273661508621,40.11504044706954,56.544112043554186,58.5410293376259,-10,-10,10,10,46,36,36,56,56,3.1622776601683795,10,3.1622776601683795,10
17,17,0.07041430001845583,q,54.0,Limited Time - 400ms,i,54.02176699965781,39.66545577749164,33.20832340510511,47.58156006127338,39.66545577749164,33.20832340510511,54.02176699965781,47.58156006127338,-10,-10,10,10,46,36,36,56,56,3.1622776601683795,10,3.1622776601683795,10
17,18,0.16165220004040748,q,56.0,Limited Time - 400ms,i,55.970560499912224,37.211578715324706,22.28999569070551,54.76551592737228,37.211578715324706,22.28999569070551,55.970560499912224,54.76551592737228,-10,-10,10,10,46,36,36,56,56,3.1622776601683795,10,3.1622776601683795,10
17,19,0.08442750002723187,q,57.9,Limited Time - 400ms,i,57.93362653477492,35.53854625678945,50.26405886544343,56.554067872270764,35.53854625678945,50.26405886544343,57.93362653477492,56.554067872270764,-10,-10,10,10,46,36,36,56,56,3.1622776601683795,10,3.1622776601683795,10
17,20,0.06405250000534579,q,58.7,Limited Time - 400ms,i,58.72338693309837,31.01853116898442,43.94507710305814,52.485713775809685,31.01853116898442,43.94507710305814,58.72338693309837,52.485713775809685,-10,-10,10,10,46,36,36,56,56,3.1622776601683795,10,3.1622776601683795,10
18,1,0.38042569998651743,q,37.3,Limited Time - 800ms,i,37.33248467759247,56.64820292514952,33.5397793652025,84.78550267434031,33.5397793652025,37.33248467759247,56.64820292514952,84.78550267434031,-10,-10,10,10,46,36,36,56,56,3.1622776601683795,10,3.1622776601683795,10
18,2,0.22709270002087578,w,60.7,Limited Time - 800ms,i,48.38552964568872,60.66620274228735,38.30189010707626,49.8941621139871,38.30189010707626,48.38552964568872,60.66620274228735,49.8941621139871,-10,-10,10,10,46,36,36,56,56,3.1622776601683795,10,3.1622776601683795,10
18,3,0.14521550002973527,o,39.3,Limited Time - 800ms,i,39.552194246705994,54.83247162998626,39.297921974231976,27.380922489700595,39.297921974231976,39.552194246705994,54.83247162998626,27.380922489700595,-10,-10,10,10,46,36,36,56,56,3.1622776601683795,10,3.1622776601683795,10
18,4,0.2626571000437252,p,56.4,Limited Time - 800ms,i,44.96408262168243,63.153838126201464,36.598143623924955,56.39877638928574,36.598143623924955,44.96408262168243,63.153838126201464,56.39877638928574,-10,-10,10,10,46,36,36,56,56,3.1622776601683795,10,3.1622776601683795,10
18,5,0.17739110003458336,w,56.7,Limited Time - 800ms,i,38.947490692393565,56.727884699443436,35.803442292784524,74.48387231019329,35.803442292784524,38.947490692393565,56.727884699443436,74.48387231019329,-10,-10,10,10,46,36,36,56,56,3.1622776601683795,10,3.1622776601683795,10
18,6,0.20600339997326955,w,56.5,Limited Time - 800ms,i,32.75804879390972,56.47910125968012,34.51490310328139,57.78302829060671,34.51490310328139,32.75804879390972,56.47910125968012,57.78302829060671,-10,-10,10,10,46,36,36,56,56,3.1622776601683795,10,3.1622776601683795,10
18,7,0.1880648999940604,w,56.3,Limited Time - 800ms,i,37.766224364844796,56.33122952315076,36.145255316735515,42.39664611001072,36.145255316735515,37.766224364844796,56.33122952315076,42.39664611001072,-10,-10,10,10,46,36,36,56,56,3.1622776601683795,10,3.1622776601683795,10
18,8,0.13870150002185255,w,52.5,Limited Time - 800ms,i,31.06503661996304,52.48288921516622,33.08939173984423,57.955389544883914,33.08939173984423,31.06503661996304,52.48288921516622,57.955389544883914,-10,-10,10,10,46,36,36,56,56,3.1622776601683795,10,3.1622776601683795,10
18,9,0.22007490001851693,w,50.1,Limited Time - 800ms,i,28.84648985409703,50.065449998817726,40.299481573446165,35.81853906935538,40.299481573446165,28.84648985409703,50.065449998817726,35.81853906935538,-10,-10,10,10,46,36,36,56,56,3.1622776601683795,10,3.1622776601683795,10
18,10,0.1141287999926135,w,59.8,Limited Time - 800ms,i,22.913907033567597,59.82565301250804,32.60966729817646,68.47257266036665,32.60966729817646,22.913907033567597,59.82565301250804,68.47257266036665,-10,-10,10,10,46,36,36,56,56,3.1622776601683795,10,3.1622776601683795,10
18,11,0.14691640000091866,w,56.8,Limited Time - 800ms,i,30.05618898532064,56.79979225035197,35.89820925599533,60.42954018360187,35.89820925599533,30.05618898532064,56.79979225035197,60.42954018360187,-10,-10,10,10,46,36,36,56,56,3.1622776601683795,10,3.1622776601683795,10
18,12,0.5113592999987304,p,55.4,Limited Time - 800ms,i,31.817927986227886,59.39254836389436,31.466332150788375,55.37478178287532,31.466332150788375,31.817927986227886,59.39254836389436,55.37478178287532,-10,-10,10,10,46,36,36,56,56,3.1622776601683795,10,3.1622776601683795,10
18,13,0.35811269999248907,p,70.6,Limited Time - 800ms,i,9.381615940953647,56.92730901082981,38.06235076197608,70.58810035608279,38.06235076197608,9.381615940953647,56.92730901082981,70.58810035608279,-10,-10,10,10,46,36,36,56,56,3.1622776601683795,10,3.1622776601683795,10
18,14,0.25967499997932464,p,60.2,Limited Time - 800ms,i,38.336890054401884,54.30659485070135,32.444731390333445,60.16312193787012,32.444731390333445,38.336890054401884,54.30659485070135,60.16312193787012,-10,-10,10,10,46,36,36,56,56,3.1622776601683795,10,3.1622776601683795,10
18,15,0.2685118000372313,p,36.8,Limited Time - 800ms,i,20.46346927404093,55.12649857237735,41.167180926368474,36.765191158824706,41.167180926368474,20.46346927404093,55.12649857237735,36.765191158824706,-10,-10,10,10,46,36,36,56,56,3.1622776601683795,10,3.1622776601683795,10
18,16,0.3240770000265911,w,56.5,Limited Time - 800ms,i,40.11504044706954,56.544112043554186,33.54273661508621,58.5410293376259,33.54273661508621,40.11504044706954,56.544112043554186,58.5410293376259,-10,-10,10,10,46,36,36,56,56,3.1622776601683795,10,3.1622776601683795,10
18,17,0.2568761000293307,w,54.0,Limited Time - 800ms,i,33.20832340510511,54.02176699965781,39.66545577749164,47.58156006127338,39.66545577749164,33.20832340510511,54.02176699965781,47.58156006127338,-10,-10,10,10,46,36,36,56,56,3.1622776601683795,10,3.1622776601683795,10
18,18,0.2098775000195019,w,56.0,Limited Time - 800ms,i,22.28999569070551,55.970560499912224,37.211578715324706,54.76551592737228,37.211578715324706,22.28999569070551,55.970560499912224,54.76551592737228,-10,-10,10,10,46,36,36,56,56,3.1622776601683795,10,3.1622776601683795,10
18,19,0.18984210002236068,w,57.9,Limited Time - 800ms,i,50.26405886544343,57.93362653477492,35.53854625678945,56.554067872270764,35.53854625678945,50.26405886544343,57.93362653477492,56.554067872270764,-10,-10,10,10,46,36,36,56,56,3.1622776601683795,10,3.1622776601683795,10
