Round Number,Trial Number,Reaction Time,Choice,Reward,Time Condition,Payoff Condition,Q mapped,W mapped,O mapped,P mapped,One value,Two value,Three value,Four value,One mean,Two mean,Three mean,Four mean,Mean Shift,One shifted mean,Two shifted mean,Three shifted mean,Four shifted mean,One SD,Two SD,Three SD,Four SD
1,1,1.2792001999914646,w,41.8,Unlimited Time,l,54.59105002107553,41.786070108501214,41.27812632517491,32.74990540393245,32.74990540393245,41.27812632517491,41.786070108501214,54.59105002107553,-10,-0.33,0.33,10,44,34,43.67,44.33,54,3.1622776601683795,3.1622776601683795,3.1622776601683795,3.1622776601683795
1,2,0.6449506999924779,o,38.7,Unlimited Time,l,53.14464505586691,46.137246060174604,38.74175782754565,31.282983624467995,31.282983624467995,38.74175782754565,46.137246060174604,53.14464505586691,-10,-0.33,0.33,10,44,34,43.67,44.33,54,3.1622776601683795,3.1622776601683795,3.1622776601683795,3.1622776601683795
1,3,0.51708520000102,p,27.2,Unlimited Time,l,53.832086257954856,44.630869675996244,39.67869398480571,27.228623422259894,27.228623422259894,39.67869398480571,44.630869675996244,53.832086257954856,-10,-0.33,0.33,10,44,34,43.67,44.33,54,3.1622776601683795,3.1622776601683795,3.1622776601683795,3.1622776601683795
1,4,0.4292227999540046,q,53.8,Unlimited Time,l,53.794104981571685,43.67014761207521,43.11764924601199,36.18982916844594,36.18982916844594,43.11764924601199,43.67014761207521,53.794104981571685,-10,-0.33,0.33,10,44,34,43.67,44.33,54,3.1622776601683795,3.1622776601683795,3.1622776601683795,3.1622776601683795
1,5,0.5944088000105694,q,51.8,Unlimited Time,l,51.783600007177654,46.89346849019759,41.15902932336375,30.104467650281045,30.104467650281045,41.15902932336375,46.89346849019759,51.783600007177654,-10,-0.33,0.33,10,44,34,43.67,44.33,54,3.1622776601683795,3.1622776601683795,3.1622776601683795,3.1622776601683795
1,6,1.0831451999838464,q,56.0,Unlimited Time,l,56.00199228274168,46.15753143330403,45.856042057408985,43.75585104299846,43.75585104299846,45.856042057408985,46.15753143330403,56.00199228274168,-10,-0.33,0.33,10,44,34,43.67,44.33,54,3.1622776601683795,3.1622776601683795,3.1622776601683795,3.1622776601683795
1,7,0.5039530000067316,q,53.9,Unlimited Time,l,53.93144750537458,40.96173232601841,42.53623662169456,29.635067964110416,29.635067964110416,42.53623662169456,40.96173232601841,53.93144750537458,-10,-0.33,0.33,10,44,34,43.67,44.33,54,3.1622776601683795,3.1622776601683795,3.1622776601683795,3.1622776601683795
1,8,0.34008699998958036,o,45.3,Unlimited Time,l,56.09141964713663,41.45349450240222,45.29229626452399,33.89508414888364,33.89508414888364,45.29229626452399,41.45349450240222,56.09141964713663,-10,-0.33,0.33,10,44,34,43.67,44.33,54,3.1622776601683795,3.1622776601683795,3.1622776601683795,3.1622776601683795
1,9,0.398756799986586,p,28.9,Unlimited Time,l,53.061189483689766,45.40262382390722,43.33966853267123,28.877173436848548,28.877173436848548,43.33966853267123,45.40262382390722,53.061189483689766,-10,-0.33,0.33,10,44,34,43.67,44.33,54,3.1622776601683795,3.1622776601683795,3.1622776601683795,3.1622776601683795
1,10,0.34149379999144003,w,51.1,Unlimited Time,l,53.35388604280303,51.131161202046144,44.64376082368236,31.751743153092217,31.751743153092217,44.64376082368236,51.131161202046144,53.35388604280303,-10,-0.33,0.33,10,44,34,43.67,44.33,54,3.1622776601683795,3.1622776601683795,3.1622776601683795,3.1622776601683795
1,11,0.5676933000213467,w,44.1,Unlimited Time,l,54.46081606615124,44.07416259946779,43.82034149857347,27.599970999550766,27.599970999550766,43.82034149857347,44.07416259946779,54.46081606615124,-10,-0.33,0.33,10,44,34,43.67,44.33,54,3.1622776601683795,3.1622776601683795,3.1622776601683795,3.1622776601683795
1,12,0.3445973999914713,q,52.7,Unlimited Time,l,52.685505451574016,46.55860956501602,44.94270252253214,33.80890531672292,33.80890531672292,44.94270252253214,46.55860956501602,52.685505451574016,-10,-0.33,0.33,10,44,34,43.67,44.33,54,3.1622776601683795,3.1622776601683795,3.1622776601683795,3.1622776601683795
1,13,0.36772079998627305,q,51.0,Unlimited Time,l,51.02407010123808,43.94301489911432,46.47544082741562,31.543305775329788,31.543305775329788,46.47544082741562,43.94301489911432,51.02407010123808,-10,-0.33,0.33,10,44,34,43.67,44.33,54,3.1622776601683795,3.1622776601683795,3.1622776601683795,3.1622776601683795
1,14,0.3476671000244096,q,60.6,Unlimited Time,l,60.635554710756956,46.11810931081855,41.10872162124668,37.51051331719463,37.51051331719463,41.10872162124668,46.11810931081855,60.635554710756956,-10,-0.33,0.33,10,44,34,43.67,44.33,54,3.1622776601683795,3.1622776601683795,3.1622776601683795,3.1622776601683795
1,15,0.3867571000009775,q,49.9,Unlimited Time,l,49.900011416548004,42.979324173961366,54.59639546881411,28.544283192726077,28.544283192726077,54.59639546881411,42.979324173961366,49.900011416548004,-10,-0.33,0.33,10,44,34,43.67,44.33,54,3.1622776601683795,3.1622776601683795,3.1622776601683795,3.1622776601683795
1,16,0.5154846000368707,o,44.1,Unlimited Time,l,55.98621863577582,38.09730587339244,44.12584089061155,37.87519037013256,37.87519037013256,44.12584089061155,38.09730587339244,55.98621863577582,-10,-0.33,0.33,10,44,34,43.67,44.33,54,3.1622776601683795,3.1622776601683795,3.1622776601683795,3.1622776601683795
1,17,0.26732119999360293,p,27.7,Unlimited Time,l,54.19069716896084,47.846773048495024,45.44976123618437,27.749802438854186,27.749802438854186,45.44976123618437,47.846773048495024,54.19069716896084,-10,-0.33,0.33,10,44,34,43.67,44.33,54,3.1622776601683795,3.1622776601683795,3.1622776601683795,3.1622776601683795
1,18,0.2011338000302203,o,45.0,Unlimited Time,l,53.37432721117004,47.75534612870628,44.96206200729012,33.20722220431353,33.20722220431353,44.96206200729012,47.75534612870628,53.37432721117004,-10,-0.33,0.33,10,44,34,43.67,44.33,54,3.1622776601683795,3.1622776601683795,3.1622776601683795,3.1622776601683795
1,19,0.22016060003079474,q,54.7,Unlimited Time,l,54.74597798805665,46.74048286238203,43.33577696251858,37.96194883895032,37.96194883895032,43.33577696251858,46.74048286238203,54.74597798805665,-10,-0.33,0.33,10,44,34,43.67,44.33,54,3.1622776601683795,3.1622776601683795,3.1622776601683795,3.1622776601683795
1,20,0.0077603000099770725,o,40.6,Unlimited Time,l,52.43480729557617,46.85489516743368,40.625116167227524,35.822895314949065,35.822895314949065,40.625116167227524,46.85489516743368,52.43480729557617,-10,-0.33,0.33,10,44,34,43.67,44.33,54,3.1622776601683795,3.1622776601683795,3.1622776601683795,3.1622776601683795
2,1,,,0.0,Limited Time,e,35.41512279986362,42.29955773033468,37.44020307914745,42.39526377503687,42.39526377503687,37.44020307914745,35.41512279986362,42.29955773033468,0,0,0,0,44,44,44,44,44,3.1622776601683795,6.324555320336759,8.366600265340756,10
2,2,,,0.0,Limited Time,e,30.855094800516152,47.00058331156959,47.00136465213083,44.89656189022152,44.89656189022152,47.00136465213083,30.855094800516152,47.00058331156959,0,0,0,0,44,44,44,44,44,3.1622776601683795,6.324555320336759,8.366600265340756,10
2,3,0.27883440000005066,w,43.6,Limited Time,e,37.981814461577805,43.606506366581264,60.10817184443372,46.83014061981445,46.83014061981445,60.10817184443372,37.981814461577805,43.606506366581264,0,0,0,0,44,44,44,44,44,3.1622776601683795,6.324555320336759,8.366600265340756,10
2,4,0.24485449999338016,o,56.5,Limited Time,e,59.807078099606144,40.64519451051613,56.47615991477738,42.23375673595982,42.23375673595982,56.47615991477738,59.807078099606144,40.64519451051613,0,0,0,0,44,44,44,44,44,3.1622776601683795,6.324555320336759,8.366600265340756,10
2,5,0.05020230001537129,p,43.2,Limited Time,e,36.89777766676829,61.56493539656117,40.19461853599398,43.179164611364996,43.179164611364996,40.19461853599398,36.89777766676829,61.56493539656117,0,0,0,0,44,44,44,44,44,3.1622776601683795,6.324555320336759,8.366600265340756,10
2,6,0.21948649996193126,o,42.3,Limited Time,e,44.27527161735348,51.06283568807879,42.26380673796506,41.845787583156664,41.845787583156664,42.26380673796506,44.27527161735348,51.06283568807879,0,0,0,0,44,44,44,44,44,3.1622776601683795,6.324555320336759,8.366600265340756,10
2,7,0.10067489999346435,o,44.6,Limited Time,e,28.984433663500006,32.32741860801581,44.59200343641384,49.039037375205524,49.039037375205524,44.59200343641384,28.984433663500006,32.32741860801581,0,0,0,0,44,44,44,44,44,3.1622776601683795,6.324555320336759,8.366600265340756,10
2,8,0.0634068000363186,o,41.7,Limited Time,e,32.40038529545135,28.763253992060278,41.69213608828879,46.15539000756816,46.15539000756816,41.69213608828879,32.40038529545135,28.763253992060278,0,0,0,0,44,44,44,44,44,3.1622776601683795,6.324555320336759,8.366600265340756,10
2,9,0.02212630002759397,w,38.0,Limited Time,e,48.798325916970036,37.953606041860965,50.11143788730042,43.459313307336714,43.459313307336714,50.11143788730042,48.798325916970036,37.953606041860965,0,0,0,0,44,44,44,44,44,3.1622776601683795,6.324555320336759,8.366600265340756,10
2,10,0.08219039998948574,o,46.2,Limited Time,e,61.60673561641783,45.84126747169464,46.23291741410688,41.52064242899439,41.52064242899439,46.23291741410688,61.60673561641783,45.84126747169464,0,0,0,0,44,44,44,44,44,3.1622776601683795,6.324555320336759,8.366600265340756,10
2,11,0.045841499988455325,p,43.6,Limited Time,e,47.78088597012833,40.18705121997742,40.2888751762902,43.58428617425196,43.58428617425196,40.2888751762902,47.78088597012833,40.18705121997742,0,0,0,0,44,44,44,44,44,3.1622776601683795,6.324555320336759,8.366600265340756,10
2,12,0.06253830000059679,w,35.7,Limited Time,e,50.869674195676794,35.655994243078545,40.50458531508466,46.332438906401144,46.332438906401144,40.50458531508466,50.869674195676794,35.655994243078545,0,0,0,0,44,44,44,44,44,3.1622776601683795,6.324555320336759,8.366600265340756,10
2,13,0.056525299965869635,o,47.3,Limited Time,e,41.053303965468906,32.471155320054876,47.278826317999936,44.1574191659553,44.1574191659553,47.278826317999936,41.053303965468906,32.471155320054876,0,0,0,0,44,44,44,44,44,3.1622776601683795,6.324555320336759,8.366600265340756,10
2,14,0.04340680001769215,q,50.1,Limited Time,e,50.08075009465864,42.44669639770984,51.266911229960485,42.6828791562504,42.6828791562504,51.266911229960485,50.08075009465864,42.44669639770984,0,0,0,0,44,44,44,44,44,3.1622776601683795,6.324555320336759,8.366600265340756,10
2,15,0.04698299994925037,o,45.6,Limited Time,e,61.1111624376231,29.404693834117655,45.57100629012114,46.200097547529836,46.200097547529836,45.57100629012114,61.1111624376231,29.404693834117655,0,0,0,0,44,44,44,44,44,3.1622776601683795,6.324555320336759,8.366600265340756,10
2,16,0.04112459998577833,w,67.5,Limited Time,e,53.055071316893844,67.54148144849688,55.37437161679371,42.77249545686485,42.77249545686485,55.37437161679371,53.055071316893844,67.54148144849688,0,0,0,0,44,44,44,44,44,3.1622776601683795,6.324555320336759,8.366600265340756,10
2,17,0.014866700046695769,p,42.2,Limited Time,e,53.69444580688428,52.25090154486492,39.90111141572302,42.183820481279,42.183820481279,39.90111141572302,53.69444580688428,52.25090154486492,0,0,0,0,44,44,44,44,44,3.1622776601683795,6.324555320336759,8.366600265340756,10
2,18,0.06913459999486804,o,42.6,Limited Time,e,44.59742445809485,72.57078078322911,42.578737958974436,45.98122549225479,45.98122549225479,42.578737958974436,44.59742445809485,72.57078078322911,0,0,0,0,44,44,44,44,44,3.1622776601683795,6.324555320336759,8.366600265340756,10
2,19,0.040245299984235317,w,54.7,Limited Time,e,54.715604966684516,54.73704210127926,45.02371541748376,41.67978720210763,41.67978720210763,45.02371541748376,54.715604966684516,54.73704210127926,0,0,0,0,44,44,44,44,44,3.1622776601683795,6.324555320336759,8.366600265340756,10
2,20,0.024441300018224865,q,21.4,Limited Time,e,21.398844842403076,50.10698546962623,52.68108263911207,47.40412812596685,47.40412812596685,52.68108263911207,21.398844842403076,50.10698546962623,0,0,0,0,44,44,44,44,44,3.1622776601683795,6.324555320336759,8.366600265340756,10
3,1,0.3329055000212975,q,37.4,Unlimited Time,e,37.44020307914745,42.39526377503687,35.41512279986362,42.29955773033468,42.39526377503687,37.44020307914745,35.41512279986362,42.29955773033468,0,0,0,0,44,44,44,44,44,3.1622776601683795,6.324555320336759,8.366600265340756,10
3,2,0.04748880001716316,o,30.9,Unlimited Time,e,47.00136465213083,44.89656189022152,30.855094800516152,47.00058331156959,44.89656189022152,47.00136465213083,30.855094800516152,47.00058331156959,0,0,0,0,44,44,44,44,44,3.1622776601683795,6.324555320336759,8.366600265340756,10
3,3,0.011059099982958287,w,46.8,Unlimited Time,e,60.10817184443372,46.83014061981445,37.981814461577805,43.606506366581264,46.83014061981445,60.10817184443372,37.981814461577805,43.606506366581264,0,0,0,0,44,44,44,44,44,3.1622776601683795,6.324555320336759,8.366600265340756,10
3,4,0.0763384000165388,o,59.8,Unlimited Time,e,56.47615991477738,42.23375673595982,59.807078099606144,40.64519451051613,42.23375673595982,56.47615991477738,59.807078099606144,40.64519451051613,0,0,0,0,44,44,44,44,44,3.1622776601683795,6.324555320336759,8.366600265340756,10
3,5,0.028607500018551946,q,40.2,Unlimited Time,e,40.19461853599398,43.179164611364996,36.89777766676829,61.56493539656117,43.179164611364996,40.19461853599398,36.89777766676829,61.56493539656117,0,0,0,0,44,44,44,44,44,3.1622776601683795,6.324555320336759,8.366600265340756,10
3,6,0.06395420001354069,p,51.1,Unlimited Time,e,42.26380673796506,41.845787583156664,44.27527161735348,51.06283568807879,41.845787583156664,42.26380673796506,44.27527161735348,51.06283568807879,0,0,0,0,44,44,44,44,44,3.1622776601683795,6.324555320336759,8.366600265340756,10
3,7,0.031346899981144816,p,32.3,Unlimited Time,e,44.59200343641384,49.039037375205524,28.984433663500006,32.32741860801581,49.039037375205524,44.59200343641384,28.984433663500006,32.32741860801581,0,0,0,0,44,44,44,44,44,3.1622776601683795,6.324555320336759,8.366600265340756,10
3,8,0.007774700003210455,p,28.8,Unlimited Time,e,41.69213608828879,46.15539000756816,32.40038529545135,28.763253992060278,46.15539000756816,41.69213608828879,32.40038529545135,28.763253992060278,0,0,0,0,44,44,44,44,44,3.1622776601683795,6.324555320336759,8.366600265340756,10
3,9,0.11936650000279769,o,48.8,Unlimited Time,e,50.11143788730042,43.459313307336714,48.798325916970036,37.953606041860965,43.459313307336714,50.11143788730042,48.798325916970036,37.953606041860965,0,0,0,0,44,44,44,44,44,3.1622776601683795,6.324555320336759,8.366600265340756,10
3,10,0.0739361000014469,o,61.6,Unlimited Time,e,46.23291741410688,41.52064242899439,61.60673561641783,45.84126747169464,41.52064242899439,46.23291741410688,61.60673561641783,45.84126747169464,0,0,0,0,44,44,44,44,44,3.1622776601683795,6.324555320336759,8.366600265340756,10
3,11,0.009954700013622642,o,47.8,Unlimited Time,e,40.2888751762902,43.58428617425196,47.78088597012833,40.18705121997742,43.58428617425196,40.2888751762902,47.78088597012833,40.18705121997742,0,0,0,0,44,44,44,44,44,3.1622776601683795,6.324555320336759,8.366600265340756,10
3,12,0.024447500007227063,w,46.3,Unlimited Time,e,40.50458531508466,46.332438906401144,50.869674195676794,35.655994243078545,46.332438906401144,40.50458531508466,50.869674195676794,35.655994243078545,0,0,0,0,44,44,44,44,44,3.1622776601683795,6.324555320336759,8.366600265340756,10
3,13,0.06348959996830672,w,44.2,Unlimited Time,e,47.278826317999936,44.1574191659553,41.053303965468906,32.471155320054876,44.1574191659553,47.278826317999936,41.053303965468906,32.471155320054876,0,0,0,0,44,44,44,44,44,3.1622776601683795,6.324555320336759,8.366600265340756,10
3,14,0.05829509999603033,w,42.7,Unlimited Time,e,51.266911229960485,42.6828791562504,50.08075009465864,42.44669639770984,42.6828791562504,51.266911229960485,50.08075009465864,42.44669639770984,0,0,0,0,44,44,44,44,44,3.1622776601683795,6.324555320336759,8.366600265340756,10
3,15,0.5610648000147194,q,45.6,Unlimited Time,e,45.57100629012114,46.200097547529836,61.1111624376231,29.404693834117655,46.200097547529836,45.57100629012114,61.1111624376231,29.404693834117655,0,0,0,0,44,44,44,44,44,3.1622776601683795,6.324555320336759,8.366600265340756,10
3,16,0.15502499998547137,p,67.5,Unlimited Time,e,55.37437161679371,42.77249545686485,53.055071316893844,67.54148144849688,42.77249545686485,55.37437161679371,53.055071316893844,67.54148144849688,0,0,0,0,44,44,44,44,44,3.1622776601683795,6.324555320336759,8.366600265340756,10
3,17,0.2264570000115782,p,52.3,Unlimited Time,e,39.90111141572302,42.183820481279,53.69444580688428,52.25090154486492,42.183820481279,39.90111141572302,53.69444580688428,52.25090154486492,0,0,0,0,44,44,44,44,44,3.1622776601683795,6.324555320336759,8.366600265340756,10
3,18,0.19971640000585467,p,72.6,Unlimited Time,e,42.578737958974436,45.98122549225479,44.59742445809485,72.57078078322911,45.98122549225479,42.578737958974436,44.59742445809485,72.57078078322911,0,0,0,0,44,44,44,44,44,3.1622776601683795,6.324555320336759,8.366600265340756,10
3,19,0.11158889997750521,p,54.7,Unlimited Time,e,45.02371541748376,41.67978720210763,54.715604966684516,54.73704210127926,41.67978720210763,45.02371541748376,54.715604966684516,54.73704210127926,0,0,0,0,44,44,44,44,44,3.1622776601683795,6.324555320336759,8.366600265340756,10
3,20,0.01783540000906214,p,50.1,Unlimited Time,e,52.68108263911207,47.40412812596685,21.398844842403076,50.10698546962623,47.40412812596685,52.68108263911207,21.398844842403076,50.10698546962623,0,0,0,0,44,44,44,44,44,3.1622776601683795,6.324555320336759,8.366600265340756,10
4,1,0.3120740999584086,q,55.0,Limited Time,h,54.97470863221699,38.79243720495717,40.959805323860834,63.29412269458075,38.79243720495717,63.29412269458075,40.959805323860834,54.97470863221699,-10,-0.33,0.33,10,44,34,43.67,44.33,54,10,10,10,10
4,2,0.26760249998187646,w,25.0,Limited Time,h,66.4912027885443,25.04657128568725,39.83596452773864,48.656490693038336,25.04657128568725,48.656490693038336,39.83596452773864,66.4912027885443,-10,-0.33,0.33,10,44,34,43.67,44.33,54,10,10,10,10
4,3,0.22406750003574416,o,35.5,Limited Time,h,52.614025740437846,28.283048996122933,35.53966170204974,47.66927567419221,28.283048996122933,47.66927567419221,35.53966170204974,52.614025740437846,-10,-0.33,0.33,10,44,34,43.67,44.33,54,10,10,10,10
4,4,0.13775400002487004,p,54.7,Limited Time,h,43.12960232080954,37.331250295412914,47.406373690913824,54.69468880425824,37.331250295412914,54.69468880425824,47.406373690913824,43.12960232080954,-10,-0.33,0.33,10,44,34,43.67,44.33,54,10,10,10,10
4,5,0.22540190001018345,p,35.6,Limited Time,h,54.90953690679006,27.324776633378058,44.576544725365075,35.57744625252323,27.324776633378058,35.57744625252323,44.576544725365075,54.90953690679006,-10,-0.33,0.33,10,44,34,43.67,44.33,54,10,10,10,10
4,6,0.19704979995731264,q,58.1,Limited Time,h,58.08780928812499,34.71001652926692,58.63606105247747,32.294938954130785,34.71001652926692,32.294938954130785,58.63606105247747,58.08780928812499,-10,-0.33,0.33,10,44,34,43.67,44.33,54,10,10,10,10
4,7,0.17918139998801053,q,47.9,Limited Time,h,47.92047846125623,16.90093319842568,46.56785847635665,49.760990468231384,16.90093319842568,49.760990468231384,46.56785847635665,47.92047846125623,-10,-0.33,0.33,10,44,34,43.67,44.33,54,10,10,10,10
4,8,0.19318989996099845,q,38.0,Limited Time,h,37.970344861877024,45.746814960937925,43.034548453491205,55.72298895277197,45.746814960937925,55.72298895277197,43.034548453491205,37.970344861877024,-10,-0.33,0.33,10,44,34,43.67,44.33,54,10,10,10,10
4,9,0.2222942000371404,w,6.9,Limited Time,h,45.54325675077297,6.923632785241196,25.152985914130937,30.492560038322466,6.923632785241196,30.492560038322466,25.152985914130937,45.54325675077297,-10,-0.33,0.33,10,44,34,43.67,44.33,54,10,10,10,10
4,10,0.2426469000056386,o,54.5,Limited Time,h,60.46418367274826,43.852088236749424,54.52309496390072,43.98648663552459,43.852088236749424,43.98648663552459,54.52309496390072,60.46418367274826,-10,-0.33,0.33,10,44,34,43.67,44.33,54,10,10,10,10
4,11,0.19180759997107089,o,41.3,Limited Time,h,55.87344861316965,40.721773616135025,41.26408469805076,51.17681252554309,40.721773616135025,51.17681252554309,41.26408469805076,55.87344861316965,-10,-0.33,0.33,10,44,34,43.67,44.33,54,10,10,10,10
4,12,0.0422637999872677,o,28.1,Limited Time,h,59.54253212791553,17.341051739238903,28.077444502107717,48.65806691883433,17.341051739238903,48.65806691883433,28.077444502107717,59.54253212791553,-10,-0.33,0.33,10,44,34,43.67,44.33,54,10,10,10,10
4,13,0.10298129997681826,p,58.3,Limited Time,h,66.74655261051436,34.39320591589348,34.48817364333818,58.29949631110247,34.39320591589348,58.29949631110247,34.48817364333818,66.74655261051436,-10,-0.33,0.33,10,44,34,43.67,44.33,54,10,10,10,10
4,14,0.06239169999025762,p,61.6,Limited Time,h,58.61565481480237,42.38158225766249,28.21885664539205,61.603359459673385,42.38158225766249,61.603359459673385,28.21885664539205,58.61565481480237,-10,-0.33,0.33,10,44,34,43.67,44.33,54,10,10,10,10
4,15,0.11396759998751804,p,39.6,Limited Time,h,40.748955409256325,36.85254096889731,47.4256169385998,39.647536146496485,36.85254096889731,39.647536146496485,47.4256169385998,40.748955409256325,-10,-0.33,0.33,10,44,34,43.67,44.33,54,10,10,10,10
4,16,0.2469950999948196,o,45.1,Limited Time,h,57.22635286045977,29.430628436618026,45.05506831126788,52.0144668339469,29.430628436618026,52.0144668339469,45.05506831126788,57.22635286045977,-10,-0.33,0.33,10,44,34,43.67,44.33,54,10,10,10,10
4,17,0.28890069999033585,w,34.5,Limited Time,h,49.23494972187987,34.54281351030303,45.28637930873637,41.035686012045915,34.54281351030303,41.035686012045915,45.28637930873637,49.23494972187987,-10,-0.33,0.33,10,44,34,43.67,44.33,54,10,10,10,10
4,18,0.31719060003524646,q,56.0,Limited Time,h,56.004951611495265,31.291663230323028,56.05719642733139,45.04174368707646,31.291663230323028,45.04174368707646,56.05719642733139,56.004951611495265,-10,-0.33,0.33,10,44,34,43.67,44.33,54,10,10,10,10
4,19,0.19561250001424924,q,49.6,Limited Time,h,49.58396314451372,24.722173580695234,47.597207500266435,65.3083193288325,24.722173580695234,65.3083193288325,47.597207500266435,49.58396314451372,-10,-0.33,0.33,10,44,34,43.67,44.33,54,10,10,10,10
4,20,0.1650104000000283,q,53.3,Limited Time,h,53.3013221784203,30.059179709359178,63.482425002347526,37.017940483400615,30.059179709359178,37.017940483400615,63.482425002347526,53.3013221784203,-10,-0.33,0.33,10,44,34,43.67,44.33,54,10,10,10,10
5,1,0.2005073999753222,p,55.5,Unlimited Time,i,38.18310423134017,37.12589389480041,42.97165801896985,55.49274249224112,37.12589389480041,38.18310423134017,55.49274249224112,42.97165801896985,-10,-10,10,10,44,34,34,54,54,3.1622776601683795,10,3.1622776601683795,10
5,2,0.01803870004368946,p,53.7,Unlimited Time,i,46.23513644704911,32.548968690973034,42.20491152815039,53.681336955727595,32.548968690973034,46.23513644704911,53.681336955727595,42.20491152815039,-10,-10,10,10,44,34,34,54,54,3.1622776601683795,10,3.1622776601683795,10
5,3,0.03204820002429187,o,61.8,Unlimited Time,i,34.22164788509719,33.70687213117996,61.77541839865897,50.78987979248402,33.70687213117996,34.22164788509719,50.78987979248402,61.77541839865897,-10,-10,10,10,44,34,34,54,54,3.1622776601683795,10,3.1622776601683795,10
5,4,0.06722190004074946,p,50.3,Unlimited Time,i,44.32074678234642,33.05893739809016,52.96366711539008,50.334365456816066,33.05893739809016,44.32074678234642,50.334365456816066,52.96366711539008,-10,-10,10,10,44,34,34,54,54,3.1622776601683795,10,3.1622776601683795,10
5,5,0.004600199987180531,w,30.4,Unlimited Time,i,35.23594708244349,30.414766802288185,59.37455397360482,50.68734564933486,30.414766802288185,35.23594708244349,50.68734564933486,59.37455397360482,-10,-10,10,10,44,34,34,54,54,3.1622776601683795,10,3.1622776601683795,10
5,6,0.029491999943275005,q,52.6,Unlimited Time,i,52.64537003000012,40.786716407967745,40.70678802920189,56.63636319331979,40.786716407967745,52.64537003000012,56.63636319331979,40.70678802920189,-10,-10,10,10,44,34,34,54,54,3.1622776601683795,10,3.1622776601683795,10
5,7,0.014629999990575016,w,30.1,Unlimited Time,i,55.575974051456946,30.119789165592874,69.56360067643473,54.61234974062862,30.119789165592874,55.575974051456946,54.61234974062862,69.56360067643473,-10,-10,10,10,44,34,34,54,54,3.1622776601683795,10,3.1622776601683795,10
5,8,0.11976410000352189,w,31.4,Unlimited Time,i,26.657157711428088,31.352412320347604,53.69873998983179,59.4986242009331,31.352412320347604,26.657157711428088,59.4986242009331,53.69873998983179,-10,-10,10,10,44,34,34,54,54,3.1622776601683795,10,3.1622776601683795,10
5,9,0.09459819999756292,o,40.8,Unlimited Time,i,28.54659053834955,36.74506588932407,40.81763806330459,52.88707612975265,36.74506588932407,28.54659053834955,52.88707612975265,40.81763806330459,-10,-10,10,10,44,34,34,54,54,3.1622776601683795,10,3.1622776601683795,10
5,10,0.022045899997465312,q,36.5,Unlimited Time,i,36.45438262790708,33.59196643316544,44.74919906221168,51.60892757940567,33.59196643316544,36.45438262790708,51.60892757940567,44.74919906221168,-10,-10,10,10,44,34,34,54,54,3.1622776601683795,10,3.1622776601683795,10
5,11,0.04156479996163398,p,56.9,Unlimited Time,i,21.570187717202934,33.27608207787097,32.60202853399322,56.90054146394041,33.27608207787097,21.570187717202934,56.90054146394041,32.60202853399322,-10,-10,10,10,44,34,34,54,54,3.1622776601683795,10,3.1622776601683795,10
5,12,0.00850579998223111,w,34.5,Unlimited Time,i,27.11639681350812,34.542519870885485,29.80929853802967,54.34295390236593,34.542519870885485,27.11639681350812,54.34295390236593,29.80929853802967,-10,-10,10,10,44,34,34,54,54,3.1622776601683795,10,3.1622776601683795,10
5,13,0.03367799997795373,o,35.5,Unlimited Time,i,50.60557223743966,34.52426902481172,35.48859519741724,55.30976636354826,34.52426902481172,50.60557223743966,55.30976636354826,35.48859519741724,-10,-10,10,10,44,34,34,54,54,3.1622776601683795,10,3.1622776601683795,10
5,14,0.01095189998159185,q,44.9,Unlimited Time,i,44.932417771125834,39.13868376471437,24.77047466180752,55.39409199540118,39.13868376471437,44.932417771125834,55.39409199540118,24.77047466180752,-10,-10,10,10,44,34,34,54,54,3.1622776601683795,10,3.1622776601683795,10
5,15,0.057393700000829995,p,47.1,Unlimited Time,i,44.54960501853465,34.224173255354444,69.59993229686049,47.12645015188817,34.224173255354444,44.54960501853465,47.12645015188817,69.59993229686049,-10,-10,10,10,44,34,34,54,54,3.1622776601683795,10,3.1622776601683795,10
5,16,0.1260352999670431,p,55.4,Unlimited Time,i,26.996139123413677,34.04253617262648,42.41623167576016,55.40486374301068,34.04253617262648,26.996139123413677,55.40486374301068,42.41623167576016,-10,-10,10,10,44,34,34,54,54,3.1622776601683795,10,3.1622776601683795,10
5,17,0.10005559999262914,q,32.1,Unlimited Time,i,32.07429073605784,31.137562995082995,59.99603766050233,52.46141967790433,31.137562995082995,32.07429073605784,52.46141967790433,59.99603766050233,-10,-10,10,10,44,34,34,54,54,3.1622776601683795,10,3.1622776601683795,10
5,18,0.05571819999022409,o,48.6,Unlimited Time,i,38.44982331660449,29.426810349681585,48.5572077191701,58.5954928900011,29.426810349681585,38.44982331660449,58.5954928900011,48.5572077191701,-10,-10,10,10,44,34,34,54,54,3.1622776601683795,10,3.1622776601683795,10
5,19,0.09365100000286475,q,45.5,Unlimited Time,i,45.528898854880104,28.560129427189015,60.77632095743283,57.903788603378985,28.560129427189015,45.528898854880104,57.903788603378985,60.77632095743283,-10,-10,10,10,44,34,34,54,54,3.1622776601683795,10,3.1622776601683795,10
5,20,0.035390099976211786,p,55.2,Unlimited Time,i,37.830029534547855,29.009862667239105,50.72534651964114,55.176455193474986,29.009862667239105,37.830029534547855,55.176455193474986,50.72534651964114,-10,-10,10,10,44,34,34,54,54,3.1622776601683795,10,3.1622776601683795,10
6,1,,,0.0,Limited Time,l,41.27812632517491,41.786070108501214,32.74990540393245,54.59105002107553,32.74990540393245,41.27812632517491,41.786070108501214,54.59105002107553,-10,-0.33,0.33,10,44,34,43.67,44.33,54,3.1622776601683795,3.1622776601683795,3.1622776601683795,3.1622776601683795
6,2,0.3356651999638416,w,46.1,Limited Time,l,38.74175782754565,46.137246060174604,31.282983624467995,53.14464505586691,31.282983624467995,38.74175782754565,46.137246060174604,53.14464505586691,-10,-0.33,0.33,10,44,34,43.67,44.33,54,3.1622776601683795,3.1622776601683795,3.1622776601683795,3.1622776601683795
6,3,0.2815365999704227,o,27.2,Limited Time,l,39.67869398480571,44.630869675996244,27.228623422259894,53.832086257954856,27.228623422259894,39.67869398480571,44.630869675996244,53.832086257954856,-10,-0.33,0.33,10,44,34,43.67,44.33,54,3.1622776601683795,3.1622776601683795,3.1622776601683795,3.1622776601683795
6,4,0.2806251000147313,p,53.8,Limited Time,l,43.11764924601199,43.67014761207521,36.18982916844594,53.794104981571685,36.18982916844594,43.11764924601199,43.67014761207521,53.794104981571685,-10,-0.33,0.33,10,44,34,43.67,44.33,54,3.1622776601683795,3.1622776601683795,3.1622776601683795,3.1622776601683795
6,5,0.24512500001583248,p,51.8,Limited Time,l,41.15902932336375,46.89346849019759,30.104467650281045,51.783600007177654,30.104467650281045,41.15902932336375,46.89346849019759,51.783600007177654,-10,-0.33,0.33,10,44,34,43.67,44.33,54,3.1622776601683795,3.1622776601683795,3.1622776601683795,3.1622776601683795
6,6,0.1995067999814637,p,56.0,Limited Time,l,45.856042057408985,46.15753143330403,43.75585104299846,56.00199228274168,43.75585104299846,45.856042057408985,46.15753143330403,56.00199228274168,-10,-0.33,0.33,10,44,34,43.67,44.33,54,3.1622776601683795,3.1622776601683795,3.1622776601683795,3.1622776601683795
6,7,0.12450100004207343,p,53.9,Limited Time,l,42.53623662169456,40.96173232601841,29.635067964110416,53.93144750537458,29.635067964110416,42.53623662169456,40.96173232601841,53.93144750537458,-10,-0.33,0.33,10,44,34,43.67,44.33,54,3.1622776601683795,3.1622776601683795,3.1622776601683795,3.1622776601683795
6,8,0.19234800001140684,p,56.1,Limited Time,l,45.29229626452399,41.45349450240222,33.89508414888364,56.09141964713663,33.89508414888364,45.29229626452399,41.45349450240222,56.09141964713663,-10,-0.33,0.33,10,44,34,43.67,44.33,54,3.1622776601683795,3.1622776601683795,3.1622776601683795,3.1622776601683795
6,9,0.05158110003685579,p,53.1,Limited Time,l,43.33966853267123,45.40262382390722,28.877173436848548,53.061189483689766,28.877173436848548,43.33966853267123,45.40262382390722,53.061189483689766,-10,-0.33,0.33,10,44,34,43.67,44.33,54,3.1622776601683795,3.1622776601683795,3.1622776601683795,3.1622776601683795
6,10,,,0.0,Limited Time,l,44.64376082368236,51.131161202046144,31.751743153092217,53.35388604280303,31.751743153092217,44.64376082368236,51.131161202046144,53.35388604280303,-10,-0.33,0.33,10,44,34,43.67,44.33,54,3.1622776601683795,3.1622776601683795,3.1622776601683795,3.1622776601683795
6,11,,,0.0,Limited Time,l,43.82034149857347,44.07416259946779,27.599970999550766,54.46081606615124,27.599970999550766,43.82034149857347,44.07416259946779,54.46081606615124,-10,-0.33,0.33,10,44,34,43.67,44.33,54,3.1622776601683795,3.1622776601683795,3.1622776601683795,3.1622776601683795
6,12,0.23959040001500398,p,52.7,Limited Time,l,44.94270252253214,46.55860956501602,33.80890531672292,52.685505451574016,33.80890531672292,44.94270252253214,46.55860956501602,52.685505451574016,-10,-0.33,0.33,10,44,34,43.67,44.33,54,3.1622776601683795,3.1622776601683795,3.1622776601683795,3.1622776601683795
6,13,0.06747079995693639,p,51.0,Limited Time,l,46.47544082741562,43.94301489911432,31.543305775329788,51.02407010123808,31.543305775329788,46.47544082741562,43.94301489911432,51.02407010123808,-10,-0.33,0.33,10,44,34,43.67,44.33,54,3.1622776601683795,3.1622776601683795,3.1622776601683795,3.1622776601683795
6,14,0.022538600023835897,p,60.6,Limited Time,l,41.10872162124668,46.11810931081855,37.51051331719463,60.635554710756956,37.51051331719463,41.10872162124668,46.11810931081855,60.635554710756956,-10,-0.33,0.33,10,44,34,43.67,44.33,54,3.1622776601683795,3.1622776601683795,3.1622776601683795,3.1622776601683795
6,15,0.038528199947904795,p,49.9,Limited Time,l,54.59639546881411,42.979324173961366,28.544283192726077,49.900011416548004,28.544283192726077,54.59639546881411,42.979324173961366,49.900011416548004,-10,-0.33,0.33,10,44,34,43.67,44.33,54,3.1622776601683795,3.1622776601683795,3.1622776601683795,3.1622776601683795
6,16,,,0.0,Limited Time,l,44.12584089061155,38.09730587339244,37.87519037013256,55.98621863577582,37.87519037013256,44.12584089061155,38.09730587339244,55.98621863577582,-10,-0.33,0.33,10,44,34,43.67,44.33,54,3.1622776601683795,3.1622776601683795,3.1622776601683795,3.1622776601683795
6,17,0.19288919999962673,p,54.2,Limited Time,l,45.44976123618437,47.846773048495024,27.749802438854186,54.19069716896084,27.749802438854186,45.44976123618437,47.846773048495024,54.19069716896084,-10,-0.33,0.33,10,44,34,43.67,44.33,54,3.1622776601683795,3.1622776601683795,3.1622776601683795,3.1622776601683795
6,18,,,0.0,Limited Time,l,44.96206200729012,47.75534612870628,33.20722220431353,53.37432721117004,33.20722220431353,44.96206200729012,47.75534612870628,53.37432721117004,-10,-0.33,0.33,10,44,34,43.67,44.33,54,3.1622776601683795,3.1622776601683795,3.1622776601683795,3.1622776601683795
6,19,0.04029520001495257,p,54.7,Limited Time,l,43.33577696251858,46.74048286238203,37.96194883895032,54.74597798805665,37.96194883895032,43.33577696251858,46.74048286238203,54.74597798805665,-10,-0.33,0.33,10,44,34,43.67,44.33,54,3.1622776601683795,3.1622776601683795,3.1622776601683795,3.1622776601683795
6,20,0.032526199996937066,p,52.4,Limited Time,l,40.625116167227524,46.85489516743368,35.822895314949065,52.43480729557617,35.822895314949065,40.625116167227524,46.85489516743368,52.43480729557617,-10,-0.33,0.33,10,44,34,43.67,44.33,54,3.1622776601683795,3.1622776601683795,3.1622776601683795,3.1622776601683795
7,1,0.3487528000259772,p,37.4,Unlimited Time,e,35.41512279986362,42.39526377503687,42.29955773033468,37.44020307914745,42.39526377503687,37.44020307914745,35.41512279986362,42.29955773033468,0,0,0,0,44,44,44,44,44,3.1622776601683795,6.324555320336759,8.366600265340756,10
7,2,0.2257878999807872,o,47.0,Unlimited Time,e,30.855094800516152,44.89656189022152,47.00058331156959,47.00136465213083,44.89656189022152,47.00136465213083,30.855094800516152,47.00058331156959,0,0,0,0,44,44,44,44,44,3.1622776601683795,6.324555320336759,8.366600265340756,10
7,3,0.1961806999752298,w,46.8,Unlimited Time,e,37.981814461577805,46.83014061981445,43.606506366581264,60.10817184443372,46.83014061981445,60.10817184443372,37.981814461577805,43.606506366581264,0,0,0,0,44,44,44,44,44,3.1622776601683795,6.324555320336759,8.366600265340756,10
7,4,0.17581109999446198,q,59.8,Unlimited Time,e,59.807078099606144,42.23375673595982,40.64519451051613,56.47615991477738,42.23375673595982,56.47615991477738,59.807078099606144,40.64519451051613,0,0,0,0,44,44,44,44,44,3.1622776601683795,6.324555320336759,8.366600265340756,10
7,5,0.17658669996308163,q,36.9,Unlimited Time,e,36.89777766676829,43.179164611364996,61.56493539656117,40.19461853599398,43.179164611364996,40.19461853599398,36.89777766676829,61.56493539656117,0,0,0,0,44,44,44,44,44,3.1622776601683795,6.324555320336759,8.366600265340756,10
7,6,0.23818159999791533,w,41.8,Unlimited Time,e,44.27527161735348,41.845787583156664,51.06283568807879,42.26380673796506,41.845787583156664,42.26380673796506,44.27527161735348,51.06283568807879,0,0,0,0,44,44,44,44,44,3.1622776601683795,6.324555320336759,8.366600265340756,10
7,7,0.2129158999887295,o,32.3,Unlimited Time,e,28.984433663500006,49.039037375205524,32.32741860801581,44.59200343641384,49.039037375205524,44.59200343641384,28.984433663500006,32.32741860801581,0,0,0,0,44,44,44,44,44,3.1622776601683795,6.324555320336759,8.366600265340756,10
7,8,0.1780443000025116,p,41.7,Unlimited Time,e,32.40038529545135,46.15539000756816,28.763253992060278,41.69213608828879,46.15539000756816,41.69213608828879,32.40038529545135,28.763253992060278,0,0,0,0,44,44,44,44,44,3.1622776601683795,6.324555320336759,8.366600265340756,10
7,9,0.1319682000321336,o,38.0,Unlimited Time,e,48.798325916970036,43.459313307336714,37.953606041860965,50.11143788730042,43.459313307336714,50.11143788730042,48.798325916970036,37.953606041860965,0,0,0,0,44,44,44,44,44,3.1622776601683795,6.324555320336759,8.366600265340756,10
7,10,0.17848399997456,p,46.2,Unlimited Time,e,61.60673561641783,41.52064242899439,45.84126747169464,46.23291741410688,41.52064242899439,46.23291741410688,61.60673561641783,45.84126747169464,0,0,0,0,44,44,44,44,44,3.1622776601683795,6.324555320336759,8.366600265340756,10
7,11,0.1887633999576792,p,40.3,Unlimited Time,e,47.78088597012833,43.58428617425196,40.18705121997742,40.2888751762902,43.58428617425196,40.2888751762902,47.78088597012833,40.18705121997742,0,0,0,0,44,44,44,44,44,3.1622776601683795,6.324555320336759,8.366600265340756,10
7,12,0.2515136999427341,w,46.3,Unlimited Time,e,50.869674195676794,46.332438906401144,35.655994243078545,40.50458531508466,46.332438906401144,40.50458531508466,50.869674195676794,35.655994243078545,0,0,0,0,44,44,44,44,44,3.1622776601683795,6.324555320336759,8.366600265340756,10
7,13,0.12068870000075549,q,41.1,Unlimited Time,e,41.053303965468906,44.1574191659553,32.471155320054876,47.278826317999936,44.1574191659553,47.278826317999936,41.053303965468906,32.471155320054876,0,0,0,0,44,44,44,44,44,3.1622776601683795,6.324555320336759,8.366600265340756,10
7,14,0.1288489000289701,w,42.7,Unlimited Time,e,50.08075009465864,42.6828791562504,42.44669639770984,51.266911229960485,42.6828791562504,51.266911229960485,50.08075009465864,42.44669639770984,0,0,0,0,44,44,44,44,44,3.1622776601683795,6.324555320336759,8.366600265340756,10
7,15,0.19468319998122752,w,46.2,Unlimited Time,e,61.1111624376231,46.200097547529836,29.404693834117655,45.57100629012114,46.200097547529836,45.57100629012114,61.1111624376231,29.404693834117655,0,0,0,0,44,44,44,44,44,3.1622776601683795,6.324555320336759,8.366600265340756,10
7,16,0.16780509997624904,p,55.4,Unlimited Time,e,53.055071316893844,42.77249545686485,67.54148144849688,55.37437161679371,42.77249545686485,55.37437161679371,53.055071316893844,67.54148144849688,0,0,0,0,44,44,44,44,44,3.1622776601683795,6.324555320336759,8.366600265340756,10
7,17,0.08390850003343076,p,39.9,Unlimited Time,e,53.69444580688428,42.183820481279,52.25090154486492,39.90111141572302,42.183820481279,39.90111141572302,53.69444580688428,52.25090154486492,0,0,0,0,44,44,44,44,44,3.1622776601683795,6.324555320336759,8.366600265340756,10
7,18,0.21295509999617934,o,72.6,Unlimited Time,e,44.59742445809485,45.98122549225479,72.57078078322911,42.578737958974436,45.98122549225479,42.578737958974436,44.59742445809485,72.57078078322911,0,0,0,0,44,44,44,44,44,3.1622776601683795,6.324555320336759,8.366600265340756,10
7,19,0.12239060003776103,o,54.7,Unlimited Time,e,54.715604966684516,41.67978720210763,54.73704210127926,45.02371541748376,41.67978720210763,45.02371541748376,54.715604966684516,54.73704210127926,0,0,0,0,44,44,44,44,44,3.1622776601683795,6.324555320336759,8.366600265340756,10
7,20,0.26482030004262924,o,50.1,Unlimited Time,e,21.398844842403076,47.40412812596685,50.10698546962623,52.68108263911207,47.40412812596685,52.68108263911207,21.398844842403076,50.10698546962623,0,0,0,0,44,44,44,44,44,3.1622776601683795,6.324555320336759,8.366600265340756,10
8,1,0.34731800004374236,w,42.3,Limited Time,e,37.44020307914745,42.29955773033468,42.39526377503687,35.41512279986362,42.39526377503687,37.44020307914745,35.41512279986362,42.29955773033468,0,0,0,0,44,44,44,44,44,3.1622776601683795,6.324555320336759,8.366600265340756,10
8,2,0.19353469996713102,o,44.9,Limited Time,e,47.00136465213083,47.00058331156959,44.89656189022152,30.855094800516152,44.89656189022152,47.00136465213083,30.855094800516152,47.00058331156959,0,0,0,0,44,44,44,44,44,3.1622776601683795,6.324555320336759,8.366600265340756,10
8,3,0.16914499999256805,p,38.0,Limited Time,e,60.10817184443372,43.606506366581264,46.83014061981445,37.981814461577805,46.83014061981445,60.10817184443372,37.981814461577805,43.606506366581264,0,0,0,0,44,44,44,44,44,3.1622776601683795,6.324555320336759,8.366600265340756,10
8,4,0.04382560000522062,q,56.5,Limited Time,e,56.47615991477738,40.64519451051613,42.23375673595982,59.807078099606144,42.23375673595982,56.47615991477738,59.807078099606144,40.64519451051613,0,0,0,0,44,44,44,44,44,3.1622776601683795,6.324555320336759,8.366600265340756,10
8,5,0.1959692999953404,q,40.2,Limited Time,e,40.19461853599398,61.56493539656117,43.179164611364996,36.89777766676829,43.179164611364996,40.19461853599398,36.89777766676829,61.56493539656117,0,0,0,0,44,44,44,44,44,3.1622776601683795,6.324555320336759,8.366600265340756,10
8,6,0.14043629996012896,q,42.3,Limited Time,e,42.26380673796506,51.06283568807879,41.845787583156664,44.27527161735348,41.845787583156664,42.26380673796506,44.27527161735348,51.06283568807879,0,0,0,0,44,44,44,44,44,3.1622776601683795,6.324555320336759,8.366600265340756,10
8,7,0.10975330002838746,q,44.6,Limited Time,e,44.59200343641384,32.32741860801581,49.039037375205524,28.984433663500006,49.039037375205524,44.59200343641384,28.984433663500006,32.32741860801581,0,0,0,0,44,44,44,44,44,3.1622776601683795,6.324555320336759,8.366600265340756,10
8,8,0.09397069999249652,q,41.7,Limited Time,e,41.69213608828879,28.763253992060278,46.15539000756816,32.40038529545135,46.15539000756816,41.69213608828879,32.40038529545135,28.763253992060278,0,0,0,0,44,44,44,44,44,3.1622776601683795,6.324555320336759,8.366600265340756,10
8,9,0.08344120002584532,q,50.1,Limited Time,e,50.11143788730042,37.953606041860965,43.459313307336714,48.798325916970036,43.459313307336714,50.11143788730042,48.798325916970036,37.953606041860965,0,0,0,0,44,44,44,44,44,3.1622776601683795,6.324555320336759,8.366600265340756,10
8,10,0.13946399994893,q,46.2,Limited Time,e,46.23291741410688,45.84126747169464,41.52064242899439,61.60673561641783,41.52064242899439,46.23291741410688,61.60673561641783,45.84126747169464,0,0,0,0,44,44,44,44,44,3.1622776601683795,6.324555320336759,8.366600265340756,10
8,11,0.14914160000625998,q,40.3,Limited Time,e,40.2888751762902,40.18705121997742,43.58428617425196,47.78088597012833,43.58428617425196,40.2888751762902,47.78088597012833,40.18705121997742,0,0,0,0,44,44,44,44,44,3.1622776601683795,6.324555320336759,8.366600265340756,10
8,12,0.15015760000096634,q,40.5,Limited Time,e,40.50458531508466,35.655994243078545,46.332438906401144,50.869674195676794,46.332438906401144,40.50458531508466,50.869674195676794,35.655994243078545,0,0,0,0,44,44,44,44,44,3.1622776601683795,6.324555320336759,8.366600265340756,10
8,13,0.1493936000042595,q,47.3,Limited Time,e,47.278826317999936,32.471155320054876,44.1574191659553,41.053303965468906,44.1574191659553,47.278826317999936,41.053303965468906,32.471155320054876,0,0,0,0,44,44,44,44,44,3.1622776601683795,6.324555320336759,8.366600265340756,10
8,14,0.23411550000309944,o,42.7,Limited Time,e,51.266911229960485,42.44669639770984,42.6828791562504,50.08075009465864,42.6828791562504,51.266911229960485,50.08075009465864,42.44669639770984,0,0,0,0,44,44,44,44,44,3.1622776601683795,6.324555320336759,8.366600265340756,10
8,15,0.182002299989108,o,46.2,Limited Time,e,45.57100629012114,29.404693834117655,46.200097547529836,61.1111624376231,46.200097547529836,45.57100629012114,61.1111624376231,29.404693834117655,0,0,0,0,44,44,44,44,44,3.1622776601683795,6.324555320336759,8.366600265340756,10
8,16,0.07776300003752112,p,53.1,Limited Time,e,55.37437161679371,67.54148144849688,42.77249545686485,53.055071316893844,42.77249545686485,55.37437161679371,53.055071316893844,67.54148144849688,0,0,0,0,44,44,44,44,44,3.1622776601683795,6.324555320336759,8.366600265340756,10
8,17,0.17197020002640784,p,53.7,Limited Time,e,39.90111141572302,52.25090154486492,42.183820481279,53.69444580688428,42.183820481279,39.90111141572302,53.69444580688428,52.25090154486492,0,0,0,0,44,44,44,44,44,3.1622776601683795,6.324555320336759,8.366600265340756,10
8,18,0.17577590001747012,p,44.6,Limited Time,e,42.578737958974436,72.57078078322911,45.98122549225479,44.59742445809485,45.98122549225479,42.578737958974436,44.59742445809485,72.57078078322911,0,0,0,0,44,44,44,44,44,3.1622776601683795,6.324555320336759,8.366600265340756,10
8,19,0.2727205000119284,p,54.7,Limited Time,e,45.02371541748376,54.73704210127926,41.67978720210763,54.715604966684516,41.67978720210763,45.02371541748376,54.715604966684516,54.73704210127926,0,0,0,0,44,44,44,44,44,3.1622776601683795,6.324555320336759,8.366600265340756,10
8,20,0.09865060000447556,p,21.4,Limited Time,e,52.68108263911207,50.10698546962623,47.40412812596685,21.398844842403076,47.40412812596685,52.68108263911207,21.398844842403076,50.10698546962623,0,0,0,0,44,44,44,44,44,3.1622776601683795,6.324555320336759,8.366600265340756,10
9,1,0.43624609999824315,q,38.2,Unlimited Time,i,38.18310423134017,42.97165801896985,37.12589389480041,55.49274249224112,37.12589389480041,38.18310423134017,55.49274249224112,42.97165801896985,-10,-10,10,10,44,34,34,54,54,3.1622776601683795,10,3.1622776601683795,10
9,2,0.24177020002389327,w,42.2,Unlimited Time,i,46.23513644704911,42.20491152815039,32.548968690973034,53.681336955727595,32.548968690973034,46.23513644704911,53.681336955727595,42.20491152815039,-10,-10,10,10,44,34,34,54,54,3.1622776601683795,10,3.1622776601683795,10
9,3,0.17954720003763214,o,33.7,Unlimited Time,i,34.22164788509719,61.77541839865897,33.70687213117996,50.78987979248402,33.70687213117996,34.22164788509719,50.78987979248402,61.77541839865897,-10,-10,10,10,44,34,34,54,54,3.1622776601683795,10,3.1622776601683795,10
9,4,0.12854890001472086,p,50.3,Unlimited Time,i,44.32074678234642,52.96366711539008,33.05893739809016,50.334365456816066,33.05893739809016,44.32074678234642,50.334365456816066,52.96366711539008,-10,-10,10,10,44,34,34,54,54,3.1622776601683795,10,3.1622776601683795,10
9,5,0.1898691999958828,p,50.7,Unlimited Time,i,35.23594708244349,59.37455397360482,30.414766802288185,50.68734564933486,30.414766802288185,35.23594708244349,50.68734564933486,59.37455397360482,-10,-10,10,10,44,34,34,54,54,3.1622776601683795,10,3.1622776601683795,10
9,6,0.14930159994401038,p,56.6,Unlimited Time,i,52.64537003000012,40.70678802920189,40.786716407967745,56.63636319331979,40.786716407967745,52.64537003000012,56.63636319331979,40.70678802920189,-10,-10,10,10,44,34,34,54,54,3.1622776601683795,10,3.1622776601683795,10
9,7,0.2622562000178732,p,54.6,Unlimited Time,i,55.575974051456946,69.56360067643473,30.119789165592874,54.61234974062862,30.119789165592874,55.575974051456946,54.61234974062862,69.56360067643473,-10,-10,10,10,44,34,34,54,54,3.1622776601683795,10,3.1622776601683795,10
9,8,0.18121250002877787,p,59.5,Unlimited Time,i,26.657157711428088,53.69873998983179,31.352412320347604,59.4986242009331,31.352412320347604,26.657157711428088,59.4986242009331,53.69873998983179,-10,-10,10,10,44,34,34,54,54,3.1622776601683795,10,3.1622776601683795,10
9,9,0.24030509998556226,p,52.9,Unlimited Time,i,28.54659053834955,40.81763806330459,36.74506588932407,52.88707612975265,36.74506588932407,28.54659053834955,52.88707612975265,40.81763806330459,-10,-10,10,10,44,34,34,54,54,3.1622776601683795,10,3.1622776601683795,10
9,10,0.1731906000059098,p,51.6,Unlimited Time,i,36.45438262790708,44.74919906221168,33.59196643316544,51.60892757940567,33.59196643316544,36.45438262790708,51.60892757940567,44.74919906221168,-10,-10,10,10,44,34,34,54,54,3.1622776601683795,10,3.1622776601683795,10
9,11,0.19336799997836351,p,56.9,Unlimited Time,i,21.570187717202934,32.60202853399322,33.27608207787097,56.90054146394041,33.27608207787097,21.570187717202934,56.90054146394041,32.60202853399322,-10,-10,10,10,44,34,34,54,54,3.1622776601683795,10,3.1622776601683795,10
9,12,0.19816339999670163,p,54.3,Unlimited Time,i,27.11639681350812,29.80929853802967,34.542519870885485,54.34295390236593,34.542519870885485,27.11639681350812,54.34295390236593,29.80929853802967,-10,-10,10,10,44,34,34,54,54,3.1622776601683795,10,3.1622776601683795,10
9,13,0.18287570000393316,p,55.3,Unlimited Time,i,50.60557223743966,35.48859519741724,34.52426902481172,55.30976636354826,34.52426902481172,50.60557223743966,55.30976636354826,35.48859519741724,-10,-10,10,10,44,34,34,54,54,3.1622776601683795,10,3.1622776601683795,10
9,14,0.1773850999888964,p,55.4,Unlimited Time,i,44.932417771125834,24.77047466180752,39.13868376471437,55.39409199540118,39.13868376471437,44.932417771125834,55.39409199540118,24.77047466180752,-10,-10,10,10,44,34,34,54,54,3.1622776601683795,10,3.1622776601683795,10
9,15,0.17286809999495745,p,47.1,Unlimited Time,i,44.54960501853465,69.59993229686049,34.224173255354444,47.12645015188817,34.224173255354444,44.54960501853465,47.12645015188817,69.59993229686049,-10,-10,10,10,44,34,34,54,54,3.1622776601683795,10,3.1622776601683795,10
9,16,0.011527499998919666,q,27.0,Unlimited Time,i,26.996139123413677,42.41623167576016,34.04253617262648,55.40486374301068,34.04253617262648,26.996139123413677,55.40486374301068,42.41623167576016,-10,-10,10,10,44,34,34,54,54,3.1622776601683795,10,3.1622776601683795,10
9,17,0.19877789996098727,w,60.0,Unlimited Time,i,32.07429073605784,59.99603766050233,31.137562995082995,52.46141967790433,31.137562995082995,32.07429073605784,52.46141967790433,59.99603766050233,-10,-10,10,10,44,34,34,54,54,3.1622776601683795,10,3.1622776601683795,10
9,18,0.21699240000452846,w,48.6,Unlimited Time,i,38.44982331660449,48.5572077191701,29.426810349681585,58.5954928900011,29.426810349681585,38.44982331660449,58.5954928900011,48.5572077191701,-10,-10,10,10,44,34,34,54,54,3.1622776601683795,10,3.1622776601683795,10
9,19,0.22508990002097562,w,60.8,Unlimited Time,i,45.528898854880104,60.77632095743283,28.560129427189015,57.903788603378985,28.560129427189015,45.528898854880104,57.903788603378985,60.77632095743283,-10,-10,10,10,44,34,34,54,54,3.1622776601683795,10,3.1622776601683795,10
9,20,0.07925700000487268,w,50.7,Unlimited Time,i,37.830029534547855,50.72534651964114,29.009862667239105,55.176455193474986,29.009862667239105,37.830029534547855,55.176455193474986,50.72534651964114,-10,-10,10,10,44,34,34,54,54,3.1622776601683795,10,3.1622776601683795,10
10,1,0.31396329996641725,q,41.0,Limited Time,h,40.959805323860834,38.79243720495717,63.29412269458075,54.97470863221699,38.79243720495717,63.29412269458075,40.959805323860834,54.97470863221699,-10,-0.33,0.33,10,44,34,43.67,44.33,54,10,10,10,10
10,2,0.22898729995358735,w,25.0,Limited Time,h,39.83596452773864,25.04657128568725,48.656490693038336,66.4912027885443,25.04657128568725,48.656490693038336,39.83596452773864,66.4912027885443,-10,-0.33,0.33,10,44,34,43.67,44.33,54,10,10,10,10
10,3,0.1546356999897398,o,47.7,Limited Time,h,35.53966170204974,28.283048996122933,47.66927567419221,52.614025740437846,28.283048996122933,47.66927567419221,35.53966170204974,52.614025740437846,-10,-0.33,0.33,10,44,34,43.67,44.33,54,10,10,10,10
10,4,0.12256280001020059,p,43.1,Limited Time,h,47.406373690913824,37.331250295412914,54.69468880425824,43.12960232080954,37.331250295412914,54.69468880425824,47.406373690913824,43.12960232080954,-10,-0.33,0.33,10,44,34,43.67,44.33,54,10,10,10,10
10,5,0.04780050000408664,o,35.6,Limited Time,h,44.576544725365075,27.324776633378058,35.57744625252323,54.90953690679006,27.324776633378058,35.57744625252323,44.576544725365075,54.90953690679006,-10,-0.33,0.33,10,44,34,43.67,44.33,54,10,10,10,10
10,6,0.18349089997354895,o,32.3,Limited Time,h,58.63606105247747,34.71001652926692,32.294938954130785,58.08780928812499,34.71001652926692,32.294938954130785,58.63606105247747,58.08780928812499,-10,-0.33,0.33,10,44,34,43.67,44.33,54,10,10,10,10
10,7,0.1320844999863766,p,47.9,Limited Time,h,46.56785847635665,16.90093319842568,49.760990468231384,47.92047846125623,16.90093319842568,49.760990468231384,46.56785847635665,47.92047846125623,-10,-0.33,0.33,10,44,34,43.67,44.33,54,10,10,10,10
10,8,0.19663859996944666,p,38.0,Limited Time,h,43.034548453491205,45.746814960937925,55.72298895277197,37.970344861877024,45.746814960937925,55.72298895277197,43.034548453491205,37.970344861877024,-10,-0.33,0.33,10,44,34,43.67,44.33,54,10,10,10,10
10,9,0.10734819999197498,o,30.5,Limited Time,h,25.152985914130937,6.923632785241196,30.492560038322466,45.54325675077297,6.923632785241196,30.492560038322466,25.152985914130937,45.54325675077297,-10,-0.33,0.33,10,44,34,43.67,44.33,54,10,10,10,10
10,10,0.03040700004203245,w,43.9,Limited Time,h,54.52309496390072,43.852088236749424,43.98648663552459,60.46418367274826,43.852088236749424,43.98648663552459,54.52309496390072,60.46418367274826,-10,-0.33,0.33,10,44,34,43.67,44.33,54,10,10,10,10
10,11,0.11703170003602281,q,41.3,Limited Time,h,41.26408469805076,40.721773616135025,51.17681252554309,55.87344861316965,40.721773616135025,51.17681252554309,41.26408469805076,55.87344861316965,-10,-0.33,0.33,10,44,34,43.67,44.33,54,10,10,10,10
10,12,0.07117599999764934,w,17.3,Limited Time,h,28.077444502107717,17.341051739238903,48.65806691883433,59.54253212791553,17.341051739238903,48.65806691883433,28.077444502107717,59.54253212791553,-10,-0.33,0.33,10,44,34,43.67,44.33,54,10,10,10,10
10,13,0.17349200003081933,q,34.5,Limited Time,h,34.48817364333818,34.39320591589348,58.29949631110247,66.74655261051436,34.39320591589348,58.29949631110247,34.48817364333818,66.74655261051436,-10,-0.33,0.33,10,44,34,43.67,44.33,54,10,10,10,10
10,14,0.10063419997459278,q,28.2,Limited Time,h,28.21885664539205,42.38158225766249,61.603359459673385,58.61565481480237,42.38158225766249,61.603359459673385,28.21885664539205,58.61565481480237,-10,-0.33,0.33,10,44,34,43.67,44.33,54,10,10,10,10
10,15,0.07987439999124035,o,39.6,Limited Time,h,47.4256169385998,36.85254096889731,39.647536146496485,40.748955409256325,36.85254096889731,39.647536146496485,47.4256169385998,40.748955409256325,-10,-0.33,0.33,10,44,34,43.67,44.33,54,10,10,10,10
10,16,0.04042999999364838,p,57.2,Limited Time,h,45.05506831126788,29.430628436618026,52.0144668339469,57.22635286045977,29.430628436618026,52.0144668339469,45.05506831126788,57.22635286045977,-10,-0.33,0.33,10,44,34,43.67,44.33,54,10,10,10,10
10,17,0.11989210004685447,p,49.2,Limited Time,h,45.28637930873637,34.54281351030303,41.035686012045915,49.23494972187987,34.54281351030303,41.035686012045915,45.28637930873637,49.23494972187987,-10,-0.33,0.33,10,44,34,43.67,44.33,54,10,10,10,10
10,18,0.07621830003336072,p,56.0,Limited Time,h,56.05719642733139,31.291663230323028,45.04174368707646,56.004951611495265,31.291663230323028,45.04174368707646,56.05719642733139,56.004951611495265,-10,-0.33,0.33,10,44,34,43.67,44.33,54,10,10,10,10
10,19,0.06192790000932291,p,49.6,Limited Time,h,47.597207500266435,24.722173580695234,65.3083193288325,49.58396314451372,24.722173580695234,65.3083193288325,47.597207500266435,49.58396314451372,-10,-0.33,0.33,10,44,34,43.67,44.33,54,10,10,10,10
10,20,0.11477009998634458,p,53.3,Limited Time,h,63.482425002347526,30.059179709359178,37.017940483400615,53.3013221784203,30.059179709359178,37.017940483400615,63.482425002347526,53.3013221784203,-10,-0.33,0.33,10,44,34,43.67,44.33,54,10,10,10,10
11,1,0.40280139999231324,q,38.8,Unlimited Time,h,38.79243720495717,54.97470863221699,40.959805323860834,63.29412269458075,38.79243720495717,63.29412269458075,40.959805323860834,54.97470863221699,-10,-0.33,0.33,10,44,34,43.67,44.33,54,10,10,10,10
11,2,0.20725739997578785,w,66.5,Unlimited Time,h,25.04657128568725,66.4912027885443,39.83596452773864,48.656490693038336,25.04657128568725,48.656490693038336,39.83596452773864,66.4912027885443,-10,-0.33,0.33,10,44,34,43.67,44.33,54,10,10,10,10
11,3,0.10251479997532442,o,35.5,Unlimited Time,h,28.283048996122933,52.614025740437846,35.53966170204974,47.66927567419221,28.283048996122933,47.66927567419221,35.53966170204974,52.614025740437846,-10,-0.33,0.33,10,44,34,43.67,44.33,54,10,10,10,10
11,4,0.0540974999894388,p,54.7,Unlimited Time,h,37.331250295412914,43.12960232080954,47.406373690913824,54.69468880425824,37.331250295412914,54.69468880425824,47.406373690913824,43.12960232080954,-10,-0.33,0.33,10,44,34,43.67,44.33,54,10,10,10,10
11,5,0.521630700037349,w,54.9,Unlimited Time,h,27.324776633378058,54.90953690679006,44.576544725365075,35.57744625252323,27.324776633378058,35.57744625252323,44.576544725365075,54.90953690679006,-10,-0.33,0.33,10,44,34,43.67,44.33,54,10,10,10,10
11,6,0.1676619000500068,p,32.3,Unlimited Time,h,34.71001652926692,58.08780928812499,58.63606105247747,32.294938954130785,34.71001652926692,32.294938954130785,58.63606105247747,58.08780928812499,-10,-0.33,0.33,10,44,34,43.67,44.33,54,10,10,10,10
11,7,0.12906129995826632,w,47.9,Unlimited Time,h,16.90093319842568,47.92047846125623,46.56785847635665,49.760990468231384,16.90093319842568,49.760990468231384,46.56785847635665,47.92047846125623,-10,-0.33,0.33,10,44,34,43.67,44.33,54,10,10,10,10
11,8,0.09238139999797568,o,43.0,Unlimited Time,h,45.746814960937925,37.970344861877024,43.034548453491205,55.72298895277197,45.746814960937925,55.72298895277197,43.034548453491205,37.970344861877024,-10,-0.33,0.33,10,44,34,43.67,44.33,54,10,10,10,10
11,9,0.10022419999586418,q,6.9,Unlimited Time,h,6.923632785241196,45.54325675077297,25.152985914130937,30.492560038322466,6.923632785241196,30.492560038322466,25.152985914130937,45.54325675077297,-10,-0.33,0.33,10,44,34,43.67,44.33,54,10,10,10,10
11,10,0.33378039998933673,w,60.5,Unlimited Time,h,43.852088236749424,60.46418367274826,54.52309496390072,43.98648663552459,43.852088236749424,43.98648663552459,54.52309496390072,60.46418367274826,-10,-0.33,0.33,10,44,34,43.67,44.33,54,10,10,10,10
11,11,0.04423880000831559,o,41.3,Unlimited Time,h,40.721773616135025,55.87344861316965,41.26408469805076,51.17681252554309,40.721773616135025,51.17681252554309,41.26408469805076,55.87344861316965,-10,-0.33,0.33,10,44,34,43.67,44.33,54,10,10,10,10
11,12,0.1275566999684088,p,48.7,Unlimited Time,h,17.341051739238903,59.54253212791553,28.077444502107717,48.65806691883433,17.341051739238903,48.65806691883433,28.077444502107717,59.54253212791553,-10,-0.33,0.33,10,44,34,43.67,44.33,54,10,10,10,10
11,13,0.0920732999802567,w,66.7,Unlimited Time,h,34.39320591589348,66.74655261051436,34.48817364333818,58.29949631110247,34.39320591589348,58.29949631110247,34.48817364333818,66.74655261051436,-10,-0.33,0.33,10,44,34,43.67,44.33,54,10,10,10,10
11,14,0.07286620000377297,o,28.2,Unlimited Time,h,42.38158225766249,58.61565481480237,28.21885664539205,61.603359459673385,42.38158225766249,61.603359459673385,28.21885664539205,58.61565481480237,-10,-0.33,0.33,10,44,34,43.67,44.33,54,10,10,10,10
11,15,0.1481093000038527,p,39.6,Unlimited Time,h,36.85254096889731,40.748955409256325,47.4256169385998,39.647536146496485,36.85254096889731,39.647536146496485,47.4256169385998,40.748955409256325,-10,-0.33,0.33,10,44,34,43.67,44.33,54,10,10,10,10
11,16,0.05661379999946803,w,57.2,Unlimited Time,h,29.430628436618026,57.22635286045977,45.05506831126788,52.0144668339469,29.430628436618026,52.0144668339469,45.05506831126788,57.22635286045977,-10,-0.33,0.33,10,44,34,43.67,44.33,54,10,10,10,10
11,17,0.03663149999920279,p,41.0,Unlimited Time,h,34.54281351030303,49.23494972187987,45.28637930873637,41.035686012045915,34.54281351030303,41.035686012045915,45.28637930873637,49.23494972187987,-10,-0.33,0.33,10,44,34,43.67,44.33,54,10,10,10,10
11,18,0.013519999978598207,w,56.0,Unlimited Time,h,31.291663230323028,56.004951611495265,56.05719642733139,45.04174368707646,31.291663230323028,45.04174368707646,56.05719642733139,56.004951611495265,-10,-0.33,0.33,10,44,34,43.67,44.33,54,10,10,10,10
11,19,0.009450200013816357,p,65.3,Unlimited Time,h,24.722173580695234,49.58396314451372,47.597207500266435,65.3083193288325,24.722173580695234,65.3083193288325,47.597207500266435,49.58396314451372,-10,-0.33,0.33,10,44,34,43.67,44.33,54,10,10,10,10
11,20,0.6208899999619462,w,53.3,Unlimited Time,h,30.059179709359178,53.3013221784203,63.482425002347526,37.017940483400615,30.059179709359178,37.017940483400615,63.482425002347526,53.3013221784203,-10,-0.33,0.33,10,44,34,43.67,44.33,54,10,10,10,10
12,1,0.2573067999910563,q,55.5,Limited Time,i,55.49274249224112,42.97165801896985,37.12589389480041,38.18310423134017,37.12589389480041,38.18310423134017,55.49274249224112,42.97165801896985,-10,-10,10,10,44,34,34,54,54,3.1622776601683795,10,3.1622776601683795,10
12,2,0.02721099997870624,w,42.2,Limited Time,i,53.681336955727595,42.20491152815039,32.548968690973034,46.23513644704911,32.548968690973034,46.23513644704911,53.681336955727595,42.20491152815039,-10,-10,10,10,44,34,34,54,54,3.1622776601683795,10,3.1622776601683795,10
12,3,,,0.0,Limited Time,i,50.78987979248402,61.77541839865897,33.70687213117996,34.22164788509719,33.70687213117996,34.22164788509719,50.78987979248402,61.77541839865897,-10,-10,10,10,44,34,34,54,54,3.1622776601683795,10,3.1622776601683795,10
12,4,0.2797201999928802,p,44.3,Limited Time,i,50.334365456816066,52.96366711539008,33.05893739809016,44.32074678234642,33.05893739809016,44.32074678234642,50.334365456816066,52.96366711539008,-10,-10,10,10,44,34,34,54,54,3.1622776601683795,10,3.1622776601683795,10
12,5,0.10679619997972623,o,30.4,Limited Time,i,50.68734564933486,59.37455397360482,30.414766802288185,35.23594708244349,30.414766802288185,35.23594708244349,50.68734564933486,59.37455397360482,-10,-10,10,10,44,34,34,54,54,3.1622776601683795,10,3.1622776601683795,10
12,6,0.05156749999150634,p,52.6,Limited Time,i,56.63636319331979,40.70678802920189,40.786716407967745,52.64537003000012,40.786716407967745,52.64537003000012,56.63636319331979,40.70678802920189,-10,-10,10,10,44,34,34,54,54,3.1622776601683795,10,3.1622776601683795,10
12,7,0.03887270000996068,p,55.6,Limited Time,i,54.61234974062862,69.56360067643473,30.119789165592874,55.575974051456946,30.119789165592874,55.575974051456946,54.61234974062862,69.56360067643473,-10,-10,10,10,44,34,34,54,54,3.1622776601683795,10,3.1622776601683795,10
12,8,0.07722579996334389,p,26.7,Limited Time,i,59.4986242009331,53.69873998983179,31.352412320347604,26.657157711428088,31.352412320347604,26.657157711428088,59.4986242009331,53.69873998983179,-10,-10,10,10,44,34,34,54,54,3.1622776601683795,10,3.1622776601683795,10
12,9,0.04927269998006523,q,52.9,Limited Time,i,52.88707612975265,40.81763806330459,36.74506588932407,28.54659053834955,36.74506588932407,28.54659053834955,52.88707612975265,40.81763806330459,-10,-10,10,10,44,34,34,54,54,3.1622776601683795,10,3.1622776601683795,10
12,10,0.04025639995234087,q,51.6,Limited Time,i,51.60892757940567,44.74919906221168,33.59196643316544,36.45438262790708,33.59196643316544,36.45438262790708,51.60892757940567,44.74919906221168,-10,-10,10,10,44,34,34,54,54,3.1622776601683795,10,3.1622776601683795,10
12,11,0.038300100015476346,q,56.9,Limited Time,i,56.90054146394041,32.60202853399322,33.27608207787097,21.570187717202934,33.27608207787097,21.570187717202934,56.90054146394041,32.60202853399322,-10,-10,10,10,44,34,34,54,54,3.1622776601683795,10,3.1622776601683795,10
12,12,0.03635239996947348,q,54.3,Limited Time,i,54.34295390236593,29.80929853802967,34.542519870885485,27.11639681350812,34.542519870885485,27.11639681350812,54.34295390236593,29.80929853802967,-10,-10,10,10,44,34,34,54,54,3.1622776601683795,10,3.1622776601683795,10
12,13,0.035567999992053956,q,55.3,Limited Time,i,55.30976636354826,35.48859519741724,34.52426902481172,50.60557223743966,34.52426902481172,50.60557223743966,55.30976636354826,35.48859519741724,-10,-10,10,10,44,34,34,54,54,3.1622776601683795,10,3.1622776601683795,10
12,14,,,0.0,Limited Time,i,55.39409199540118,24.77047466180752,39.13868376471437,44.932417771125834,39.13868376471437,44.932417771125834,55.39409199540118,24.77047466180752,-10,-10,10,10,44,34,34,54,54,3.1622776601683795,10,3.1622776601683795,10
12,15,,,0.0,Limited Time,i,47.12645015188817,69.59993229686049,34.224173255354444,44.54960501853465,34.224173255354444,44.54960501853465,47.12645015188817,69.59993229686049,-10,-10,10,10,44,34,34,54,54,3.1622776601683795,10,3.1622776601683795,10
12,16,0.22271549998549744,w,42.4,Limited Time,i,55.40486374301068,42.41623167576016,34.04253617262648,26.996139123413677,34.04253617262648,26.996139123413677,55.40486374301068,42.41623167576016,-10,-10,10,10,44,34,34,54,54,3.1622776601683795,10,3.1622776601683795,10
12,17,0.058687100012321025,w,60.0,Limited Time,i,52.46141967790433,59.99603766050233,31.137562995082995,32.07429073605784,31.137562995082995,32.07429073605784,52.46141967790433,59.99603766050233,-10,-10,10,10,44,34,34,54,54,3.1622776601683795,10,3.1622776601683795,10
12,18,0.040740600030403584,w,48.6,Limited Time,i,58.5954928900011,48.5572077191701,29.426810349681585,38.44982331660449,29.426810349681585,38.44982331660449,58.5954928900011,48.5572077191701,-10,-10,10,10,44,34,34,54,54,3.1622776601683795,10,3.1622776601683795,10
12,19,0.043097799993120134,w,60.8,Limited Time,i,57.903788603378985,60.77632095743283,28.560129427189015,45.528898854880104,28.560129427189015,45.528898854880104,57.903788603378985,60.77632095743283,-10,-10,10,10,44,34,34,54,54,3.1622776601683795,10,3.1622776601683795,10
12,20,0.032067299995105714,w,50.7,Limited Time,i,55.176455193474986,50.72534651964114,29.009862667239105,37.830029534547855,29.009862667239105,37.830029534547855,55.176455193474986,50.72534651964114,-10,-10,10,10,44,34,34,54,54,3.1622776601683795,10,3.1622776601683795,10
13,1,0.3474918000283651,q,54.6,Unlimited Time,l,54.59105002107553,41.27812632517491,32.74990540393245,41.786070108501214,32.74990540393245,41.27812632517491,41.786070108501214,54.59105002107553,-10,-0.33,0.33,10,44,34,43.67,44.33,54,3.1622776601683795,3.1622776601683795,3.1622776601683795,3.1622776601683795
13,2,0.017653799965046346,w,38.7,Unlimited Time,l,53.14464505586691,38.74175782754565,31.282983624467995,46.137246060174604,31.282983624467995,38.74175782754565,46.137246060174604,53.14464505586691,-10,-0.33,0.33,10,44,34,43.67,44.33,54,3.1622776601683795,3.1622776601683795,3.1622776601683795,3.1622776601683795
13,3,0.4760734000010416,p,44.6,Unlimited Time,l,53.832086257954856,39.67869398480571,27.228623422259894,44.630869675996244,27.228623422259894,39.67869398480571,44.630869675996244,53.832086257954856,-10,-0.33,0.33,10,44,34,43.67,44.33,54,3.1622776601683795,3.1622776601683795,3.1622776601683795,3.1622776601683795
13,4,0.09020669996971264,o,36.2,Unlimited Time,l,53.794104981571685,43.11764924601199,36.18982916844594,43.67014761207521,36.18982916844594,43.11764924601199,43.67014761207521,53.794104981571685,-10,-0.33,0.33,10,44,34,43.67,44.33,54,3.1622776601683795,3.1622776601683795,3.1622776601683795,3.1622776601683795
13,5,0.06968289997894317,q,51.8,Unlimited Time,l,51.783600007177654,41.15902932336375,30.104467650281045,46.89346849019759,30.104467650281045,41.15902932336375,46.89346849019759,51.783600007177654,-10,-0.33,0.33,10,44,34,43.67,44.33,54,3.1622776601683795,3.1622776601683795,3.1622776601683795,3.1622776601683795
13,6,0.051498199987690896,q,56.0,Unlimited Time,l,56.00199228274168,45.856042057408985,43.75585104299846,46.15753143330403,43.75585104299846,45.856042057408985,46.15753143330403,56.00199228274168,-10,-0.33,0.33,10,44,34,43.67,44.33,54,3.1622776601683795,3.1622776601683795,3.1622776601683795,3.1622776601683795
13,7,0.4214271999662742,q,53.9,Unlimited Time,l,53.93144750537458,42.53623662169456,29.635067964110416,40.96173232601841,29.635067964110416,42.53623662169456,40.96173232601841,53.93144750537458,-10,-0.33,0.33,10,44,34,43.67,44.33,54,3.1622776601683795,3.1622776601683795,3.1622776601683795,3.1622776601683795
13,8,0.18662839999888092,q,56.1,Unlimited Time,l,56.09141964713663,45.29229626452399,33.89508414888364,41.45349450240222,33.89508414888364,45.29229626452399,41.45349450240222,56.09141964713663,-10,-0.33,0.33,10,44,34,43.67,44.33,54,3.1622776601683795,3.1622776601683795,3.1622776601683795,3.1622776601683795
13,9,0.24692100001266226,q,53.1,Unlimited Time,l,53.061189483689766,43.33966853267123,28.877173436848548,45.40262382390722,28.877173436848548,43.33966853267123,45.40262382390722,53.061189483689766,-10,-0.33,0.33,10,44,34,43.67,44.33,54,3.1622776601683795,3.1622776601683795,3.1622776601683795,3.1622776601683795
13,10,0.19054490001872182,q,53.4,Unlimited Time,l,53.35388604280303,44.64376082368236,31.751743153092217,51.131161202046144,31.751743153092217,44.64376082368236,51.131161202046144,53.35388604280303,-10,-0.33,0.33,10,44,34,43.67,44.33,54,3.1622776601683795,3.1622776601683795,3.1622776601683795,3.1622776601683795
13,11,0.1795991999679245,q,54.5,Unlimited Time,l,54.46081606615124,43.82034149857347,27.599970999550766,44.07416259946779,27.599970999550766,43.82034149857347,44.07416259946779,54.46081606615124,-10,-0.33,0.33,10,44,34,43.67,44.33,54,3.1622776601683795,3.1622776601683795,3.1622776601683795,3.1622776601683795
13,12,0.16988419997505844,q,52.7,Unlimited Time,l,52.685505451574016,44.94270252253214,33.80890531672292,46.55860956501602,33.80890531672292,44.94270252253214,46.55860956501602,52.685505451574016,-10,-0.33,0.33,10,44,34,43.67,44.33,54,3.1622776601683795,3.1622776601683795,3.1622776601683795,3.1622776601683795
13,13,0.06969169998774305,q,51.0,Unlimited Time,l,51.02407010123808,46.47544082741562,31.543305775329788,43.94301489911432,31.543305775329788,46.47544082741562,43.94301489911432,51.02407010123808,-10,-0.33,0.33,10,44,34,43.67,44.33,54,3.1622776601683795,3.1622776601683795,3.1622776601683795,3.1622776601683795
13,14,0.054386200034059584,q,60.6,Unlimited Time,l,60.635554710756956,41.10872162124668,37.51051331719463,46.11810931081855,37.51051331719463,41.10872162124668,46.11810931081855,60.635554710756956,-10,-0.33,0.33,10,44,34,43.67,44.33,54,3.1622776601683795,3.1622776601683795,3.1622776601683795,3.1622776601683795
13,15,0.11241119995247573,q,49.9,Unlimited Time,l,49.900011416548004,54.59639546881411,28.544283192726077,42.979324173961366,28.544283192726077,54.59639546881411,42.979324173961366,49.900011416548004,-10,-0.33,0.33,10,44,34,43.67,44.33,54,3.1622776601683795,3.1622776601683795,3.1622776601683795,3.1622776601683795
13,16,0.03805509995436296,q,56.0,Unlimited Time,l,55.98621863577582,44.12584089061155,37.87519037013256,38.09730587339244,37.87519037013256,44.12584089061155,38.09730587339244,55.98621863577582,-10,-0.33,0.33,10,44,34,43.67,44.33,54,3.1622776601683795,3.1622776601683795,3.1622776601683795,3.1622776601683795
13,17,0.5265079000382684,q,54.2,Unlimited Time,l,54.19069716896084,45.44976123618437,27.749802438854186,47.846773048495024,27.749802438854186,45.44976123618437,47.846773048495024,54.19069716896084,-10,-0.33,0.33,10,44,34,43.67,44.33,54,3.1622776601683795,3.1622776601683795,3.1622776601683795,3.1622776601683795
13,18,0.010226699989289045,q,53.4,Unlimited Time,l,53.37432721117004,44.96206200729012,33.20722220431353,47.75534612870628,33.20722220431353,44.96206200729012,47.75534612870628,53.37432721117004,-10,-0.33,0.33,10,44,34,43.67,44.33,54,3.1622776601683795,3.1622776601683795,3.1622776601683795,3.1622776601683795
13,19,0.07104519999120384,q,54.7,Unlimited Time,l,54.74597798805665,43.33577696251858,37.96194883895032,46.74048286238203,37.96194883895032,43.33577696251858,46.74048286238203,54.74597798805665,-10,-0.33,0.33,10,44,34,43.67,44.33,54,3.1622776601683795,3.1622776601683795,3.1622776601683795,3.1622776601683795
13,20,0.008703500032424927,q,52.4,Unlimited Time,l,52.43480729557617,40.625116167227524,35.822895314949065,46.85489516743368,35.822895314949065,40.625116167227524,46.85489516743368,52.43480729557617,-10,-0.33,0.33,10,44,34,43.67,44.33,54,3.1622776601683795,3.1622776601683795,3.1622776601683795,3.1622776601683795
14,1,,,0.0,Limited Time,l,41.786070108501214,32.74990540393245,54.59105002107553,41.27812632517491,32.74990540393245,41.27812632517491,41.786070108501214,54.59105002107553,-10,-0.33,0.33,10,44,34,43.67,44.33,54,3.1622776601683795,3.1622776601683795,3.1622776601683795,3.1622776601683795
14,2,0.16466639999998733,w,31.3,Limited Time,l,46.137246060174604,31.282983624467995,53.14464505586691,38.74175782754565,31.282983624467995,38.74175782754565,46.137246060174604,53.14464505586691,-10,-0.33,0.33,10,44,34,43.67,44.33,54,3.1622776601683795,3.1622776601683795,3.1622776601683795,3.1622776601683795
14,3,0.14348939998308197,o,53.8,Limited Time,l,44.630869675996244,27.228623422259894,53.832086257954856,39.67869398480571,27.228623422259894,39.67869398480571,44.630869675996244,53.832086257954856,-10,-0.33,0.33,10,44,34,43.67,44.33,54,3.1622776601683795,3.1622776601683795,3.1622776601683795,3.1622776601683795
14,4,0.15341640001861379,p,43.1,Limited Time,l,43.67014761207521,36.18982916844594,53.794104981571685,43.11764924601199,36.18982916844594,43.11764924601199,43.67014761207521,53.794104981571685,-10,-0.33,0.33,10,44,34,43.67,44.33,54,3.1622776601683795,3.1622776601683795,3.1622776601683795,3.1622776601683795
14,5,0.09774810000089929,p,41.2,Limited Time,l,46.89346849019759,30.104467650281045,51.783600007177654,41.15902932336375,30.104467650281045,41.15902932336375,46.89346849019759,51.783600007177654,-10,-0.33,0.33,10,44,34,43.67,44.33,54,3.1622776601683795,3.1622776601683795,3.1622776601683795,3.1622776601683795
14,6,0.07557320001069456,q,46.2,Limited Time,l,46.15753143330403,43.75585104299846,56.00199228274168,45.856042057408985,43.75585104299846,45.856042057408985,46.15753143330403,56.00199228274168,-10,-0.33,0.33,10,44,34,43.67,44.33,54,3.1622776601683795,3.1622776601683795,3.1622776601683795,3.1622776601683795
14,7,,,0.0,Limited Time,l,40.96173232601841,29.635067964110416,53.93144750537458,42.53623662169456,29.635067964110416,42.53623662169456,40.96173232601841,53.93144750537458,-10,-0.33,0.33,10,44,34,43.67,44.33,54,3.1622776601683795,3.1622776601683795,3.1622776601683795,3.1622776601683795
14,8,0.3372687000082806,p,45.3,Limited Time,l,41.45349450240222,33.89508414888364,56.09141964713663,45.29229626452399,33.89508414888364,45.29229626452399,41.45349450240222,56.09141964713663,-10,-0.33,0.33,10,44,34,43.67,44.33,54,3.1622776601683795,3.1622776601683795,3.1622776601683795,3.1622776601683795
14,9,,,0.0,Limited Time,l,45.40262382390722,28.877173436848548,53.061189483689766,43.33966853267123,28.877173436848548,43.33966853267123,45.40262382390722,53.061189483689766,-10,-0.33,0.33,10,44,34,43.67,44.33,54,3.1622776601683795,3.1622776601683795,3.1622776601683795,3.1622776601683795
14,10,0.04271870001684874,q,51.1,Limited Time,l,51.131161202046144,31.751743153092217,53.35388604280303,44.64376082368236,31.751743153092217,44.64376082368236,51.131161202046144,53.35388604280303,-10,-0.33,0.33,10,44,34,43.67,44.33,54,3.1622776601683795,3.1622776601683795,3.1622776601683795,3.1622776601683795
14,11,0.19738349999533966,q,44.1,Limited Time,l,44.07416259946779,27.599970999550766,54.46081606615124,43.82034149857347,27.599970999550766,43.82034149857347,44.07416259946779,54.46081606615124,-10,-0.33,0.33,10,44,34,43.67,44.33,54,3.1622776601683795,3.1622776601683795,3.1622776601683795,3.1622776601683795
14,12,0.09112300002016127,w,33.8,Limited Time,l,46.55860956501602,33.80890531672292,52.685505451574016,44.94270252253214,33.80890531672292,44.94270252253214,46.55860956501602,52.685505451574016,-10,-0.33,0.33,10,44,34,43.67,44.33,54,3.1622776601683795,3.1622776601683795,3.1622776601683795,3.1622776601683795
14,13,0.05566120002185926,o,51.0,Limited Time,l,43.94301489911432,31.543305775329788,51.02407010123808,46.47544082741562,31.543305775329788,46.47544082741562,43.94301489911432,51.02407010123808,-10,-0.33,0.33,10,44,34,43.67,44.33,54,3.1622776601683795,3.1622776601683795,3.1622776601683795,3.1622776601683795
14,14,0.21487169997999445,p,41.1,Limited Time,l,46.11810931081855,37.51051331719463,60.635554710756956,41.10872162124668,37.51051331719463,41.10872162124668,46.11810931081855,60.635554710756956,-10,-0.33,0.33,10,44,34,43.67,44.33,54,3.1622776601683795,3.1622776601683795,3.1622776601683795,3.1622776601683795
14,15,0.04926790000172332,o,49.9,Limited Time,l,42.979324173961366,28.544283192726077,49.900011416548004,54.59639546881411,28.544283192726077,54.59639546881411,42.979324173961366,49.900011416548004,-10,-0.33,0.33,10,44,34,43.67,44.33,54,3.1622776601683795,3.1622776601683795,3.1622776601683795,3.1622776601683795
14,16,0.1891001000185497,w,37.9,Limited Time,l,38.09730587339244,37.87519037013256,55.98621863577582,44.12584089061155,37.87519037013256,44.12584089061155,38.09730587339244,55.98621863577582,-10,-0.33,0.33,10,44,34,43.67,44.33,54,3.1622776601683795,3.1622776601683795,3.1622776601683795,3.1622776601683795
14,17,0.07298200001241639,q,47.8,Limited Time,l,47.846773048495024,27.749802438854186,54.19069716896084,45.44976123618437,27.749802438854186,45.44976123618437,47.846773048495024,54.19069716896084,-10,-0.33,0.33,10,44,34,43.67,44.33,54,3.1622776601683795,3.1622776601683795,3.1622776601683795,3.1622776601683795
14,18,0.35029440000653267,w,33.2,Limited Time,l,47.75534612870628,33.20722220431353,53.37432721117004,44.96206200729012,33.20722220431353,44.96206200729012,47.75534612870628,53.37432721117004,-10,-0.33,0.33,10,44,34,43.67,44.33,54,3.1622776601683795,3.1622776601683795,3.1622776601683795,3.1622776601683795
14,19,0.025065299996640533,o,54.7,Limited Time,l,46.74048286238203,37.96194883895032,54.74597798805665,43.33577696251858,37.96194883895032,43.33577696251858,46.74048286238203,54.74597798805665,-10,-0.33,0.33,10,44,34,43.67,44.33,54,3.1622776601683795,3.1622776601683795,3.1622776601683795,3.1622776601683795
14,20,0.08727040002122521,p,40.6,Limited Time,l,46.85489516743368,35.822895314949065,52.43480729557617,40.625116167227524,35.822895314949065,40.625116167227524,46.85489516743368,52.43480729557617,-10,-0.33,0.33,10,44,34,43.67,44.33,54,3.1622776601683795,3.1622776601683795,3.1622776601683795,3.1622776601683795
15,1,0.3796309999888763,q,63.3,Unlimited Time,h,63.29412269458075,40.959805323860834,54.97470863221699,38.79243720495717,38.79243720495717,63.29412269458075,40.959805323860834,54.97470863221699,-10,-0.33,0.33,10,44,34,43.67,44.33,54,10,10,10,10
15,2,0.15980929997749627,w,39.8,Unlimited Time,h,48.656490693038336,39.83596452773864,66.4912027885443,25.04657128568725,25.04657128568725,48.656490693038336,39.83596452773864,66.4912027885443,-10,-0.33,0.33,10,44,34,43.67,44.33,54,10,10,10,10
15,3,0.13579670002218336,o,52.6,Unlimited Time,h,47.66927567419221,35.53966170204974,52.614025740437846,28.283048996122933,28.283048996122933,47.66927567419221,35.53966170204974,52.614025740437846,-10,-0.33,0.33,10,44,34,43.67,44.33,54,10,10,10,10
15,4,0.1701562000089325,p,37.3,Unlimited Time,h,54.69468880425824,47.406373690913824,43.12960232080954,37.331250295412914,37.331250295412914,54.69468880425824,47.406373690913824,43.12960232080954,-10,-0.33,0.33,10,44,34,43.67,44.33,54,10,10,10,10
15,5,0.1292020000400953,p,27.3,Unlimited Time,h,35.57744625252323,44.576544725365075,54.90953690679006,27.324776633378058,27.324776633378058,35.57744625252323,44.576544725365075,54.90953690679006,-10,-0.33,0.33,10,44,34,43.67,44.33,54,10,10,10,10
15,6,0.4688309000339359,o,58.1,Unlimited Time,h,32.294938954130785,58.63606105247747,58.08780928812499,34.71001652926692,34.71001652926692,32.294938954130785,58.63606105247747,58.08780928812499,-10,-0.33,0.33,10,44,34,43.67,44.33,54,10,10,10,10
15,7,0.08400169998640195,q,49.8,Unlimited Time,h,49.760990468231384,46.56785847635665,47.92047846125623,16.90093319842568,16.90093319842568,49.760990468231384,46.56785847635665,47.92047846125623,-10,-0.33,0.33,10,44,34,43.67,44.33,54,10,10,10,10
15,8,0.04001070000231266,o,38.0,Unlimited Time,h,55.72298895277197,43.034548453491205,37.970344861877024,45.746814960937925,45.746814960937925,55.72298895277197,43.034548453491205,37.970344861877024,-10,-0.33,0.33,10,44,34,43.67,44.33,54,10,10,10,10
15,9,0.4006099000107497,o,45.5,Unlimited Time,h,30.492560038322466,25.152985914130937,45.54325675077297,6.923632785241196,6.923632785241196,30.492560038322466,25.152985914130937,45.54325675077297,-10,-0.33,0.33,10,44,34,43.67,44.33,54,10,10,10,10
15,10,0.19213149999268353,o,60.5,Unlimited Time,h,43.98648663552459,54.52309496390072,60.46418367274826,43.852088236749424,43.852088236749424,43.98648663552459,54.52309496390072,60.46418367274826,-10,-0.33,0.33,10,44,34,43.67,44.33,54,10,10,10,10
15,11,0.07125520001864061,p,40.7,Unlimited Time,h,51.17681252554309,41.26408469805076,55.87344861316965,40.721773616135025,40.721773616135025,51.17681252554309,41.26408469805076,55.87344861316965,-10,-0.33,0.33,10,44,34,43.67,44.33,54,10,10,10,10
15,12,0.12239139998564497,p,17.3,Unlimited Time,h,48.65806691883433,28.077444502107717,59.54253212791553,17.341051739238903,17.341051739238903,48.65806691883433,28.077444502107717,59.54253212791553,-10,-0.33,0.33,10,44,34,43.67,44.33,54,10,10,10,10
15,13,0.47311200003605336,w,34.5,Unlimited Time,h,58.29949631110247,34.48817364333818,66.74655261051436,34.39320591589348,34.39320591589348,58.29949631110247,34.48817364333818,66.74655261051436,-10,-0.33,0.33,10,44,34,43.67,44.33,54,10,10,10,10
15,14,0.05236989998957142,w,28.2,Unlimited Time,h,61.603359459673385,28.21885664539205,58.61565481480237,42.38158225766249,42.38158225766249,61.603359459673385,28.21885664539205,58.61565481480237,-10,-0.33,0.33,10,44,34,43.67,44.33,54,10,10,10,10
15,15,0.02804689999902621,q,39.6,Unlimited Time,h,39.647536146496485,47.4256169385998,40.748955409256325,36.85254096889731,36.85254096889731,39.647536146496485,47.4256169385998,40.748955409256325,-10,-0.33,0.33,10,44,34,43.67,44.33,54,10,10,10,10
15,16,0.031232600042130798,q,52.0,Unlimited Time,h,52.0144668339469,45.05506831126788,57.22635286045977,29.430628436618026,29.430628436618026,52.0144668339469,45.05506831126788,57.22635286045977,-10,-0.33,0.33,10,44,34,43.67,44.33,54,10,10,10,10
15,17,0.046235700021497905,q,41.0,Unlimited Time,h,41.035686012045915,45.28637930873637,49.23494972187987,34.54281351030303,34.54281351030303,41.035686012045915,45.28637930873637,49.23494972187987,-10,-0.33,0.33,10,44,34,43.67,44.33,54,10,10,10,10
15,18,0.04833790002157912,q,45.0,Unlimited Time,h,45.04174368707646,56.05719642733139,56.004951611495265,31.291663230323028,31.291663230323028,45.04174368707646,56.05719642733139,56.004951611495265,-10,-0.33,0.33,10,44,34,43.67,44.33,54,10,10,10,10
15,19,0.0808555000112392,p,24.7,Unlimited Time,h,65.3083193288325,47.597207500266435,49.58396314451372,24.722173580695234,24.722173580695234,65.3083193288325,47.597207500266435,49.58396314451372,-10,-0.33,0.33,10,44,34,43.67,44.33,54,10,10,10,10
15,20,0.13533859996823594,q,37.0,Unlimited Time,h,37.017940483400615,63.482425002347526,53.3013221784203,30.059179709359178,30.059179709359178,37.017940483400615,63.482425002347526,53.3013221784203,-10,-0.33,0.33,10,44,34,43.67,44.33,54,10,10,10,10
16,1,0.33866199996555224,w,55.5,Limited Time,i,37.12589389480041,55.49274249224112,42.97165801896985,38.18310423134017,37.12589389480041,38.18310423134017,55.49274249224112,42.97165801896985,-10,-10,10,10,44,34,34,54,54,3.1622776601683795,10,3.1622776601683795,10
16,2,0.22543220000807196,o,42.2,Limited Time,i,32.548968690973034,53.681336955727595,42.20491152815039,46.23513644704911,32.548968690973034,46.23513644704911,53.681336955727595,42.20491152815039,-10,-10,10,10,44,34,34,54,54,3.1622776601683795,10,3.1622776601683795,10
16,3,0.26044659997569397,p,34.2,Limited Time,i,33.70687213117996,50.78987979248402,61.77541839865897,34.22164788509719,33.70687213117996,34.22164788509719,50.78987979248402,61.77541839865897,-10,-10,10,10,44,34,34,54,54,3.1622776601683795,10,3.1622776601683795,10
16,4,0.20019949995912611,q,33.1,Limited Time,i,33.05893739809016,50.334365456816066,52.96366711539008,44.32074678234642,33.05893739809016,44.32074678234642,50.334365456816066,52.96366711539008,-10,-10,10,10,44,34,34,54,54,3.1622776601683795,10,3.1622776601683795,10
16,5,0.25969430000986904,w,50.7,Limited Time,i,30.414766802288185,50.68734564933486,59.37455397360482,35.23594708244349,30.414766802288185,35.23594708244349,50.68734564933486,59.37455397360482,-10,-10,10,10,44,34,34,54,54,3.1622776601683795,10,3.1622776601683795,10
16,6,0.27432920003775507,w,56.6,Limited Time,i,40.786716407967745,56.63636319331979,40.70678802920189,52.64537003000012,40.786716407967745,52.64537003000012,56.63636319331979,40.70678802920189,-10,-10,10,10,44,34,34,54,54,3.1622776601683795,10,3.1622776601683795,10
16,7,0.1756003000191413,w,54.6,Limited Time,i,30.119789165592874,54.61234974062862,69.56360067643473,55.575974051456946,30.119789165592874,55.575974051456946,54.61234974062862,69.56360067643473,-10,-10,10,10,44,34,34,54,54,3.1622776601683795,10,3.1622776601683795,10
16,8,0.19338449998758733,w,59.5,Limited Time,i,31.352412320347604,59.4986242009331,53.69873998983179,26.657157711428088,31.352412320347604,26.657157711428088,59.4986242009331,53.69873998983179,-10,-10,10,10,44,34,34,54,54,3.1622776601683795,10,3.1622776601683795,10
16,9,0.20779070002026856,w,52.9,Limited Time,i,36.74506588932407,52.88707612975265,40.81763806330459,28.54659053834955,36.74506588932407,28.54659053834955,52.88707612975265,40.81763806330459,-10,-10,10,10,44,34,34,54,54,3.1622776601683795,10,3.1622776601683795,10
16,10,0.18758969998452812,w,51.6,Limited Time,i,33.59196643316544,51.60892757940567,44.74919906221168,36.45438262790708,33.59196643316544,36.45438262790708,51.60892757940567,44.74919906221168,-10,-10,10,10,44,34,34,54,54,3.1622776601683795,10,3.1622776601683795,10
16,11,0.10315620002802461,w,56.9,Limited Time,i,33.27608207787097,56.90054146394041,32.60202853399322,21.570187717202934,33.27608207787097,21.570187717202934,56.90054146394041,32.60202853399322,-10,-10,10,10,44,34,34,54,54,3.1622776601683795,10,3.1622776601683795,10
16,12,0.12125419999938458,w,54.3,Limited Time,i,34.542519870885485,54.34295390236593,29.80929853802967,27.11639681350812,34.542519870885485,27.11639681350812,54.34295390236593,29.80929853802967,-10,-10,10,10,44,34,34,54,54,3.1622776601683795,10,3.1622776601683795,10
16,13,0.1391425000037998,w,55.3,Limited Time,i,34.52426902481172,55.30976636354826,35.48859519741724,50.60557223743966,34.52426902481172,50.60557223743966,55.30976636354826,35.48859519741724,-10,-10,10,10,44,34,34,54,54,3.1622776601683795,10,3.1622776601683795,10
16,14,0.19988329999614507,w,55.4,Limited Time,i,39.13868376471437,55.39409199540118,24.77047466180752,44.932417771125834,39.13868376471437,44.932417771125834,55.39409199540118,24.77047466180752,-10,-10,10,10,44,34,34,54,54,3.1622776601683795,10,3.1622776601683795,10
16,15,0.11902520002331585,w,47.1,Limited Time,i,34.224173255354444,47.12645015188817,69.59993229686049,44.54960501853465,34.224173255354444,44.54960501853465,47.12645015188817,69.59993229686049,-10,-10,10,10,44,34,34,54,54,3.1622776601683795,10,3.1622776601683795,10
16,16,0.0759346000268124,w,55.4,Limited Time,i,34.04253617262648,55.40486374301068,42.41623167576016,26.996139123413677,34.04253617262648,26.996139123413677,55.40486374301068,42.41623167576016,-10,-10,10,10,44,34,34,54,54,3.1622776601683795,10,3.1622776601683795,10
16,17,0.12590079999063164,w,52.5,Limited Time,i,31.137562995082995,52.46141967790433,59.99603766050233,32.07429073605784,31.137562995082995,32.07429073605784,52.46141967790433,59.99603766050233,-10,-10,10,10,44,34,34,54,54,3.1622776601683795,10,3.1622776601683795,10
16,18,0.09689370001433417,w,58.6,Limited Time,i,29.426810349681585,58.5954928900011,48.5572077191701,38.44982331660449,29.426810349681585,38.44982331660449,58.5954928900011,48.5572077191701,-10,-10,10,10,44,34,34,54,54,3.1622776601683795,10,3.1622776601683795,10
16,19,0.07174949999898672,w,57.9,Limited Time,i,28.560129427189015,57.903788603378985,60.77632095743283,45.528898854880104,28.560129427189015,45.528898854880104,57.903788603378985,60.77632095743283,-10,-10,10,10,44,34,34,54,54,3.1622776601683795,10,3.1622776601683795,10
16,20,0.1021959999925457,w,55.2,Limited Time,i,29.009862667239105,55.176455193474986,50.72534651964114,37.830029534547855,29.009862667239105,37.830029534547855,55.176455193474986,50.72534651964114,-10,-10,10,10,44,34,34,54,54,3.1622776601683795,10,3.1622776601683795,10
