trials.thisRepN,trials.thisTrialN,trials.thisN,trials.thisIndex,trials_2.thisRepN,trials_2.thisTrialN,trials_2.thisN,trials_2.thisIndex,trials_5.thisRepN,trials_5.thisTrialN,trials_5.thisN,trials_5.thisIndex,trials_3.thisRepN,trials_3.thisTrialN,trials_3.thisN,trials_3.thisIndex,trials_4.thisRepN,trials_4.thisTrialN,trials_4.thisN,trials_4.thisIndex,text_12.started,key_resp_6.started,key_resp_6.keys,key_resp_6.rt,textbox_2.started,textbox_3.started,textbox_4.started,key_resp_7.started,key_resp_7.keys,key_resp_7.rt,textbox_5.started,key_resp_8.started,key_resp_8.keys,key_resp_8.rt,textbox_6.started,key_resp_9.started,key_resp_9.keys,key_resp_9.rt,textbox_7.started,key_resp_10.started,key_resp_10.keys,key_resp_10.rt,text_5.started,key_resp_4.started,key_resp_4.keys,key_resp_4.rt,text.started,key_resp.started,key_resp.keys,key_resp.rt,text_2.started,image.started,text_2.stopped,image.stopped,text_3.started,key_resp_2.started,key_resp_2.keys,key_resp_2.rt,text_6.started,key_resp_5.started,key_resp_5.keys,key_resp_5.rt,text_4.started,key_resp_3.started,key_resp_3.keys,key_resp_3.rt,text_7.started,image_2.started,text_10.started,key_resp_14.started,key_resp_14.keys,key_resp_14.rt,text_8.started,key_resp_12.started,key_resp_12.keys,key_resp_12.rt,text_9.started,key_resp_13.started,key_resp_13.keys,key_resp_13.rt,text_4.stopped,key_resp_3.stopped,textbox_8.started,key_resp_11.started,text_11.started,key_resp_11.keys,key_resp_11.rt,participant,session,date,expName,psychopyVersion,frameRate,
,,,,,,,,,,,,,,,,,,,,22.642308600000433,22.642308600000433,space,1.0903101999992941,,,,,,,,,,,,,,,,,,,,,,,,,,,,,,,,,,,,,,,,,,,,,,,,,,,,,,,,,,,,,,,,1,001,2023-04-06_23h21.49.385,game,2022.2.5,60.03424353226601,
,,,,,,,,,,,,,,,,,,,,,,,,23.777727100000448,23.777727100000448,23.777727100000448,23.777727100000448,space,8.311863999999332,,,,,,,,,,,,,,,,,,,,,,,,,,,,,,,,,,,,,,,,,,,,,,,,,,,,,,,,,,1,001,2023-04-06_23h21.49.385,game,2022.2.5,60.03424353226601,
,,,,,,,,,,,,,,,,,,,,,,,,,,,,,,32.12093559999994,32.12093559999994,b,2.082439599999816,,,,,,,,,,,,,,,,,,,,,,,,,,,,,,,,,,,,,,,,,,,,,,,,,,,,,,1,001,2023-04-06_23h21.49.385,game,2022.2.5,60.03424353226601,
,,,,,,,,,,,,,,,,,,,,,,,,,,,,,,,,,,34.22181809999984,34.22181809999984,b,2.0698916999990615,,,,,,,,,,,,,,,,,,,,,,,,,,,,,,,,,,,,,,,,,,,,,,,,,,1,001,2023-04-06_23h21.49.385,game,2022.2.5,60.03424353226601,
,,,,,,,,,,,,,,,,,,,,,,,,,,,,,,,,,,,,,,36.32105630000024,36.32105630000024,b,2.282444800000121,,,,,,,,,,,,,,,,,,,,,,,,,,,,,,,,,,,,,,,,,,,,,,1,001,2023-04-06_23h21.49.385,game,2022.2.5,60.03424353226601,
,,,,,,,,,,,,,,,,,,,,,,,,,,,,,,,,,,,,,,,,,,38.62139269999989,38.62139269999989,space,1.7436631999989913,,,,,,,,,,,,,,,,,,,,,,,,,,,,,,,,,,,,,,,,,,1,001,2023-04-06_23h21.49.385,game,2022.2.5,60.03424353226601,
0,0,0,0,,,,,,,,,,,,,,,,,,,,,,,,,,,,,,,,,,,,,,,,,,,40.38806040000054,40.38806040000054,q,1.1481599999997343,41.60301570000047,41.60301570000047,,,,,,,,,,,,,,,,,,,,,,,,,,,,,,,,,,,,1,001,2023-04-06_23h21.49.385,game,2022.2.5,60.03424353226601,
1,0,1,0,,,,,,,,,,,,,,,,,,,,,,,,,,,,,,,,,,,,,,,,,,,41.97143150000011,41.97143150000011,w,0.839982699999382,42.83823029999985,42.83823029999985,43.237696099999994,43.237696099999994,,,,,,,,,,,,,,,,,,,,,,,,,,,,,,,,,,1,001,2023-04-06_23h21.49.385,game,2022.2.5,60.03424353226601,
2,0,2,0,,,,,,,,,,,,,,,,,,,,,,,,,,,,,,,,,,,,,,,,,,,43.237696099999994,43.237696099999994,o,1.0565433000001576,44.32139900000038,44.32139900000038,44.721247700000276,44.721247700000276,,,,,,,,,,,,,,,,,,,,,,,,,,,,,,,,,,1,001,2023-04-06_23h21.49.385,game,2022.2.5,60.03424353226601,
3,0,3,0,,,,,,,,,,,,,,,,,,,,,,,,,,,,,,,,,,,,,,,,,,,44.721247700000276,44.721247700000276,p,0.8378529999999955,45.5880674,45.5880674,45.987972900000386,45.987972900000386,,,,,,,,,,,,,,,,,,,,,,,,,,,,,,,,,,1,001,2023-04-06_23h21.49.385,game,2022.2.5,60.03424353226601,
4,0,4,0,,,,,,,,,,,,,,,,,,,,,,,,,,,,,,,,,,,,,,,,,,,45.987972900000386,45.987972900000386,o,0.5976960999996663,46.604705800000374,46.604705800000374,47.00764849999996,47.00764849999996,,,,,,,,,,,,,,,,,,,,,,,,,,,,,,,,,,1,001,2023-04-06_23h21.49.385,game,2022.2.5,60.03424353226601,
,,,,,,,,,,,,,,,,,,,,,,,,,,,,,,,,,,,,,,,,,,,,,,,,,,,,,,47.00764849999996,47.00764849999996,space,2.163334500000019,,,,,,,,,,,,,,,,,,,,,,,,,,,,,,1,001,2023-04-06_23h21.49.385,game,2022.2.5,60.03424353226601,
,,,,,,,,,,,,,,,,,,,,,,,,,,,,,,,,,,,,,,,,,,,,,,,,,,,,,,,,,,49.18837690000055,49.18837690000055,space,2.158903399999872,,,,,,,,,,,,,,,,,,,,,,,,,,1,001,2023-04-06_23h21.49.385,game,2022.2.5,60.03424353226601,
,,,,0,0,0,0,,,,,,,,,,,,,,,,,,,,,,,,,,,,,,,,,,,,,,,,,,,,,,,,,,,,,,,51.3714645,51.3714645,q,0.3364592999996603,51.777471200000036,51.777471200000036,,,,,,,,,,,,,,,,,,,,1,001,2023-04-06_23h21.49.385,game,2022.2.5,60.03424353226601,
,,,,1,0,1,0,,,,,,,,,,,,,,,,,,,,,,,,,,,,,,,,,,,,,,,,,,,,,,,,,,,,,,,52.15474480000012,52.15474480000012,w,0.32043849999990925,52.53120260000014,52.53120260000014,,,,,,,,,,,,,,,,,,,,1,001,2023-04-06_23h21.49.385,game,2022.2.5,60.03424353226601,
,,,,2,0,2,0,,,,,,,,,,,,,,,,,,,,,,,,,,,,,,,,,,,,,,,,,,,,,,,,,,,,,,,52.921575600000324,52.921575600000324,o,0.31373789999997825,53.291646100000435,53.291646100000435,,,,,,,,,,,,,,,,,,,,1,001,2023-04-06_23h21.49.385,game,2022.2.5,60.03424353226601,
,,,,3,0,3,0,,,,,,,,,,,,,,,,,,,,,,,,,,,,,,,,,,,,,,,,,,,,,,,,,,,,,,,53.67140749999999,53.67140749999999,w,0.3332040999994206,54.04703140000038,54.04703140000038,,,,,,,,,,,,,,,,,,,,1,001,2023-04-06_23h21.49.385,game,2022.2.5,60.03424353226601,
,,,,4,0,4,0,,,,,,,,,,,,,,,,,,,,,,,,,,,,,,,,,,,,,,,,,,,,,,,,,,,,,,,54.438032699999894,54.438032699999894,w,0.2938490999995338,54.79051720000007,54.79051720000007,,,,,,,,,,,,,,,,,,,,1,001,2023-04-06_23h21.49.385,game,2022.2.5,60.03424353226601,
,,,,,,,,,,,,,,,,,,,,,,,,,,,,,,,,,,,,,,,,,,,,,,,,,,,,,,55.17127510000046,55.17127510000046,space,1.690538299999389,,,,,,,,,,,,,,,,,,,,,,,,,,,,,,1,001,2023-04-06_23h21.49.385,game,2022.2.5,60.03424353226601,
,,,,,,,,,,,,,,,,,,,,,,,,,,,,,,,,,,,,,,,,,,,,,,,,,,,,,,,,,,,,,,,,,,,,56.88829960000021,56.88829960000021,space,0.900860200000352,,,,,,,,,,,,,,,,1,001,2023-04-06_23h21.49.385,game,2022.2.5,60.03424353226601,
,,,,,,,,0,0,0,0,0,0,0,0,,,,,,,,,,,,,,,,,,,,,,,,,,,,,,,59.37146440000015,59.37146440000015,q,0.4476059999997233,59.83810750000066,59.83810750000066,60.23788169999989,60.23788169999989,,,,,,,,,,,,,,,,,,,57.82164569999986,57.82164569999986,space,1.5289530999989438,,,,,,,,,,,,1,001,2023-04-06_23h21.49.385,game,2022.2.5,60.03424353226601,
,,,,,,,,0,0,0,0,1,0,1,0,,,,,,,,,,,,,,,,,,,,,,,,,,,,,,,60.23788169999989,60.23788169999989,w,0.5799956000000748,60.8387386000004,60.8387386000004,61.23802390000037,61.23802390000037,,,,,,,,,,,,,,,,,,,,,,,,,,,,,,,,,,1,001,2023-04-06_23h21.49.385,game,2022.2.5,60.03424353226601,
,,,,,,,,0,0,0,0,2,0,2,0,,,,,,,,,,,,,,,,,,,,,,,,,,,,,,,61.23802390000037,61.23802390000037,o,0.6661878000004435,61.92178010000043,61.92178010000043,62.321393700000044,62.321393700000044,,,,,,,,,,,,,,,,,,,,,,,,,,,,,,,,,,1,001,2023-04-06_23h21.49.385,game,2022.2.5,60.03424353226601,
,,,,,,,,0,0,0,0,3,0,3,0,,,,,,,,,,,,,,,,,,,,,,,,,,,,,,,62.321393700000044,62.321393700000044,p,0.3095404999994571,62.65511670000069,62.65511670000069,63.05459710000014,63.05459710000014,,,,,,,,,,,,,,,,,,,,,,,,,,,,,,,,,,1,001,2023-04-06_23h21.49.385,game,2022.2.5,60.03424353226601,
,,,,,,,,0,0,0,0,4,0,4,0,,,,,,,,,,,,,,,,,,,,,,,,,,,,,,,63.05459710000014,63.05459710000014,w,0.20442000000002736,63.288559200000236,63.288559200000236,63.68850670000029,63.68850670000029,,,,,,,,,,,,,,,,,,,,,,,,,,,,,,,,,,1,001,2023-04-06_23h21.49.385,game,2022.2.5,60.03424353226601,
,,,,,,,,0,0,0,0,5,0,5,0,,,,,,,,,,,,,,,,,,,,,,,,,,,,,,,63.68850670000029,63.68850670000029,o,0.208736399999907,63.92153090000011,63.92153090000011,64.32148830000006,64.32148830000006,,,,,,,,,,,,,,,,,,,,,,,,,,,,,,,,,,1,001,2023-04-06_23h21.49.385,game,2022.2.5,60.03424353226601,
,,,,,,,,0,0,0,0,6,0,6,0,,,,,,,,,,,,,,,,,,,,,,,,,,,,,,,64.32148830000006,64.32148830000006,o,0.34431749999930616,64.6883441,64.6883441,65.08820500000002,65.08820500000002,,,,,,,,,,,,,,,,,,,,,,,,,,,,,,,,,,1,001,2023-04-06_23h21.49.385,game,2022.2.5,60.03424353226601,
,,,,,,,,0,0,0,0,7,0,7,0,,,,,,,,,,,,,,,,,,,,,,,,,,,,,,,65.08820500000002,65.08820500000002,q,0.3062927999990279,65.42170630000055,65.42170630000055,65.82134210000004,65.82134210000004,,,,,,,,,,,,,,,,,,,,,,,,,,,,,,,,,,1,001,2023-04-06_23h21.49.385,game,2022.2.5,60.03424353226601,
,,,,,,,,0,0,0,0,8,0,8,0,,,,,,,,,,,,,,,,,,,,,,,,,,,,,,,65.82134210000004,65.82134210000004,q,0.34208879999914643,66.19045080000069,66.19045080000069,,,,,,,,,,,,,,,,,,,,,,,,,,,,,,,,,,,,1,001,2023-04-06_23h21.49.385,game,2022.2.5,60.03424353226601,
,,,,,,,,0,0,0,0,9,0,9,0,,,,,,,,,,,,,,,,,,,,,,,,,,,,,,,66.60492049999993,66.60492049999993,o,0.17276469999978872,66.80488659999992,66.80488659999992,67.20465140000033,67.20465140000033,,,,,,,,,,,,,,,,,,,,,,,,,,,,,,,,,,1,001,2023-04-06_23h21.49.385,game,2022.2.5,60.03424353226601,
,,,,,,,,0,0,0,0,10,0,10,0,,,,,,,,,,,,,,,,,,,,,,,,,,,,,,,67.20465140000033,67.20465140000033,o,0.4021184999992329,67.63821199999984,67.63821199999984,68.03811610000048,68.03811610000048,,,,,,,,,,,,,,,,,,,,,,,,,,,,,,,,,,1,001,2023-04-06_23h21.49.385,game,2022.2.5,60.03424353226601,
,,,,,,,,0,0,0,0,11,0,11,0,,,,,,,,,,,,,,,,,,,,,,,,,,,,,,,68.03811610000048,68.03811610000048,w,0.4075122999993255,68.4716711000001,68.4716711000001,68.87167640000007,68.87167640000007,,,,,,,,,,,,,,,,,,,,,,,,,,,,,,,,,,1,001,2023-04-06_23h21.49.385,game,2022.2.5,60.03424353226601,
,,,,,,,,0,0,0,0,12,0,12,0,,,,,,,,,,,,,,,,,,,,,,,,,,,,,,,68.87167640000007,68.87167640000007,o,0.4031001000003016,69.3051002000002,69.3051002000002,69.70481999999993,69.70481999999993,,,,,,,,,,,,,,,,,,,,,,,,,,,,,,,,,,1,001,2023-04-06_23h21.49.385,game,2022.2.5,60.03424353226601,
,,,,,,,,0,0,0,0,13,0,13,0,,,,,,,,,,,,,,,,,,,,,,,,,,,,,,,69.70481999999993,69.70481999999993,p,0.3816681999996945,70.1051449000006,70.1051449000006,70.50473049999982,70.50473049999982,,,,,,,,,,,,,,,,,,,,,,,,,,,,,,,,,,1,001,2023-04-06_23h21.49.385,game,2022.2.5,60.03424353226601,
,,,,,,,,0,0,0,0,14,0,14,0,,,,,,,,,,,,,,,,,,,,,,,,,,,,,,,70.50473049999982,70.50473049999982,p,0.3993425999997271,70.92151819999981,70.92151819999981,71.32146860000012,71.32146860000012,,,,,,,,,,,,,,,,,,,,,,,,,,,,,,,,,,1,001,2023-04-06_23h21.49.385,game,2022.2.5,60.03424353226601,
,,,,,,,,0,0,0,0,15,0,15,0,,,,,,,,,,,,,,,,,,,,,,,,,,,,,,,71.32146860000012,71.32146860000012,q,0.4291571000003387,71.7716774999999,71.7716774999999,72.17151430000013,72.17151430000013,,,,,,,,,,,,,,,,,,,,,,,,,,,,,,,,,,1,001,2023-04-06_23h21.49.385,game,2022.2.5,60.03424353226601,
,,,,,,,,0,0,0,0,16,0,16,0,,,,,,,,,,,,,,,,,,,,,,,,,,,,,,,72.17151430000013,72.17151430000013,w,0.18072729999948933,72.3717787000005,72.3717787000005,72.77155720000064,72.77155720000064,,,,,,,,,,,,,,,,,,,,,,,,,,,,,,,,,,1,001,2023-04-06_23h21.49.385,game,2022.2.5,60.03424353226601,
,,,,,,,,0,0,0,0,17,0,17,0,,,,,,,,,,,,,,,,,,,,,,,,,,,,,,,72.77155720000064,72.77155720000064,o,0.4334942999994382,73.22161800000049,73.22161800000049,73.62154180000016,73.62154180000016,,,,,,,,,,,,,,,,,,,,,,,,,,,,,,,,,,1,001,2023-04-06_23h21.49.385,game,2022.2.5,60.03424353226601,
,,,,,,,,0,0,0,0,18,0,18,0,,,,,,,,,,,,,,,,,,,,,,,,,,,,,,,73.62154180000016,73.62154180000016,p,0.22110389999943436,73.87185769999996,73.87185769999996,74.2717246000002,74.2717246000002,,,,,,,,,,,,,,,,,,,,,,,,,,,,,,,,,,1,001,2023-04-06_23h21.49.385,game,2022.2.5,60.03424353226601,
,,,,,,,,0,0,0,0,19,0,19,0,,,,,,,,,,,,,,,,,,,,,,,,,,,,,,,74.2717246000002,74.2717246000002,p,0.43091939999976603,74.72182160000011,74.72182160000011,75.12848850000046,75.12848850000046,,,,,,,,,,,,,,,,,,,,,,,,,,,,,,,,,,1,001,2023-04-06_23h21.49.385,game,2022.2.5,60.03424353226601,
,,,,,,,,0,0,0,0,,,,,0,0,0,0,,,,,,,,,,,,,,,,,,,,,,,,,,,,,,,,,,,75.12848850000046,75.12848850000046,space,1.4712392999999793,,,,,78.8886749000003,78.8886749000003,None,,79.30439540000043,79.30439540000043,,,,,,,,,76.62161030000061,76.62161030000061,space,2.2410649000003104,79.30439540000043,79.30439540000043,,,,,,1,001,2023-04-06_23h21.49.385,game,2022.2.5,60.03424353226601,
,,,,,,,,0,0,0,0,,,,,1,0,1,0,,,,,,,,,,,,,,,,,,,,,,,,,,,,,,,,,,,,,,,,,,,79.70472419999987,79.70472419999987,q,0.26110960000005434,80.02273030000015,80.02273030000015,,,,,,,,,,,,,,,,,,,,1,001,2023-04-06_23h21.49.385,game,2022.2.5,60.03424353226601,
,,,,,,,,0,0,0,0,,,,,2,0,2,0,,,,,,,,,,,,,,,,,,,,,,,,,,,,,,,,,,,,,,,,,,,80.40475670000069,80.40475670000069,w,0.23784100000011676,80.6903441000004,80.6903441000004,,,,,,,,,,,,,,,,,,,,1,001,2023-04-06_23h21.49.385,game,2022.2.5,60.03424353226601,
,,,,,,,,0,0,0,0,,,,,3,0,3,0,,,,,,,,,,,,,,,,,,,,,,,,,,,,,,,,,,,,,,,,,,,81.08814059999986,81.08814059999986,o,0.2741054999996777,81.41968150000048,81.41968150000048,,,,,,,,,,,,,,,,,,,,1,001,2023-04-06_23h21.49.385,game,2022.2.5,60.03424353226601,
,,,,,,,,0,0,0,0,,,,,4,0,4,0,,,,,,,,,,,,,,,,,,,,,,,,,,,,,,,,,,,,,,,,,,,81.80485210000006,81.80485210000006,p,0.2768960999992487,82.14581350000026,82.14581350000026,,,,,,,,,,,,,,,,,,,,1,001,2023-04-06_23h21.49.385,game,2022.2.5,60.03424353226601,
,,,,,,,,0,0,0,0,,,,,5,0,5,0,,,,,,,,,,,,,,,,,,,,,,,,,,,,,,,,,,,,,,,,,,,82.52166040000066,82.52166040000066,w,0.12126910000006319,82.7013993999999,82.7013993999999,,,,,,,,,,,,,,,,,,,,1,001,2023-04-06_23h21.49.385,game,2022.2.5,60.03424353226601,
,,,,,,,,0,0,0,0,,,,,6,0,6,0,,,,,,,,,,,,,,,,,,,,,,,,,,,,,,,,,,,,,,,,,,,83.08809470000051,83.08809470000051,w,0.19685389999904146,83.3317318999998,83.3317318999998,,,,,,,,,,,,,,,,,,,,1,001,2023-04-06_23h21.49.385,game,2022.2.5,60.03424353226601,
,,,,,,,,0,0,0,0,,,,,7,0,7,0,,,,,,,,,,,,,,,,,,,,,,,,,,,,,,,,,,,,,,,,,,,83.72156809999979,83.72156809999979,w,0.1588835000002291,83.94038749999982,83.94038749999982,,,,,,,,,,,,,,,,,,,,1,001,2023-04-06_23h21.49.385,game,2022.2.5,60.03424353226601,
,,,,,,,,0,0,0,0,,,,,8,0,8,0,,,,,,,,,,,,,,,,,,,,,,,,,,,,,,,,,,,,,,,,,,,84.32144599999992,84.32144599999992,w,0.20981970000048022,84.5908599000004,84.5908599000004,,,,,,,,,,,,,,,,,,,,1,001,2023-04-06_23h21.49.385,game,2022.2.5,60.03424353226601,
,,,,,,,,0,0,0,0,,,,,9,0,9,0,,,,,,,,,,,,,,,,,,,,,,,,,,,,,,,,,,,,,,,,,,,84.97150820000024,84.97150820000024,w,0.1694333999994342,85.19916950000061,85.19916950000061,,,,,,,,,,,,,,,,,,,,1,001,2023-04-06_23h21.49.385,game,2022.2.5,60.03424353226601,
,,,,,,,,0,0,0,0,,,,,10,0,10,0,,,,,,,,,,,,,,,,,,,,,,,,,,,,,,,,,,,,,,,,,,,85.58818060000067,85.58818060000067,w,0.17436279999947146,85.81095880000066,85.81095880000066,,,,,,,,,,,,,,,,,,,,1,001,2023-04-06_23h21.49.385,game,2022.2.5,60.03424353226601,
,,,,,,,,0,0,0,0,,,,,11,0,11,0,,,,,,,,,,,,,,,,,,,,,,,,,,,,,,,,,,,,,,,,,,,86.20513320000009,86.20513320000009,w,0.21371689999978116,86.4601462999999,86.4601462999999,,,,,,,,,,,,,,,,,,,,1,001,2023-04-06_23h21.49.385,game,2022.2.5,60.03424353226601,
,,,,,,,,0,0,0,0,,,,,12,0,12,0,,,,,,,,,,,,,,,,,,,,,,,,,,,,,,,,,,,,,,,,,,,86.85493240000051,86.85493240000051,w,0.09646859999975277,87.00336980000066,87.00336980000066,,,,,,,,,,,,,,,,,,,,1,001,2023-04-06_23h21.49.385,game,2022.2.5,60.03424353226601,
,,,,,,,,0,0,0,0,,,,,13,0,13,0,,,,,,,,,,,,,,,,,,,,,,,,,,,,,,,,,,,,,,,,,,,87.38834829999996,87.38834829999996,w,0.10169000000041706,87.53715079999984,87.53715079999984,,,,,,,,,,,,,,,,,,,,1,001,2023-04-06_23h21.49.385,game,2022.2.5,60.03424353226601,
,,,,,,,,0,0,0,0,,,,,14,0,14,0,,,,,,,,,,,,,,,,,,,,,,,,,,,,,,,,,,,,,,,,,,,87.93827210000018,87.93827210000018,w,0.15745789999982662,88.14764710000054,88.14764710000054,,,,,,,,,,,,,,,,,,,,1,001,2023-04-06_23h21.49.385,game,2022.2.5,60.03424353226601,
,,,,,,,,0,0,0,0,,,,,15,0,15,0,,,,,,,,,,,,,,,,,,,,,,,,,,,,,,,,,,,,,,,,,,,88.53849870000067,88.53849870000067,w,0.03664889999981824,88.63594970000031,88.63594970000031,,,,,,,,,,,,,,,,,,,,1,001,2023-04-06_23h21.49.385,game,2022.2.5,60.03424353226601,
,,,,,,,,0,0,0,0,,,,,16,0,16,0,,,,,,,,,,,,,,,,,,,,,,,,,,,,,,,,,,,,,,,,,,,89.02164410000023,89.02164410000023,w,0.13487069999973755,89.21423570000024,89.21423570000024,,,,,,,,,,,,,,,,,,,,1,001,2023-04-06_23h21.49.385,game,2022.2.5,60.03424353226601,
,,,,,,,,0,0,0,0,,,,,17,0,17,0,,,,,,,,,,,,,,,,,,,,,,,,,,,,,,,,,,,,,,,,,,,89.60494090000066,89.60494090000066,w,0.013797199999316945,89.67209730000013,89.67209730000013,,,,,,,,,,,,,,,,,,,,1,001,2023-04-06_23h21.49.385,game,2022.2.5,60.03424353226601,
,,,,,,,,0,0,0,0,,,,,18,0,18,0,,,,,,,,,,,,,,,,,,,,,,,,,,,,,,,,,,,,,,,,,,,90.05494480000016,90.05494480000016,w,0.09695920000012848,90.19371510000019,90.19371510000019,,,,,,,,,,,,,,,,,,,,1,001,2023-04-06_23h21.49.385,game,2022.2.5,60.03424353226601,
,,,,,,,,0,0,0,0,,,,,19,0,19,0,,,,,,,,,,,,,,,,,,,,,,,,,,,,,,,,,,,,,,,,,,,90.58831069999997,90.58831069999997,w,0.03697569999985717,90.68680610000047,90.68680610000047,,,,,,,,,,,,,,,,,,,,1,001,2023-04-06_23h21.49.385,game,2022.2.5,60.03424353226601,
,,,,,,,,0,0,0,0,,,,,,,,,,,,,,,,,,,,,,,,,,,,,,,,,,,,,,,,,,,91.07242120000046,91.07242120000046,space,0.779627499999151,,,,,,,,,,,,,,,,,,,,,,,,,,,,,,1,001,2023-04-06_23h21.49.385,game,2022.2.5,60.03424353226601,
,,,,,,,,1,0,1,0,0,0,0,0,,,,,,,,,,,,,,,,,,,,,,,,,,,,,,,93.72163920000003,93.72163920000003,q,0.4788386999998693,94.22203150000041,94.22203150000041,94.62151040000026,94.62151040000026,,,,,,,,,,,,,,,,,,,91.87216410000019,91.87216410000019,space,1.8222592000001896,,,,,,,,,,,,1,001,2023-04-06_23h21.49.385,game,2022.2.5,60.03424353226601,
,,,,,,,,1,0,1,0,1,0,1,0,,,,,,,,,,,,,,,,,,,,,,,,,,,,,,,94.62151040000026,94.62151040000026,w,0.7501983999991353,95.38875950000056,95.38875950000056,95.7884555999999,95.7884555999999,,,,,,,,,,,,,,,,,,,,,,,,,,,,,,,,,,1,001,2023-04-06_23h21.49.385,game,2022.2.5,60.03424353226601,
,,,,,,,,1,0,1,0,2,0,2,0,,,,,,,,,,,,,,,,,,,,,,,,,,,,,,,95.7884555999999,95.7884555999999,o,0.735180699999546,96.55550290000065,96.55550290000065,96.95506810000006,96.95506810000006,,,,,,,,,,,,,,,,,,,,,,,,,,,,,,,,,,1,001,2023-04-06_23h21.49.385,game,2022.2.5,60.03424353226601,
,,,,,,,,1,0,1,0,3,0,3,0,,,,,,,,,,,,,,,,,,,,,,,,,,,,,,,96.95506810000006,96.95506810000006,o,0.5368422999999893,97.52204540000002,97.52204540000002,97.92174680000062,97.92174680000062,,,,,,,,,,,,,,,,,,,,,,,,,,,,,,,,,,1,001,2023-04-06_23h21.49.385,game,2022.2.5,60.03424353226601,
,,,,,,,,1,0,1,0,4,0,4,0,,,,,,,,,,,,,,,,,,,,,,,,,,,,,,,97.92174680000062,97.92174680000062,o,1.0431343000000197,98.98841799999991,98.98841799999991,99.38846110000031,99.38846110000031,,,,,,,,,,,,,,,,,,,,,,,,,,,,,,,,,,1,001,2023-04-06_23h21.49.385,game,2022.2.5,60.03424353226601,
,,,,,,,,1,0,1,0,5,0,5,0,,,,,,,,,,,,,,,,,,,,,,,,,,,,,,,99.38846110000031,99.38846110000031,o,0.529660999999578,99.9384743999999,99.9384743999999,100.33831830000054,100.33831830000054,,,,,,,,,,,,,,,,,,,,,,,,,,,,,,,,,,1,001,2023-04-06_23h21.49.385,game,2022.2.5,60.03424353226601,
,,,,,,,,1,0,1,0,6,0,6,0,,,,,,,,,,,,,,,,,,,,,,,,,,,,,,,100.33831830000054,100.33831830000054,p,0.26048899999932473,100.6219928999999,100.6219928999999,101.0217088999998,101.0217088999998,,,,,,,,,,,,,,,,,,,,,,,,,,,,,,,,,,1,001,2023-04-06_23h21.49.385,game,2022.2.5,60.03424353226601,
,,,,,,,,1,0,1,0,7,0,7,0,,,,,,,,,,,,,,,,,,,,,,,,,,,,,,,101.0217088999998,101.0217088999998,w,0.5825902999995378,101.62206530000003,101.62206530000003,102.02167720000034,102.02167720000034,,,,,,,,,,,,,,,,,,,,,,,,,,,,,,,,,,1,001,2023-04-06_23h21.49.385,game,2022.2.5,60.03424353226601,
,,,,,,,,1,0,1,0,8,0,8,0,,,,,,,,,,,,,,,,,,,,,,,,,,,,,,,102.02167720000034,102.02167720000034,o,0.2449442999995881,102.29024329999993,102.29024329999993,,,,,,,,,,,,,,,,,,,,,,,,,,,,,,,,,,,,1,001,2023-04-06_23h21.49.385,game,2022.2.5,60.03424353226601,
,,,,,,,,1,0,1,0,9,0,9,0,,,,,,,,,,,,,,,,,,,,,,,,,,,,,,,102.7052435000005,102.7052435000005,q,0.24948369999947317,102.97179980000055,102.97179980000055,103.37159400000019,103.37159400000019,,,,,,,,,,,,,,,,,,,,,,,,,,,,,,,,,,1,001,2023-04-06_23h21.49.385,game,2022.2.5,60.03424353226601,
,,,,,,,,1,0,1,0,10,0,10,0,,,,,,,,,,,,,,,,,,,,,,,,,,,,,,,103.37159400000019,103.37159400000019,q,0.4699712999999974,103.87203940000018,103.87203940000018,104.27196090000052,104.27196090000052,,,,,,,,,,,,,,,,,,,,,,,,,,,,,,,,,,1,001,2023-04-06_23h21.49.385,game,2022.2.5,60.03424353226601,
,,,,,,,,1,0,1,0,11,0,11,0,,,,,,,,,,,,,,,,,,,,,,,,,,,,,,,104.27196090000052,104.27196090000052,o,0.21249579999948764,104.50561900000048,104.50561900000048,104.90505209999992,104.90505209999992,,,,,,,,,,,,,,,,,,,,,,,,,,,,,,,,,,1,001,2023-04-06_23h21.49.385,game,2022.2.5,60.03424353226601,
,,,,,,,,1,0,1,0,12,0,12,0,,,,,,,,,,,,,,,,,,,,,,,,,,,,,,,104.90505209999992,104.90505209999992,o,0.3078836999993655,105.23848140000064,105.23848140000064,105.63844810000046,105.63844810000046,,,,,,,,,,,,,,,,,,,,,,,,,,,,,,,,,,1,001,2023-04-06_23h21.49.385,game,2022.2.5,60.03424353226601,
,,,,,,,,1,0,1,0,13,0,13,0,,,,,,,,,,,,,,,,,,,,,,,,,,,,,,,105.63844810000046,105.63844810000046,o,0.5258278000001155,106.18890360000023,106.18890360000023,106.58843520000028,106.58843520000028,,,,,,,,,,,,,,,,,,,,,,,,,,,,,,,,,,1,001,2023-04-06_23h21.49.385,game,2022.2.5,60.03424353226601,
,,,,,,,,1,0,1,0,14,0,14,0,,,,,,,,,,,,,,,,,,,,,,,,,,,,,,,106.58843520000028,106.58843520000028,q,0.29168099999969854,106.9051344999998,106.9051344999998,107.30522980000023,107.30522980000023,,,,,,,,,,,,,,,,,,,,,,,,,,,,,,,,,,1,001,2023-04-06_23h21.49.385,game,2022.2.5,60.03424353226601,
,,,,,,,,1,0,1,0,15,0,15,0,,,,,,,,,,,,,,,,,,,,,,,,,,,,,,,107.30522980000023,107.30522980000023,o,0.29019679999964865,107.62192850000065,107.62192850000065,108.02181670000027,108.02181670000027,,,,,,,,,,,,,,,,,,,,,,,,,,,,,,,,,,1,001,2023-04-06_23h21.49.385,game,2022.2.5,60.03424353226601,
,,,,,,,,1,0,1,0,16,0,16,0,,,,,,,,,,,,,,,,,,,,,,,,,,,,,,,108.02181670000027,108.02181670000027,q,0.3443468999994366,108.38873670000066,108.38873670000066,108.78845890000048,108.78845890000048,,,,,,,,,,,,,,,,,,,,,,,,,,,,,,,,,,1,001,2023-04-06_23h21.49.385,game,2022.2.5,60.03424353226601,
,,,,,,,,1,0,1,0,17,0,17,0,,,,,,,,,,,,,,,,,,,,,,,,,,,,,,,108.78845890000048,108.78845890000048,w,0.10568569999941246,108.92185570000038,108.92185570000038,109.32168880000063,109.32168880000063,,,,,,,,,,,,,,,,,,,,,,,,,,,,,,,,,,1,001,2023-04-06_23h21.49.385,game,2022.2.5,60.03424353226601,
,,,,,,,,1,0,1,0,18,0,18,0,,,,,,,,,,,,,,,,,,,,,,,,,,,,,,,109.32168880000063,109.32168880000063,w,0.43279249999886815,109.77197810000052,109.77197810000052,110.17163660000006,110.17163660000006,,,,,,,,,,,,,,,,,,,,,,,,,,,,,,,,,,1,001,2023-04-06_23h21.49.385,game,2022.2.5,60.03424353226601,
,,,,,,,,1,0,1,0,19,0,19,0,,,,,,,,,,,,,,,,,,,,,,,,,,,,,,,110.17163660000006,110.17163660000006,p,0.4122487999993609,110.60531720000017,110.60531720000017,111.00694089999979,111.00694089999979,,,,,,,,,,,,,,,,,,,,,,,,,,,,,,,,,,1,001,2023-04-06_23h21.49.385,game,2022.2.5,60.03424353226601,
,,,,,,,,1,0,1,0,,,,,0,0,0,0,,,,,,,,,,,,,,,,,,,,,,,,,,,,,,,,,,,111.00694089999979,111.00694089999979,space,2.178831100000025,,,,,114.7219896000006,114.7219896000006,q,0.16537759999937407,114.93789990000005,114.93789990000005,,,,,,,,,113.2056231000006,113.2056231000006,space,1.4909081999994669,,,,,,,,1,001,2023-04-06_23h21.49.385,game,2022.2.5,60.03424353226601,
,,,,,,,,1,0,1,0,,,,,1,0,1,0,,,,,,,,,,,,,,,,,,,,,,,,,,,,,,,,,,,,,,,,,,,115.32215989999986,115.32215989999986,w,0.30340219999925466,115.6809514000006,115.6809514000006,,,,,,,,,,,,,,,,,,,,1,001,2023-04-06_23h21.49.385,game,2022.2.5,60.03424353226601,
,,,,,,,,1,0,1,0,,,,,2,0,2,0,,,,,,,,,,,,,,,,,,,,,,,,,,,,,,,,,,,,,,,,,,,116.07182939999984,116.07182939999984,o,0.22157289999995555,116.35709790000055,116.35709790000055,,,,,,,,,,,,,,,,,,,,1,001,2023-04-06_23h21.49.385,game,2022.2.5,60.03424353226601,
,,,,,,,,1,0,1,0,,,,,3,0,3,0,,,,,,,,,,,,,,,,,,,,,,,,,,,,,,,,,,,,,,,,,,,116.73863160000019,116.73863160000019,p,0.14075899999988906,116.94535600000017,116.94535600000017,,,,,,,,,,,,,,,,,,,,1,001,2023-04-06_23h21.49.385,game,2022.2.5,60.03424353226601,
,,,,,,,,1,0,1,0,,,,,4,0,4,0,,,,,,,,,,,,,,,,,,,,,,,,,,,,,,,,,,,,,,,,,,,117.3216954999998,117.3216954999998,w,0.2165978000002724,117.57246960000066,117.57246960000066,,,,,,,,,,,,,,,,,,,,1,001,2023-04-06_23h21.49.385,game,2022.2.5,60.03424353226601,
,,,,,,,,1,0,1,0,,,,,5,0,5,0,,,,,,,,,,,,,,,,,,,,,,,,,,,,,,,,,,,,,,,,,,,117.97223060000033,117.97223060000033,o,0.08968480000021373,118.11039160000018,118.11039160000018,,,,,,,,,,,,,,,,,,,,1,001,2023-04-06_23h21.49.385,game,2022.2.5,60.03424353226601,
,,,,,,,,1,0,1,0,,,,,6,0,6,0,,,,,,,,,,,,,,,,,,,,,,,,,,,,,,,,,,,,,,,,,,,118.50512290000006,118.50512290000006,p,0.10109519999969052,118.66783040000064,118.66783040000064,,,,,,,,,,,,,,,,,,,,1,001,2023-04-06_23h21.49.385,game,2022.2.5,60.03424353226601,
,,,,,,,,1,0,1,0,,,,,7,0,7,0,,,,,,,,,,,,,,,,,,,,,,,,,,,,,,,,,,,,,,,,,,,119.05502010000055,119.05502010000055,q,0.0716164999994362,119.17883299999994,119.17883299999994,,,,,,,,,,,,,,,,,,,,1,001,2023-04-06_23h21.49.385,game,2022.2.5,60.03424353226601,
,,,,,,,,1,0,1,0,,,,,8,0,8,0,,,,,,,,,,,,,,,,,,,,,,,,,,,,,,,,,,,,,,,,,,,119.57208870000068,119.57208870000068,w,0.08428470000035304,119.71548859999984,119.71548859999984,,,,,,,,,,,,,,,,,,,,1,001,2023-04-06_23h21.49.385,game,2022.2.5,60.03424353226601,
,,,,,,,,1,0,1,0,,,,,9,0,9,0,,,,,,,,,,,,,,,,,,,,,,,,,,,,,,,,,,,,,,,,,,,120.10517119999986,120.10517119999986,o,0.0747204999997848,120.23595160000059,120.23595160000059,,,,,,,,,,,,,,,,,,,,1,001,2023-04-06_23h21.49.385,game,2022.2.5,60.03424353226601,
,,,,,,,,1,0,1,0,,,,,10,0,10,0,,,,,,,,,,,,,,,,,,,,,,,,,,,,,,,,,,,,,,,,,,,120.62207639999997,120.62207639999997,p,0.06837759999962145,120.74567910000042,120.74567910000042,,,,,,,,,,,,,,,,,,,,1,001,2023-04-06_23h21.49.385,game,2022.2.5,60.03424353226601,
,,,,,,,,1,0,1,0,,,,,11,0,11,0,,,,,,,,,,,,,,,,,,,,,,,,,,,,,,,,,,,,,,,,,,,121.13876260000052,121.13876260000052,w,0.0798837000002095,121.27379970000038,121.27379970000038,,,,,,,,,,,,,,,,,,,,1,001,2023-04-06_23h21.49.385,game,2022.2.5,60.03424353226601,
,,,,,,,,1,0,1,0,,,,,12,0,12,0,,,,,,,,,,,,,,,,,,,,,,,,,,,,,,,,,,,,,,,,,,,121.6551298000004,121.6551298000004,w,0.08508459999939078,121.79029069999979,121.79029069999979,,,,,,,,,,,,,,,,,,,,1,001,2023-04-06_23h21.49.385,game,2022.2.5,60.03424353226601,
,,,,,,,,1,0,1,0,,,,,13,0,13,0,,,,,,,,,,,,,,,,,,,,,,,,,,,,,,,,,,,,,,,,,,,122.18864889999986,122.18864889999986,w,0.08924039999965316,122.32584510000015,122.32584510000015,,,,,,,,,,,,,,,,,,,,1,001,2023-04-06_23h21.49.385,game,2022.2.5,60.03424353226601,
,,,,,,,,1,0,1,0,,,,,14,0,14,0,,,,,,,,,,,,,,,,,,,,,,,,,,,,,,,,,,,,,,,,,,,122.721904,122.721904,w,0.1345989000001282,122.90480160000061,122.90480160000061,,,,,,,,,,,,,,,,,,,,1,001,2023-04-06_23h21.49.385,game,2022.2.5,60.03424353226601,
,,,,,,,,1,0,1,0,,,,,15,0,15,0,,,,,,,,,,,,,,,,,,,,,,,,,,,,,,,,,,,,,,,,,,,123.30512379999982,123.30512379999982,w,0.036080899999433313,123.40432580000015,123.40432580000015,,,,,,,,,,,,,,,,,,,,1,001,2023-04-06_23h21.49.385,game,2022.2.5,60.03424353226601,
,,,,,,,,1,0,1,0,,,,,16,0,16,0,,,,,,,,,,,,,,,,,,,,,,,,,,,,,,,,,,,,,,,,,,,123.78853030000028,123.78853030000028,w,0.1191263999990042,123.97047389999989,123.97047389999989,,,,,,,,,,,,,,,,,,,,1,001,2023-04-06_23h21.49.385,game,2022.2.5,60.03424353226601,
,,,,,,,,1,0,1,0,,,,,17,0,17,0,,,,,,,,,,,,,,,,,,,,,,,,,,,,,,,,,,,,,,,,,,,124.35516860000007,124.35516860000007,None,,124.7712274000005,124.7712274000005,,,,,,,,,,,,,,,,,,,,1,001,2023-04-06_23h21.49.385,game,2022.2.5,60.03424353226601,
,,,,,,,,1,0,1,0,,,,,18,0,18,0,,,,,,,,,,,,,,,,,,,,,,,,,,,,,,,,,,,,,,,,,,,125.15544709999995,125.15544709999995,w,0.21282959999916784,125.4135852999998,125.4135852999998,,,,,,,,,,,,,,,,,,,,1,001,2023-04-06_23h21.49.385,game,2022.2.5,60.03424353226601,
,,,,,,,,1,0,1,0,,,,,19,0,19,0,,,,,,,,,,,,,,,,,,,,,,,,,,,,,,,,,,,,,,,,,,,125.80551500000001,125.80551500000001,w,0.014974899999288027,125.87758550000035,125.87758550000035,,,,,,,,,,,,,,,,,,,,1,001,2023-04-06_23h21.49.385,game,2022.2.5,60.03424353226601,
,,,,,,,,1,0,1,0,,,,,,,,,,,,,,,,,,,,,,,,,,,,,,,,,,,,,,,,,,,126.25525319999997,126.25525319999997,space,0.9306667999999263,,,,,,,,,,,,,,,,,,,,,,,,,,,,,,1,001,2023-04-06_23h21.49.385,game,2022.2.5,60.03424353226601,
,,,,,,,,2,0,2,0,0,0,0,0,,,,,,,,,,,,,,,,,,,,,,,,,,,,,,,127.76131540000006,127.76131540000006,q,0.534267600000021,128.32505820000006,128.32505820000006,,,,,,,,,,,,,,,,,,,,,127.20547410000017,127.20547410000017,space,0.533367699998962,,,,,,,,,,,,1,001,2023-04-06_23h21.49.385,game,2022.2.5,60.03424353226601,
,,,,,,,,2,0,2,0,1,0,1,0,,,,,,,,,,,,,,,,,,,,,,,,,,,,,,,128.73832540000058,128.73832540000058,w,0.27529259999937494,129.03882740000063,129.03882740000063,129.43845330000022,129.43845330000022,,,,,,,,,,,,,,,,,,,,,,,,,,,,,,,,,,1,001,2023-04-06_23h21.49.385,game,2022.2.5,60.03424353226601,
,,,,,,,,2,0,2,0,2,0,2,0,,,,,,,,,,,,,,,,,,,,,,,,,,,,,,,129.43845330000022,129.43845330000022,o,0.30271459999949,129.7723120999999,129.7723120999999,130.17169600000034,130.17169600000034,,,,,,,,,,,,,,,,,,,,,,,,,,,,,,,,,,1,001,2023-04-06_23h21.49.385,game,2022.2.5,60.03424353226601,
,,,,,,,,2,0,2,0,3,0,3,0,,,,,,,,,,,,,,,,,,,,,,,,,,,,,,,130.17169600000034,130.17169600000034,w,0.35259709999991173,130.5552459999999,130.5552459999999,130.95534690000022,130.95534690000022,,,,,,,,,,,,,,,,,,,,,,,,,,,,,,,,,,1,001,2023-04-06_23h21.49.385,game,2022.2.5,60.03424353226601,
,,,,,,,,2,0,2,0,4,0,4,0,,,,,,,,,,,,,,,,,,,,,,,,,,,,,,,130.95534690000022,130.95534690000022,p,0.22305499999947642,131.20538209999995,131.20538209999995,131.60529680000036,131.60529680000036,,,,,,,,,,,,,,,,,,,,,,,,,,,,,,,,,,1,001,2023-04-06_23h21.49.385,game,2022.2.5,60.03424353226601,
,,,,,,,,2,0,2,0,5,0,5,0,,,,,,,,,,,,,,,,,,,,,,,,,,,,,,,131.60529680000036,131.60529680000036,q,0.46305389999997715,132.08895550000034,132.08895550000034,132.48879560000023,132.48879560000023,,,,,,,,,,,,,,,,,,,,,,,,,,,,,,,,,,1,001,2023-04-06_23h21.49.385,game,2022.2.5,60.03424353226601,
,,,,,,,,2,0,2,0,6,0,6,0,,,,,,,,,,,,,,,,,,,,,,,,,,,,,,,132.48879560000023,132.48879560000023,p,0.1120028999994247,132.62205189999986,132.62205189999986,133.0217534000003,133.0217534000003,,,,,,,,,,,,,,,,,,,,,,,,,,,,,,,,,,1,001,2023-04-06_23h21.49.385,game,2022.2.5,60.03424353226601,
,,,,,,,,2,0,2,0,7,0,7,0,,,,,,,,,,,,,,,,,,,,,,,,,,,,,,,133.0217534000003,133.0217534000003,p,0.24104189999980008,133.28860760000043,133.28860760000043,133.68887900000027,133.68887900000027,,,,,,,,,,,,,,,,,,,,,,,,,,,,,,,,,,1,001,2023-04-06_23h21.49.385,game,2022.2.5,60.03424353226601,
,,,,,,,,2,0,2,0,8,0,8,0,,,,,,,,,,,,,,,,,,,,,,,,,,,,,,,133.68887900000027,133.68887900000027,o,0.20405639999989944,133.92226579999988,133.92226579999988,134.32204720000027,134.32204720000027,,,,,,,,,,,,,,,,,,,,,,,,,,,,,,,,,,1,001,2023-04-06_23h21.49.385,game,2022.2.5,60.03424353226601,
,,,,,,,,2,0,2,0,9,0,9,0,,,,,,,,,,,,,,,,,,,,,,,,,,,,,,,134.32204720000027,134.32204720000027,w,0.1641314999997121,134.5059656000003,134.5059656000003,134.90556030000062,134.90556030000062,,,,,,,,,,,,,,,,,,,,,,,,,,,,,,,,,,1,001,2023-04-06_23h21.49.385,game,2022.2.5,60.03424353226601,
,,,,,,,,2,0,2,0,10,0,10,0,,,,,,,,,,,,,,,,,,,,,,,,,,,,,,,134.90556030000062,134.90556030000062,o,0.10615059999963705,135.03891830000066,135.03891830000066,135.4386073000005,135.4386073000005,,,,,,,,,,,,,,,,,,,,,,,,,,,,,,,,,,1,001,2023-04-06_23h21.49.385,game,2022.2.5,60.03424353226601,
,,,,,,,,2,0,2,0,11,0,11,0,,,,,,,,,,,,,,,,,,,,,,,,,,,,,,,135.4386073000005,135.4386073000005,o,0.22232770000027813,135.68896250000034,135.68896250000034,136.0889532000001,136.0889532000001,,,,,,,,,,,,,,,,,,,,,,,,,,,,,,,,,,1,001,2023-04-06_23h21.49.385,game,2022.2.5,60.03424353226601,
,,,,,,,,2,0,2,0,12,0,12,0,,,,,,,,,,,,,,,,,,,,,,,,,,,,,,,136.0889532000001,136.0889532000001,q,0.31038579999949434,136.4223019000001,136.4223019000001,136.82199649999984,136.82199649999984,,,,,,,,,,,,,,,,,,,,,,,,,,,,,,,,,,1,001,2023-04-06_23h21.49.385,game,2022.2.5,60.03424353226601,
,,,,,,,,2,0,2,0,13,0,13,0,,,,,,,,,,,,,,,,,,,,,,,,,,,,,,,136.82199649999984,136.82199649999984,p,0.3994620000003124,137.24245150000024,137.24245150000024,,,,,,,,,,,,,,,,,,,,,,,,,,,,,,,,,,,,1,001,2023-04-06_23h21.49.385,game,2022.2.5,60.03424353226601,
,,,,,,,,2,0,2,0,14,0,14,0,,,,,,,,,,,,,,,,,,,,,,,,,,,,,,,137.6553211999999,137.6553211999999,q,0.47543579999910435,138.15541519999988,138.15541519999988,138.55534930000067,138.55534930000067,,,,,,,,,,,,,,,,,,,,,,,,,,,,,,,,,,1,001,2023-04-06_23h21.49.385,game,2022.2.5,60.03424353226601,
,,,,,,,,2,0,2,0,15,0,15,0,,,,,,,,,,,,,,,,,,,,,,,,,,,,,,,138.55534930000067,138.55534930000067,w,0.3450442999992447,138.92224309999983,138.92224309999983,139.32209330000023,139.32209330000023,,,,,,,,,,,,,,,,,,,,,,,,,,,,,,,,,,1,001,2023-04-06_23h21.49.385,game,2022.2.5,60.03424353226601,
,,,,,,,,2,0,2,0,16,0,16,0,,,,,,,,,,,,,,,,,,,,,,,,,,,,,,,139.32209330000023,139.32209330000023,w,0.715513899999678,140.0556019000005,140.0556019000005,140.45524690000002,140.45524690000002,,,,,,,,,,,,,,,,,,,,,,,,,,,,,,,,,,1,001,2023-04-06_23h21.49.385,game,2022.2.5,60.03424353226601,
,,,,,,,,2,0,2,0,17,0,17,0,,,,,,,,,,,,,,,,,,,,,,,,,,,,,,,140.45524690000002,140.45524690000002,w,0.404612399999678,140.8888108000001,140.8888108000001,141.28859360000024,141.28859360000024,,,,,,,,,,,,,,,,,,,,,,,,,,,,,,,,,,1,001,2023-04-06_23h21.49.385,game,2022.2.5,60.03424353226601,
,,,,,,,,2,0,2,0,18,0,18,0,,,,,,,,,,,,,,,,,,,,,,,,,,,,,,,141.28859360000024,141.28859360000024,p,0.8069233999995049,142.12228289999985,142.12228289999985,142.52216360000057,142.52216360000057,,,,,,,,,,,,,,,,,,,,,,,,,,,,,,,,,,1,001,2023-04-06_23h21.49.385,game,2022.2.5,60.03424353226601,
,,,,,,,,2,0,2,0,19,0,19,0,,,,,,,,,,,,,,,,,,,,,,,,,,,,,,,142.52216360000057,142.52216360000057,o,0.46505749999960244,143.00550340000063,143.00550340000063,143.40528730000005,143.40528730000005,,,,,,,,,,,,,,,,,,,,,,,,,,,,,,,,,,1,001,2023-04-06_23h21.49.385,game,2022.2.5,60.03424353226601,
,,,,,,,,2,0,2,0,,,,,0,0,0,0,,,,,,,,,,,,,,,,,,,,,,,,,,,,,,,,,,,143.40528730000005,143.40528730000005,space,0.914074499999515,,,,,145.95528079999985,145.95528079999985,q,0.3075876999992033,146.32319850000022,146.32319850000022,,,,,,,,,144.3389855000005,144.3389855000005,space,1.5977248999997755,,,,,,,,1,001,2023-04-06_23h21.49.385,game,2022.2.5,60.03424353226601,
,,,,,,,,2,0,2,0,,,,,1,0,1,0,,,,,,,,,,,,,,,,,,,,,,,,,,,,,,,,,,,,,,,,,,,146.7052719000003,146.7052719000003,w,0.2025595000004614,146.9760449000005,146.9760449000005,,,,,,,,,,,,,,,,,,,,1,001,2023-04-06_23h21.49.385,game,2022.2.5,60.03424353226601,
,,,,,,,,2,0,2,0,,,,,2,0,2,0,,,,,,,,,,,,,,,,,,,,,,,,,,,,,,,,,,,,,,,,,,,147.35561440000038,147.35561440000038,None,,147.7661460999998,147.7661460999998,,,,,,,,,,,,,,,,,,,,1,001,2023-04-06_23h21.49.385,game,2022.2.5,60.03424353226601,
,,,,,,,,2,0,2,0,,,,,3,0,3,0,,,,,,,,,,,,,,,,,,,,,,,,,,,,,,,,,,,,,,,,,,,148.15540409999994,148.15540409999994,None,,148.55606110000008,148.55606110000008,,,,,,,,,,,,,,,,,,,,1,001,2023-04-06_23h21.49.385,game,2022.2.5,60.03424353226601,
,,,,,,,,2,0,2,0,,,,,4,0,4,0,,,,,,,,,,,,,,,,,,,,,,,,,,,,,,,,,,,,,,,,,,,148.95541779999985,148.95541779999985,o,0.01370379999934812,149.0094595999999,149.0094595999999,,,,,,,,,,,,,,,,,,,,1,001,2023-04-06_23h21.49.385,game,2022.2.5,60.03424353226601,
,,,,,,,,2,0,2,0,,,,,5,0,5,0,,,,,,,,,,,,,,,,,,,,,,,,,,,,,,,,,,,,,,,,,,,149.4054900000001,149.4054900000001,q,0.16686469999967812,149.62008310000056,149.62008310000056,,,,,,,,,,,,,,,,,,,,1,001,2023-04-06_23h21.49.385,game,2022.2.5,60.03424353226601,
,,,,,,,,2,0,2,0,,,,,6,0,6,0,,,,,,,,,,,,,,,,,,,,,,,,,,,,,,,,,,,,,,,,,,,150.00564900000063,150.00564900000063,w,0.27504099999987375,150.32885440000064,150.32885440000064,,,,,,,,,,,,,,,,,,,,1,001,2023-04-06_23h21.49.385,game,2022.2.5,60.03424353226601,
,,,,,,,,2,0,2,0,,,,,7,0,7,0,,,,,,,,,,,,,,,,,,,,,,,,,,,,,,,,,,,,,,,,,,,150.7221298000004,150.7221298000004,o,0.2538481999999931,151.0451419000001,151.0451419000001,,,,,,,,,,,,,,,,,,,,1,001,2023-04-06_23h21.49.385,game,2022.2.5,60.03424353226601,
,,,,,,,,2,0,2,0,,,,,8,0,8,0,,,,,,,,,,,,,,,,,,,,,,,,,,,,,,,,,,,,,,,,,,,151.42199210000035,151.42199210000035,p,0.27282589999958873,151.7612293000002,151.7612293000002,,,,,,,,,,,,,,,,,,,,1,001,2023-04-06_23h21.49.385,game,2022.2.5,60.03424353226601,
,,,,,,,,2,0,2,0,,,,,9,0,9,0,,,,,,,,,,,,,,,,,,,,,,,,,,,,,,,,,,,,,,,,,,,152.13876720000007,152.13876720000007,w,0.2692918999991889,152.46649140000045,152.46649140000045,,,,,,,,,,,,,,,,,,,,1,001,2023-04-06_23h21.49.385,game,2022.2.5,60.03424353226601,
,,,,,,,,2,0,2,0,,,,,10,0,10,0,,,,,,,,,,,,,,,,,,,,,,,,,,,,,,,,,,,,,,,,,,,152.8557582000003,152.8557582000003,q,0.1832884000004924,153.08003259999987,153.08003259999987,,,,,,,,,,,,,,,,,,,,1,001,2023-04-06_23h21.49.385,game,2022.2.5,60.03424353226601,
,,,,,,,,2,0,2,0,,,,,11,0,11,0,,,,,,,,,,,,,,,,,,,,,,,,,,,,,,,,,,,,,,,,,,,153.47216190000017,153.47216190000017,w,0.26664509999955044,153.7782044000005,153.7782044000005,,,,,,,,,,,,,,,,,,,,1,001,2023-04-06_23h21.49.385,game,2022.2.5,60.03424353226601,
,,,,,,,,2,0,2,0,,,,,12,0,12,0,,,,,,,,,,,,,,,,,,,,,,,,,,,,,,,,,,,,,,,,,,,154.1719834000005,154.1719834000005,o,0.2842582000002949,154.51575910000065,154.51575910000065,,,,,,,,,,,,,,,,,,,,1,001,2023-04-06_23h21.49.385,game,2022.2.5,60.03424353226601,
,,,,,,,,2,0,2,0,,,,,13,0,13,0,,,,,,,,,,,,,,,,,,,,,,,,,,,,,,,,,,,,,,,,,,,154.90542510000068,154.90542510000068,p,0.16555760000028386,155.11522909999985,155.11522909999985,,,,,,,,,,,,,,,,,,,,1,001,2023-04-06_23h21.49.385,game,2022.2.5,60.03424353226601,
,,,,,,,,2,0,2,0,,,,,14,0,14,0,,,,,,,,,,,,,,,,,,,,,,,,,,,,,,,,,,,,,,,,,,,155.5056341999998,155.5056341999998,w,0.1937431000005745,155.7573820000007,155.7573820000007,,,,,,,,,,,,,,,,,,,,1,001,2023-04-06_23h21.49.385,game,2022.2.5,60.03424353226601,
,,,,,,,,2,0,2,0,,,,,15,0,15,0,,,,,,,,,,,,,,,,,,,,,,,,,,,,,,,,,,,,,,,,,,,156.1388618000001,156.1388618000001,q,0.16934109999965585,156.36821710000004,156.36821710000004,,,,,,,,,,,,,,,,,,,,1,001,2023-04-06_23h21.49.385,game,2022.2.5,60.03424353226601,
,,,,,,,,2,0,2,0,,,,,16,0,16,0,,,,,,,,,,,,,,,,,,,,,,,,,,,,,,,,,,,,,,,,,,,156.7555454000003,156.7555454000003,w,0.14430329999959213,156.95859480000036,156.95859480000036,,,,,,,,,,,,,,,,,,,,1,001,2023-04-06_23h21.49.385,game,2022.2.5,60.03424353226601,
,,,,,,,,2,0,2,0,,,,,17,0,17,0,,,,,,,,,,,,,,,,,,,,,,,,,,,,,,,,,,,,,,,,,,,157.33873250000033,157.33873250000033,w,0.19606869999915943,157.58425480000005,157.58425480000005,,,,,,,,,,,,,,,,,,,,1,001,2023-04-06_23h21.49.385,game,2022.2.5,60.03424353226601,
,,,,,,,,2,0,2,0,,,,,18,0,18,0,,,,,,,,,,,,,,,,,,,,,,,,,,,,,,,,,,,,,,,,,,,157.97214890000032,157.97214890000032,q,0.1642584999990504,158.18429819999983,158.18429819999983,,,,,,,,,,,,,,,,,,,,1,001,2023-04-06_23h21.49.385,game,2022.2.5,60.03424353226601,
,,,,,,,,2,0,2,0,,,,,19,0,19,0,,,,,,,,,,,,,,,,,,,,,,,,,,,,,,,,,,,,,,,,,,,158.57227240000066,158.57227240000066,w,0.16325940000024275,158.78552600000057,158.78552600000057,,,,,,,,,,,,,,,,,,,,1,001,2023-04-06_23h21.49.385,game,2022.2.5,60.03424353226601,
,,,,,,,,2,0,2,0,,,,,,,,,,,,,,,,,,,,,,,,,,,,,,,,,,,,,,,,,,,159.1720752000001,159.1720752000001,space,1.3048282999998264,,,,,,,,,,,,,,,,,,,,,,,,,,,,,,1,001,2023-04-06_23h21.49.385,game,2022.2.5,60.03424353226601,
,,,,,,,,3,0,3,0,0,0,0,0,,,,,,,,,,,,,,,,,,,,,,,,,,,,,,,161.7889724000006,161.7889724000006,q,0.7299771999996665,162.5392081,162.5392081,162.93900050000047,162.93900050000047,,,,,,,,,,,,,,,,,,,160.50569040000028,160.50569040000028,space,1.259280399999625,,,,,,,,,,,,1,001,2023-04-06_23h21.49.385,game,2022.2.5,60.03424353226601,
,,,,,,,,3,0,3,0,1,0,1,0,,,,,,,,,,,,,,,,,,,,,,,,,,,,,,,162.93900050000047,162.93900050000047,w,0.3582424999995055,163.32232810000005,163.32232810000005,163.72218320000047,163.72218320000047,,,,,,,,,,,,,,,,,,,,,,,,,,,,,,,,,,1,001,2023-04-06_23h21.49.385,game,2022.2.5,60.03424353226601,
,,,,,,,,3,0,3,0,2,0,2,0,,,,,,,,,,,,,,,,,,,,,,,,,,,,,,,163.72218320000047,163.72218320000047,o,0.3690599999990809,164.12252119999994,164.12252119999994,164.52243210000051,164.52243210000051,,,,,,,,,,,,,,,,,,,,,,,,,,,,,,,,,,1,001,2023-04-06_23h21.49.385,game,2022.2.5,60.03424353226601,
,,,,,,,,3,0,3,0,3,0,3,0,,,,,,,,,,,,,,,,,,,,,,,,,,,,,,,164.52243210000051,164.52243210000051,p,0.3327577999998539,164.87258490000022,164.87258490000022,165.2721164000004,165.2721164000004,,,,,,,,,,,,,,,,,,,,,,,,,,,,,,,,,,1,001,2023-04-06_23h21.49.385,game,2022.2.5,60.03424353226601,
,,,,,,,,3,0,3,0,4,0,4,0,,,,,,,,,,,,,,,,,,,,,,,,,,,,,,,165.2721164000004,165.2721164000004,w,0.1775482999992164,165.4724627000005,165.4724627000005,165.8721231999998,165.8721231999998,,,,,,,,,,,,,,,,,,,,,,,,,,,,,,,,,,1,001,2023-04-06_23h21.49.385,game,2022.2.5,60.03424353226601,
,,,,,,,,3,0,3,0,5,0,5,0,,,,,,,,,,,,,,,,,,,,,,,,,,,,,,,165.8721231999998,165.8721231999998,w,0.3668088999993415,166.25589920000039,166.25589920000039,166.65573610000047,166.65573610000047,,,,,,,,,,,,,,,,,,,,,,,,,,,,,,,,,,1,001,2023-04-06_23h21.49.385,game,2022.2.5,60.03424353226601,
,,,,,,,,3,0,3,0,6,0,6,0,,,,,,,,,,,,,,,,,,,,,,,,,,,,,,,166.65573610000047,166.65573610000047,w,0.17493389999981446,166.8558711000005,166.8558711000005,167.2556525,167.2556525,,,,,,,,,,,,,,,,,,,,,,,,,,,,,,,,,,1,001,2023-04-06_23h21.49.385,game,2022.2.5,60.03424353226601,
,,,,,,,,3,0,3,0,7,0,7,0,,,,,,,,,,,,,,,,,,,,,,,,,,,,,,,167.2556525,167.2556525,q,0.19389879999926052,167.47254200000043,167.47254200000043,167.87237780000032,167.87237780000032,,,,,,,,,,,,,,,,,,,,,,,,,,,,,,,,,,1,001,2023-04-06_23h21.49.385,game,2022.2.5,60.03424353226601,
,,,,,,,,3,0,3,0,8,0,8,0,,,,,,,,,,,,,,,,,,,,,,,,,,,,,,,167.87237780000032,167.87237780000032,q,0.1508166000003257,168.05581600000005,168.05581600000005,168.45575449999978,168.45575449999978,,,,,,,,,,,,,,,,,,,,,,,,,,,,,,,,,,1,001,2023-04-06_23h21.49.385,game,2022.2.5,60.03424353226601,
,,,,,,,,3,0,3,0,9,0,9,0,,,,,,,,,,,,,,,,,,,,,,,,,,,,,,,168.45575449999978,168.45575449999978,o,0.1211803999995027,168.60584500000004,168.60584500000004,169.00557370000024,169.00557370000024,,,,,,,,,,,,,,,,,,,,,,,,,,,,,,,,,,1,001,2023-04-06_23h21.49.385,game,2022.2.5,60.03424353226601,
,,,,,,,,3,0,3,0,10,0,10,0,,,,,,,,,,,,,,,,,,,,,,,,,,,,,,,169.00557370000024,169.00557370000024,p,0.10246060000008583,169.1393205000004,169.1393205000004,169.53911860000062,169.53911860000062,,,,,,,,,,,,,,,,,,,,,,,,,,,,,,,,,,1,001,2023-04-06_23h21.49.385,game,2022.2.5,60.03424353226601,
,,,,,,,,3,0,3,0,11,0,11,0,,,,,,,,,,,,,,,,,,,,,,,,,,,,,,,169.53911860000062,169.53911860000062,w,0.059914499999649706,169.62271109999983,169.62271109999983,170.0223262999998,170.0223262999998,,,,,,,,,,,,,,,,,,,,,,,,,,,,,,,,,,1,001,2023-04-06_23h21.49.385,game,2022.2.5,60.03424353226601,
,,,,,,,,3,0,3,0,12,0,12,0,,,,,,,,,,,,,,,,,,,,,,,,,,,,,,,170.0223262999998,170.0223262999998,q,0.146697199999835,170.18930770000043,170.18930770000043,170.58872040000006,170.58872040000006,,,,,,,,,,,,,,,,,,,,,,,,,,,,,,,,,,1,001,2023-04-06_23h21.49.385,game,2022.2.5,60.03424353226601,
,,,,,,,,3,0,3,0,13,0,13,0,,,,,,,,,,,,,,,,,,,,,,,,,,,,,,,170.58872040000006,170.58872040000006,o,0.1446786999995311,170.75584530000015,170.75584530000015,171.15559360000043,171.15559360000043,,,,,,,,,,,,,,,,,,,,,,,,,,,,,,,,,,1,001,2023-04-06_23h21.49.385,game,2022.2.5,60.03424353226601,
,,,,,,,,3,0,3,0,14,0,14,0,,,,,,,,,,,,,,,,,,,,,,,,,,,,,,,171.15559360000043,171.15559360000043,p,0.3739382999992813,171.55583790000037,171.55583790000037,171.95579249999992,171.95579249999992,,,,,,,,,,,,,,,,,,,,,,,,,,,,,,,,,,1,001,2023-04-06_23h21.49.385,game,2022.2.5,60.03424353226601,
,,,,,,,,3,0,3,0,15,0,15,0,,,,,,,,,,,,,,,,,,,,,,,,,,,,,,,171.95579249999992,171.95579249999992,w,0.28526940000028844,172.2725932000003,172.2725932000003,172.67238400000042,172.67238400000042,,,,,,,,,,,,,,,,,,,,,,,,,,,,,,,,,,1,001,2023-04-06_23h21.49.385,game,2022.2.5,60.03424353226601,
,,,,,,,,3,0,3,0,16,0,16,0,,,,,,,,,,,,,,,,,,,,,,,,,,,,,,,172.67238400000042,172.67238400000042,q,0.13546409999980824,172.83931389999998,172.83931389999998,173.23892260000048,173.23892260000048,,,,,,,,,,,,,,,,,,,,,,,,,,,,,,,,,,1,001,2023-04-06_23h21.49.385,game,2022.2.5,60.03424353226601,
,,,,,,,,3,0,3,0,17,0,17,0,,,,,,,,,,,,,,,,,,,,,,,,,,,,,,,173.23892260000048,173.23892260000048,o,0.11828399999922112,173.38903000000028,173.38903000000028,173.78909320000002,173.78909320000002,,,,,,,,,,,,,,,,,,,,,,,,,,,,,,,,,,1,001,2023-04-06_23h21.49.385,game,2022.2.5,60.03424353226601,
,,,,,,,,3,0,3,0,18,0,18,0,,,,,,,,,,,,,,,,,,,,,,,,,,,,,,,173.78909320000002,173.78909320000002,p,0.14496519999920565,173.95577820000017,173.95577820000017,174.3556520000002,174.3556520000002,,,,,,,,,,,,,,,,,,,,,,,,,,,,,,,,,,1,001,2023-04-06_23h21.49.385,game,2022.2.5,60.03424353226601,
,,,,,,,,3,0,3,0,19,0,19,0,,,,,,,,,,,,,,,,,,,,,,,,,,,,,,,174.3556520000002,174.3556520000002,w,0.09644579999985581,174.4729524000004,174.4729524000004,174.8746525000006,174.8746525000006,,,,,,,,,,,,,,,,,,,,,,,,,,,,,,,,,,1,001,2023-04-06_23h21.49.385,game,2022.2.5,60.03424353226601,
,,,,,,,,3,0,3,0,,,,,0,0,0,0,,,,,,,,,,,,,,,,,,,,,,,,,,,,,,,,,,,174.8746525000006,174.8746525000006,space,1.0761898999999175,,,,,177.00584250000065,177.00584250000065,q,0.2700273999998899,177.3548781999998,177.3548781999998,,,,,,,,,175.97240539999984,175.97240539999984,space,1.0091420999997354,,,,,,,,1,001,2023-04-06_23h21.49.385,game,2022.2.5,60.03424353226601,
,,,,,,,,3,0,3,0,,,,,1,0,1,0,,,,,,,,,,,,,,,,,,,,,,,,,,,,,,,,,,,,,,,,,,,177.72243780000008,177.72243780000008,w,0.30375609999919106,178.0851061000003,178.0851061000003,,,,,,,,,,,,,,,,,,,,1,001,2023-04-06_23h21.49.385,game,2022.2.5,60.03424353226601,
,,,,,,,,3,0,3,0,,,,,2,0,2,0,,,,,,,,,,,,,,,,,,,,,,,,,,,,,,,,,,,,,,,,,,,178.47213600000032,178.47213600000032,w,0.31308530000023893,178.8356961999998,178.8356961999998,,,,,,,,,,,,,,,,,,,,1,001,2023-04-06_23h21.49.385,game,2022.2.5,60.03424353226601,
,,,,,,,,3,0,3,0,,,,,3,0,3,0,,,,,,,,,,,,,,,,,,,,,,,,,,,,,,,,,,,,,,,,,,,179.22235120000005,179.22235120000005,o,0.28240939999977854,179.55164520000017,179.55164520000017,,,,,,,,,,,,,,,,,,,,1,001,2023-04-06_23h21.49.385,game,2022.2.5,60.03424353226601,
,,,,,,,,3,0,3,0,,,,,4,0,4,0,,,,,,,,,,,,,,,,,,,,,,,,,,,,,,,,,,,,,,,,,,,179.9390811000003,179.9390811000003,p,0.25135520000003453,180.24877240000023,180.24877240000023,,,,,,,,,,,,,,,,,,,,1,001,2023-04-06_23h21.49.385,game,2022.2.5,60.03424353226601,
,,,,,,,,3,0,3,0,,,,,5,0,5,0,,,,,,,,,,,,,,,,,,,,,,,,,,,,,,,,,,,,,,,,,,,180.63899850000053,180.63899850000053,q,0.22024559999954363,180.92420870000024,180.92420870000024,,,,,,,,,,,,,,,,,,,,1,001,2023-04-06_23h21.49.385,game,2022.2.5,60.03424353226601,
,,,,,,,,3,0,3,0,,,,,6,0,6,0,,,,,,,,,,,,,,,,,,,,,,,,,,,,,,,,,,,,,,,,,,,181.3058230000006,181.3058230000006,w,0.21065859999907843,181.57680140000048,181.57680140000048,,,,,,,,,,,,,,,,,,,,1,001,2023-04-06_23h21.49.385,game,2022.2.5,60.03424353226601,
,,,,,,,,3,0,3,0,,,,,7,0,7,0,,,,,,,,,,,,,,,,,,,,,,,,,,,,,,,,,,,,,,,,,,,181.95600150000064,181.95600150000064,o,0.15599859999929322,182.17079720000038,182.17079720000038,,,,,,,,,,,,,,,,,,,,1,001,2023-04-06_23h21.49.385,game,2022.2.5,60.03424353226601,
,,,,,,,,3,0,3,0,,,,,8,0,8,0,,,,,,,,,,,,,,,,,,,,,,,,,,,,,,,,,,,,,,,,,,,182.5558544000005,182.5558544000005,w,0.03205470000011701,182.63190200000008,182.63190200000008,,,,,,,,,,,,,,,,,,,,1,001,2023-04-06_23h21.49.385,game,2022.2.5,60.03424353226601,
,,,,,,,,3,0,3,0,,,,,9,0,9,0,,,,,,,,,,,,,,,,,,,,,,,,,,,,,,,,,,,,,,,,,,,183.0223713000005,183.0223713000005,w,0.24200229999951262,183.3244162000001,183.3244162000001,,,,,,,,,,,,,,,,,,,,1,001,2023-04-06_23h21.49.385,game,2022.2.5,60.03424353226601,
,,,,,,,,3,0,3,0,,,,,10,0,10,0,,,,,,,,,,,,,,,,,,,,,,,,,,,,,,,,,,,,,,,,,,,183.7056674000005,183.7056674000005,w,0.17789660000016738,183.9390983000003,183.9390983000003,,,,,,,,,,,,,,,,,,,,1,001,2023-04-06_23h21.49.385,game,2022.2.5,60.03424353226601,
,,,,,,,,3,0,3,0,,,,,11,0,11,0,,,,,,,,,,,,,,,,,,,,,,,,,,,,,,,,,,,,,,,,,,,184.32228300000043,184.32228300000043,w,0.2038972999998805,184.59104790000038,184.59104790000038,,,,,,,,,,,,,,,,,,,,1,001,2023-04-06_23h21.49.385,game,2022.2.5,60.03424353226601,
,,,,,,,,3,0,3,0,,,,,12,0,12,0,,,,,,,,,,,,,,,,,,,,,,,,,,,,,,,,,,,,,,,,,,,184.9721365000005,184.9721365000005,w,0.15651829999933398,185.17822290000004,185.17822290000004,,,,,,,,,,,,,,,,,,,,1,001,2023-04-06_23h21.49.385,game,2022.2.5,60.03424353226601,
,,,,,,,,3,0,3,0,,,,,13,0,13,0,,,,,,,,,,,,,,,,,,,,,,,,,,,,,,,,,,,,,,,,,,,185.57234479999988,185.57234479999988,w,0.12184390000038547,185.74127580000004,185.74127580000004,,,,,,,,,,,,,,,,,,,,1,001,2023-04-06_23h21.49.385,game,2022.2.5,60.03424353226601,
,,,,,,,,3,0,3,0,,,,,14,0,14,0,,,,,,,,,,,,,,,,,,,,,,,,,,,,,,,,,,,,,,,,,,,186.13905109999996,186.13905109999996,w,0.10034389999964333,186.28834520000055,186.28834520000055,,,,,,,,,,,,,,,,,,,,1,001,2023-04-06_23h21.49.385,game,2022.2.5,60.03424353226601,
,,,,,,,,3,0,3,0,,,,,15,0,15,0,,,,,,,,,,,,,,,,,,,,,,,,,,,,,,,,,,,,,,,,,,,186.68907880000006,186.68907880000006,w,0.035557699999117176,186.78670440000042,186.78670440000042,,,,,,,,,,,,,,,,,,,,1,001,2023-04-06_23h21.49.385,game,2022.2.5,60.03424353226601,
,,,,,,,,3,0,3,0,,,,,16,0,16,0,,,,,,,,,,,,,,,,,,,,,,,,,,,,,,,,,,,,,,,,,,,187.1723649000005,187.1723649000005,w,0.039901999999528925,187.2710662999998,187.2710662999998,,,,,,,,,,,,,,,,,,,,1,001,2023-04-06_23h21.49.385,game,2022.2.5,60.03424353226601,
,,,,,,,,3,0,3,0,,,,,17,0,17,0,,,,,,,,,,,,,,,,,,,,,,,,,,,,,,,,,,,,,,,,,,,187.6555527999999,187.6555527999999,w,0.001779599999281345,187.70777249999992,187.70777249999992,,,,,,,,,,,,,,,,,,,,1,001,2023-04-06_23h21.49.385,game,2022.2.5,60.03424353226601,
,,,,,,,,3,0,3,0,,,,,18,0,18,0,,,,,,,,,,,,,,,,,,,,,,,,,,,,,,,,,,,,,,,,,,,188.10570030000054,188.10570030000054,None,,188.51342320000003,188.51342320000003,,,,,,,,,,,,,,,,,,,,1,001,2023-04-06_23h21.49.385,game,2022.2.5,60.03424353226601,
,,,,,,,,3,0,3,0,,,,,19,0,19,0,,,,,,,,,,,,,,,,,,,,,,,,,,,,,,,,,,,,,,,,,,,188.90589290000025,188.90589290000025,w,0.16577549999965413,189.1274596000003,189.1274596000003,,,,,,,,,,,,,,,,,,,,1,001,2023-04-06_23h21.49.385,game,2022.2.5,60.03424353226601,
,,,,,,,,3,0,3,0,,,,,,,,,,,,,,,,,,,,,,,,,,,,,,,,,,,,,,,,,,,189.50617560000046,189.50617560000046,space,1.0175588999991305,,,,,,,,,,,,,,,,,,,,,,,,,,,,,,1,001,2023-04-06_23h21.49.385,game,2022.2.5,60.03424353226601,
,,,,,,,,4,0,4,0,0,0,0,0,,,,,,,,,,,,,,,,,,,,,,,,,,,,,,,194.55574440000055,194.55574440000055,q,0.6771302999995896,195.25595030000022,195.25595030000022,195.6586145000001,195.6586145000001,,,,,,,,,,,,,,,,,,,190.55588540000008,190.55588540000008,space,3.9821430999991207,,,,,,,,,,,,1,001,2023-04-06_23h21.49.385,game,2022.2.5,60.03424353226601,
,,,,,,,,4,0,4,0,1,0,1,0,,,,,,,,,,,,,,,,,,,,,,,,,,,,,,,195.6586145000001,195.6586145000001,w,0.39994839999963006,196.08929549999993,196.08929549999993,196.48924780000016,196.48924780000016,,,,,,,,,,,,,,,,,,,,,,,,,,,,,,,,,,1,001,2023-04-06_23h21.49.385,game,2022.2.5,60.03424353226601,
,,,,,,,,4,0,4,0,2,0,2,0,,,,,,,,,,,,,,,,,,,,,,,,,,,,,,,196.48924780000016,196.48924780000016,q,0.08853790000011941,196.60620600000038,196.60620600000038,197.00578959999984,197.00578959999984,,,,,,,,,,,,,,,,,,,,,,,,,,,,,,,,,,1,001,2023-04-06_23h21.49.385,game,2022.2.5,60.03424353226601,
,,,,,,,,4,0,4,0,3,0,3,0,,,,,,,,,,,,,,,,,,,,,,,,,,,,,,,197.00578959999984,197.00578959999984,p,0.14862709999943036,197.1728737000003,197.1728737000003,197.5724392000002,197.5724392000002,,,,,,,,,,,,,,,,,,,,,,,,,,,,,,,,,,1,001,2023-04-06_23h21.49.385,game,2022.2.5,60.03424353226601,
,,,,,,,,4,0,4,0,4,0,4,0,,,,,,,,,,,,,,,,,,,,,,,,,,,,,,,197.5724392000002,197.5724392000002,o,0.05484489999980724,197.65611420000005,197.65611420000005,198.0558785000003,198.0558785000003,,,,,,,,,,,,,,,,,,,,,,,,,,,,,,,,,,1,001,2023-04-06_23h21.49.385,game,2022.2.5,60.03424353226601,
,,,,,,,,4,0,4,0,5,0,5,0,,,,,,,,,,,,,,,,,,,,,,,,,,,,,,,198.0558785000003,198.0558785000003,p,0.16509959999984858,198.23949880000055,198.23949880000055,198.63910470000064,198.63910470000064,,,,,,,,,,,,,,,,,,,,,,,,,,,,,,,,,,1,001,2023-04-06_23h21.49.385,game,2022.2.5,60.03424353226601,
,,,,,,,,4,0,4,0,6,0,6,0,,,,,,,,,,,,,,,,,,,,,,,,,,,,,,,198.63910470000064,198.63910470000064,q,0.08340459999999439,198.7409443000006,198.7409443000006,,,,,,,,,,,,,,,,,,,,,,,,,,,,,,,,,,,,1,001,2023-04-06_23h21.49.385,game,2022.2.5,60.03424353226601,
,,,,,,,,4,0,4,0,7,0,7,0,,,,,,,,,,,,,,,,,,,,,,,,,,,,,,,199.15606490000027,199.15606490000027,w,0.11579119999987597,199.2894907,199.2894907,199.68945030000032,199.68945030000032,,,,,,,,,,,,,,,,,,,,,,,,,,,,,,,,,,1,001,2023-04-06_23h21.49.385,game,2022.2.5,60.03424353226601,
,,,,,,,,4,0,4,0,8,0,8,0,,,,,,,,,,,,,,,,,,,,,,,,,,,,,,,199.68945030000032,199.68945030000032,w,0.12165420000019367,199.8394171,199.8394171,200.23925229999986,200.23925229999986,,,,,,,,,,,,,,,,,,,,,,,,,,,,,,,,,,1,001,2023-04-06_23h21.49.385,game,2022.2.5,60.03424353226601,
,,,,,,,,4,0,4,0,9,0,9,0,,,,,,,,,,,,,,,,,,,,,,,,,,,,,,,200.23925229999986,200.23925229999986,o,0.011788300000262097,200.2732864999998,200.2732864999998,200.67293080000036,200.67293080000036,,,,,,,,,,,,,,,,,,,,,,,,,,,,,,,,,,1,001,2023-04-06_23h21.49.385,game,2022.2.5,60.03424353226601,
,,,,,,,,4,0,4,0,10,0,10,0,,,,,,,,,,,,,,,,,,,,,,,,,,,,,,,200.67293080000036,200.67293080000036,p,0.01611010000033275,200.71219540000038,200.71219540000038,,,,,,,,,,,,,,,,,,,,,,,,,,,,,,,,,,,,1,001,2023-04-06_23h21.49.385,game,2022.2.5,60.03424353226601,
,,,,,,,,4,0,4,0,11,0,11,0,,,,,,,,,,,,,,,,,,,,,,,,,,,,,,,201.12239020000015,201.12239020000015,p,0.12697229999957926,201.27253480000036,201.27253480000036,201.67240440000023,201.67240440000023,,,,,,,,,,,,,,,,,,,,,,,,,,,,,,,,,,1,001,2023-04-06_23h21.49.385,game,2022.2.5,60.03424353226601,
,,,,,,,,4,0,4,0,12,0,12,0,,,,,,,,,,,,,,,,,,,,,,,,,,,,,,,201.67240440000023,201.67240440000023,p,0.08422199999949953,201.78933510000024,201.78933510000024,202.18933470000047,202.18933470000047,,,,,,,,,,,,,,,,,,,,,,,,,,,,,,,,,,1,001,2023-04-06_23h21.49.385,game,2022.2.5,60.03424353226601,
,,,,,,,,4,0,4,0,13,0,13,0,,,,,,,,,,,,,,,,,,,,,,,,,,,,,,,202.18933470000047,202.18933470000047,p,0.02992889999950421,202.2395575999999,202.2395575999999,202.6393351000006,202.6393351000006,,,,,,,,,,,,,,,,,,,,,,,,,,,,,,,,,,1,001,2023-04-06_23h21.49.385,game,2022.2.5,60.03424353226601,
,,,,,,,,4,0,4,0,14,0,14,0,,,,,,,,,,,,,,,,,,,,,,,,,,,,,,,202.6393351000006,202.6393351000006,p,0.0457525000001624,202.70921369999996,202.70921369999996,,,,,,,,,,,,,,,,,,,,,,,,,,,,,,,,,,,,1,001,2023-04-06_23h21.49.385,game,2022.2.5,60.03424353226601,
,,,,,,,,4,0,4,0,15,0,15,0,,,,,,,,,,,,,,,,,,,,,,,,,,,,,,,203.12273100000039,203.12273100000039,p,0.002540200000112236,203.15624089999983,203.15624089999983,203.5560357000004,203.5560357000004,,,,,,,,,,,,,,,,,,,,,,,,,,,,,,,,,,1,001,2023-04-06_23h21.49.385,game,2022.2.5,60.03424353226601,
,,,,,,,,4,0,4,0,16,0,16,0,,,,,,,,,,,,,,,,,,,,,,,,,,,,,,,203.5560357000004,203.5560357000004,w,0.4354396999997334,204.02550340000016,204.02550340000016,,,,,,,,,,,,,,,,,,,,,,,,,,,,,,,,,,,,1,001,2023-04-06_23h21.49.385,game,2022.2.5,60.03424353226601,
,,,,,,,,4,0,4,0,17,0,17,0,,,,,,,,,,,,,,,,,,,,,,,,,,,,,,,204.43919480000022,204.43919480000022,q,0.018527199999880395,204.48947690000023,204.48947690000023,204.8893235000005,204.8893235000005,,,,,,,,,,,,,,,,,,,,,,,,,,,,,,,,,,1,001,2023-04-06_23h21.49.385,game,2022.2.5,60.03424353226601,
,,,,,,,,4,0,4,0,18,0,18,0,,,,,,,,,,,,,,,,,,,,,,,,,,,,,,,204.8893235000005,204.8893235000005,w,0.007010499999523745,204.9229604000002,204.9229604000002,205.32249500000034,205.32249500000034,,,,,,,,,,,,,,,,,,,,,,,,,,,,,,,,,,1,001,2023-04-06_23h21.49.385,game,2022.2.5,60.03424353226601,
,,,,,,,,4,0,4,0,19,0,19,0,,,,,,,,,,,,,,,,,,,,,,,,,,,,,,,205.32249500000034,205.32249500000034,p,0.37548359999982495,205.7231410000004,205.7231410000004,206.1274997999999,206.1274997999999,,,,,,,,,,,,,,,,,,,,,,,,,,,,,,,,,,1,001,2023-04-06_23h21.49.385,game,2022.2.5,60.03424353226601,
,,,,,,,,4,0,4,0,,,,,0,0,0,0,,,,,,,,,,,,,,,,,,,,,,,,,,,,,,,,,,,206.1274997999999,206.1274997999999,space,0.76837230000001,,,,,208.05593300000055,208.05593300000055,q,0.23476319999917905,208.36160400000063,208.36160400000063,,,,,,,,,206.92284220000056,206.92284220000056,space,1.1022084999995059,,,,,,,,1,001,2023-04-06_23h21.49.385,game,2022.2.5,60.03424353226601,
,,,,,,,,4,0,4,0,,,,,1,0,1,0,,,,,,,,,,,,,,,,,,,,,,,,,,,,,,,,,,,,,,,,,,,208.73920350000026,208.73920350000026,w,0.09876569999960338,208.8879297000003,208.8879297000003,,,,,,,,,,,,,,,,,,,,1,001,2023-04-06_23h21.49.385,game,2022.2.5,60.03424353226601,
,,,,,,,,4,0,4,0,,,,,2,0,2,0,,,,,,,,,,,,,,,,,,,,,,,,,,,,,,,,,,,,,,,,,,,209.2725246,209.2725246,o,0.09438239999963116,209.4369888000001,209.4369888000001,,,,,,,,,,,,,,,,,,,,1,001,2023-04-06_23h21.49.385,game,2022.2.5,60.03424353226601,
,,,,,,,,4,0,4,0,,,,,3,0,3,0,,,,,,,,,,,,,,,,,,,,,,,,,,,,,,,,,,,,,,,,,,,209.8060832000001,209.8060832000001,p,0.033004199999595585,209.89041200000065,209.89041200000065,,,,,,,,,,,,,,,,,,,,1,001,2023-04-06_23h21.49.385,game,2022.2.5,60.03424353226601,
,,,,,,,,4,0,4,0,,,,,4,0,4,0,,,,,,,,,,,,,,,,,,,,,,,,,,,,,,,,,,,,,,,,,,,210.27280150000024,210.27280150000024,q,0.04236869999931514,210.35904879999998,210.35904879999998,,,,,,,,,,,,,,,,,,,,1,001,2023-04-06_23h21.49.385,game,2022.2.5,60.03424353226601,
,,,,,,,,4,0,4,0,,,,,5,0,5,0,,,,,,,,,,,,,,,,,,,,,,,,,,,,,,,,,,,,,,,,,,,210.7558981000002,210.7558981000002,w,0.08291540000027453,210.88772430000063,210.88772430000063,,,,,,,,,,,,,,,,,,,,1,001,2023-04-06_23h21.49.385,game,2022.2.5,60.03424353226601,
,,,,,,,,4,0,4,0,,,,,6,0,6,0,,,,,,,,,,,,,,,,,,,,,,,,,,,,,,,,,,,,,,,,,,,211.27284880000025,211.27284880000025,o,0.0071997999993982376,211.34563070000058,211.34563070000058,,,,,,,,,,,,,,,,,,,,1,001,2023-04-06_23h21.49.385,game,2022.2.5,60.03424353226601,
,,,,,,,,4,0,4,0,,,,,7,0,7,0,,,,,,,,,,,,,,,,,,,,,,,,,,,,,,,,,,,,,,,,,,,211.72290030000022,211.72290030000022,p,0.05501850000018749,211.8445053000005,211.8445053000005,,,,,,,,,,,,,,,,,,,,1,001,2023-04-06_23h21.49.385,game,2022.2.5,60.03424353226601,
,,,,,,,,4,0,4,0,,,,,8,0,8,0,,,,,,,,,,,,,,,,,,,,,,,,,,,,,,,,,,,,,,,,,,,212.22288879999996,212.22288879999996,q,0.01606660000015836,212.29628779999985,212.29628779999985,,,,,,,,,,,,,,,,,,,,1,001,2023-04-06_23h21.49.385,game,2022.2.5,60.03424353226601,
,,,,,,,,4,0,4,0,,,,,9,0,9,0,,,,,,,,,,,,,,,,,,,,,,,,,,,,,,,,,,,,,,,,,,,212.67251230000056,212.67251230000056,w,0.040784899999380286,212.78099980000025,212.78099980000025,,,,,,,,,,,,,,,,,,,,1,001,2023-04-06_23h21.49.385,game,2022.2.5,60.03424353226601,
,,,,,,,,4,0,4,0,,,,,10,0,10,0,,,,,,,,,,,,,,,,,,,,,,,,,,,,,,,,,,,,,,,,,,,213.15592660000038,213.15592660000038,o,0.03916789999948378,213.25745820000066,213.25745820000066,,,,,,,,,,,,,,,,,,,,1,001,2023-04-06_23h21.49.385,game,2022.2.5,60.03424353226601,
,,,,,,,,4,0,4,0,,,,,11,0,11,0,,,,,,,,,,,,,,,,,,,,,,,,,,,,,,,,,,,,,,,,,,,213.63943019999988,213.63943019999988,None,,214.05662930000017,214.05662930000017,,,,,,,,,,,,,,,,,,,,1,001,2023-04-06_23h21.49.385,game,2022.2.5,60.03424353226601,
,,,,,,,,4,0,4,0,,,,,12,0,12,0,,,,,,,,,,,,,,,,,,,,,,,,,,,,,,,,,,,,,,,,,,,214.43948360000013,214.43948360000013,q,0.11136590000023716,214.6092620999998,214.6092620999998,,,,,,,,,,,,,,,,,,,,1,001,2023-04-06_23h21.49.385,game,2022.2.5,60.03424353226601,
,,,,,,,,4,0,4,0,,,,,13,0,13,0,,,,,,,,,,,,,,,,,,,,,,,,,,,,,,,,,,,,,,,,,,,214.98918520000007,214.98918520000007,w,0.10852059999888297,215.14758979999988,215.14758979999988,,,,,,,,,,,,,,,,,,,,1,001,2023-04-06_23h21.49.385,game,2022.2.5,60.03424353226601,
,,,,,,,,4,0,4,0,,,,,14,0,14,0,,,,,,,,,,,,,,,,,,,,,,,,,,,,,,,,,,,,,,,,,,,215.53922330000023,215.53922330000023,o,0.07284129999970901,215.6839219000003,215.6839219000003,,,,,,,,,,,,,,,,,,,,1,001,2023-04-06_23h21.49.385,game,2022.2.5,60.03424353226601,
,,,,,,,,4,0,4,0,,,,,15,0,15,0,,,,,,,,,,,,,,,,,,,,,,,,,,,,,,,,,,,,,,,,,,,216.05592890000025,216.05592890000025,None,,216.47003010000026,216.47003010000026,,,,,,,,,,,,,,,,,,,,1,001,2023-04-06_23h21.49.385,game,2022.2.5,60.03424353226601,
,,,,,,,,4,0,4,0,,,,,16,0,16,0,,,,,,,,,,,,,,,,,,,,,,,,,,,,,,,,,,,,,,,,,,,216.85611250000056,216.85611250000056,w,0.14530289999947854,217.05608570000004,217.05608570000004,,,,,,,,,,,,,,,,,,,,1,001,2023-04-06_23h21.49.385,game,2022.2.5,60.03424353226601,
,,,,,,,,4,0,4,0,,,,,17,0,17,0,,,,,,,,,,,,,,,,,,,,,,,,,,,,,,,,,,,,,,,,,,,217.43949430000066,217.43949430000066,q,0.11708040000030451,217.63371580000057,217.63371580000057,,,,,,,,,,,,,,,,,,,,1,001,2023-04-06_23h21.49.385,game,2022.2.5,60.03424353226601,
,,,,,,,,4,0,4,0,,,,,18,0,18,0,,,,,,,,,,,,,,,,,,,,,,,,,,,,,,,,,,,,,,,,,,,217.98925450000024,217.98925450000024,w,0.12320209999961662,218.18000810000012,218.18000810000012,,,,,,,,,,,,,,,,,,,,1,001,2023-04-06_23h21.49.385,game,2022.2.5,60.03424353226601,
,,,,,,,,4,0,4,0,,,,,19,0,19,0,,,,,,,,,,,,,,,,,,,,,,,,,,,,,,,,,,,,,,,,,,,218.5559831999999,218.5559831999999,None,,218.9615229000001,218.9615229000001,,,,,,,,,,,,,,,,,,,,1,001,2023-04-06_23h21.49.385,game,2022.2.5,60.03424353226601,
,,,,,,,,4,0,4,0,,,,,,,,,,,,,,,,,,,,,,,,,,,,,,,,,,,,,,,,,,,219.36933769999996,219.36933769999996,space,1.0361840999994456,,,,,,,,,,,,,,,,,,,,,,,,,,,,,,1,001,2023-04-06_23h21.49.385,game,2022.2.5,60.03424353226601,
,,,,,,,,5,0,5,0,0,0,0,0,,,,,,,,,,,,,,,,,,,,,,,,,,,,,,,221.65599209999982,221.65599209999982,q,0.2279616999994687,221.90626130000055,221.90626130000055,222.30603690000044,222.30603690000044,,,,,,,,,,,,,,,,,,,220.42300410000007,220.42300410000007,space,1.2125538000000233,,,,,,,,,,,,1,001,2023-04-06_23h21.49.385,game,2022.2.5,60.03424353226601,
,,,,,,,,5,0,5,0,1,0,1,0,,,,,,,,,,,,,,,,,,,,,,,,,,,,,,,222.30603690000044,222.30603690000044,w,0.1479300000000876,222.47295829999985,222.47295829999985,222.8725817000004,222.8725817000004,,,,,,,,,,,,,,,,,,,,,,,,,,,,,,,,,,1,001,2023-04-06_23h21.49.385,game,2022.2.5,60.03424353226601,
,,,,,,,,5,0,5,0,2,0,2,0,,,,,,,,,,,,,,,,,,,,,,,,,,,,,,,222.8725817000004,222.8725817000004,o,0.153596799999832,223.05624200000057,223.05624200000057,223.45590260000063,223.45590260000063,,,,,,,,,,,,,,,,,,,,,,,,,,,,,,,,,,1,001,2023-04-06_23h21.49.385,game,2022.2.5,60.03424353226601,
,,,,,,,,5,0,5,0,3,0,3,0,,,,,,,,,,,,,,,,,,,,,,,,,,,,,,,223.45590260000063,223.45590260000063,p,0.1368570999993608,223.62282490000052,223.62282490000052,224.02257550000013,224.02257550000013,,,,,,,,,,,,,,,,,,,,,,,,,,,,,,,,,,1,001,2023-04-06_23h21.49.385,game,2022.2.5,60.03424353226601,
,,,,,,,,5,0,5,0,4,0,4,0,,,,,,,,,,,,,,,,,,,,,,,,,,,,,,,224.02257550000013,224.02257550000013,q,0.10495599999921978,224.1562525999998,224.1562525999998,224.55602220000037,224.55602220000037,,,,,,,,,,,,,,,,,,,,,,,,,,,,,,,,,,1,001,2023-04-06_23h21.49.385,game,2022.2.5,60.03424353226601,
,,,,,,,,5,0,5,0,5,0,5,0,,,,,,,,,,,,,,,,,,,,,,,,,,,,,,,224.55602220000037,224.55602220000037,w,0.0978436999994301,224.6729208000006,224.6729208000006,225.0725682000002,225.0725682000002,,,,,,,,,,,,,,,,,,,,,,,,,,,,,,,,,,1,001,2023-04-06_23h21.49.385,game,2022.2.5,60.03424353226601,
,,,,,,,,5,0,5,0,6,0,6,0,,,,,,,,,,,,,,,,,,,,,,,,,,,,,,,225.0725682000002,225.0725682000002,o,0.17588070000056177,225.2728532000001,225.2728532000001,225.67278850000002,225.67278850000002,,,,,,,,,,,,,,,,,,,,,,,,,,,,,,,,,,1,001,2023-04-06_23h21.49.385,game,2022.2.5,60.03424353226601,
,,,,,,,,5,0,5,0,7,0,7,0,,,,,,,,,,,,,,,,,,,,,,,,,,,,,,,225.67278850000002,225.67278850000002,p,0.1011054000000513,225.80643920000057,225.80643920000057,226.2062076000002,226.2062076000002,,,,,,,,,,,,,,,,,,,,,,,,,,,,,,,,,,1,001,2023-04-06_23h21.49.385,game,2022.2.5,60.03424353226601,
,,,,,,,,5,0,5,0,8,0,8,0,,,,,,,,,,,,,,,,,,,,,,,,,,,,,,,226.2062076000002,226.2062076000002,w,0.07622689999971044,226.30626920000032,226.30626920000032,226.70599420000053,226.70599420000053,,,,,,,,,,,,,,,,,,,,,,,,,,,,,,,,,,1,001,2023-04-06_23h21.49.385,game,2022.2.5,60.03424353226601,
,,,,,,,,5,0,5,0,9,0,9,0,,,,,,,,,,,,,,,,,,,,,,,,,,,,,,,226.70599420000053,226.70599420000053,w,0.07334160000027623,226.80660799999987,226.80660799999987,227.20574170000054,227.20574170000054,,,,,,,,,,,,,,,,,,,,,,,,,,,,,,,,,,1,001,2023-04-06_23h21.49.385,game,2022.2.5,60.03424353226601,
,,,,,,,,5,0,5,0,10,0,10,0,,,,,,,,,,,,,,,,,,,,,,,,,,,,,,,227.20574170000054,227.20574170000054,w,0.10367719999976543,227.35666180000044,227.35666180000044,,,,,,,,,,,,,,,,,,,,,,,,,,,,,,,,,,,,1,001,2023-04-06_23h21.49.385,game,2022.2.5,60.03424353226601,
,,,,,,,,5,0,5,0,11,0,11,0,,,,,,,,,,,,,,,,,,,,,,,,,,,,,,,227.7560137999999,227.7560137999999,w,0.03791890000047715,227.82387420000032,227.82387420000032,228.22279400000025,228.22279400000025,,,,,,,,,,,,,,,,,,,,,,,,,,,,,,,,,,1,001,2023-04-06_23h21.49.385,game,2022.2.5,60.03424353226601,
,,,,,,,,5,0,5,0,12,0,12,0,,,,,,,,,,,,,,,,,,,,,,,,,,,,,,,228.22279400000025,228.22279400000025,w,0.0013731999997617095,228.25642960000005,228.25642960000005,228.65606949999983,228.65606949999983,,,,,,,,,,,,,,,,,,,,,,,,,,,,,,,,,,1,001,2023-04-06_23h21.49.385,game,2022.2.5,60.03424353226601,
,,,,,,,,5,0,5,0,13,0,13,0,,,,,,,,,,,,,,,,,,,,,,,,,,,,,,,228.65606949999983,228.65606949999983,w,0.030747299999347888,228.70659650000016,228.70659650000016,229.10635730000013,229.10635730000013,,,,,,,,,,,,,,,,,,,,,,,,,,,,,,,,,,1,001,2023-04-06_23h21.49.385,game,2022.2.5,60.03424353226601,
,,,,,,,,5,0,5,0,14,0,14,0,,,,,,,,,,,,,,,,,,,,,,,,,,,,,,,229.10635730000013,229.10635730000013,w,0.045435299999553536,229.1730109,229.1730109,229.57299670000066,229.57299670000066,,,,,,,,,,,,,,,,,,,,,,,,,,,,,,,,,,1,001,2023-04-06_23h21.49.385,game,2022.2.5,60.03424353226601,
,,,,,,,,5,0,5,0,15,0,15,0,,,,,,,,,,,,,,,,,,,,,,,,,,,,,,,229.57299670000066,229.57299670000066,w,0.02436519999992015,229.6233226000004,229.6233226000004,230.0230405000002,230.0230405000002,,,,,,,,,,,,,,,,,,,,,,,,,,,,,,,,,,1,001,2023-04-06_23h21.49.385,game,2022.2.5,60.03424353226601,
,,,,,,,,5,0,5,0,16,0,16,0,,,,,,,,,,,,,,,,,,,,,,,,,,,,,,,230.0230405000002,230.0230405000002,w,0.08460939999986294,230.15276059999997,230.15276059999997,,,,,,,,,,,,,,,,,,,,,,,,,,,,,,,,,,,,1,001,2023-04-06_23h21.49.385,game,2022.2.5,60.03424353226601,
,,,,,,,,5,0,5,0,17,0,17,0,,,,,,,,,,,,,,,,,,,,,,,,,,,,,,,230.5562842999998,230.5562842999998,w,0.017794499999581603,230.60636430000068,230.60636430000068,231.00634940000054,231.00634940000054,,,,,,,,,,,,,,,,,,,,,,,,,,,,,,,,,,1,001,2023-04-06_23h21.49.385,game,2022.2.5,60.03424353226601,
,,,,,,,,5,0,5,0,18,0,18,0,,,,,,,,,,,,,,,,,,,,,,,,,,,,,,,231.00634940000054,231.00634940000054,w,0.09434070000042993,231.12312030000066,231.12312030000066,231.52318780000041,231.52318780000041,,,,,,,,,,,,,,,,,,,,,,,,,,,,,,,,,,1,001,2023-04-06_23h21.49.385,game,2022.2.5,60.03424353226601,
,,,,,,,,5,0,5,0,19,0,19,0,,,,,,,,,,,,,,,,,,,,,,,,,,,,,,,231.52318780000041,231.52318780000041,w,0.5881994999999733,232.13956690000032,232.13956690000032,232.54070779999984,232.54070779999984,,,,,,,,,,,,,,,,,,,,,,,,,,,,,,,,,,1,001,2023-04-06_23h21.49.385,game,2022.2.5,60.03424353226601,
,,,,,,,,5,0,5,0,,,,,0,0,0,0,,,,,,,,,,,,,,,,,,,,,,,,,,,,,,,,,,,232.54070779999984,232.54070779999984,space,1.3675493999999162,,,,,235.18969819999984,235.18969819999984,q,0.2979883999996673,235.5441877000003,235.5441877000003,,,,,,,,,233.93942220000008,233.93942220000008,space,1.2263032999999268,,,,,,,,1,001,2023-04-06_23h21.49.385,game,2022.2.5,60.03424353226601,
,,,,,,,,5,0,5,0,,,,,1,0,1,0,,,,,,,,,,,,,,,,,,,,,,,,,,,,,,,,,,,,,,,,,,,235.92302710000058,235.92302710000058,w,0.03368849999969825,236.00720249999995,236.00720249999995,,,,,,,,,,,,,,,,,,,,1,001,2023-04-06_23h21.49.385,game,2022.2.5,60.03424353226601,
,,,,,,,,5,0,5,0,,,,,2,0,2,0,,,,,,,,,,,,,,,,,,,,,,,,,,,,,,,,,,,,,,,,,,,236.38943030000064,236.38943030000064,o,0.07379179999952612,236.51424769999994,236.51424769999994,,,,,,,,,,,,,,,,,,,,1,001,2023-04-06_23h21.49.385,game,2022.2.5,60.03424353226601,
,,,,,,,,5,0,5,0,,,,,3,0,3,0,,,,,,,,,,,,,,,,,,,,,,,,,,,,,,,,,,,,,,,,,,,236.90601090000018,236.90601090000018,None,,237.3414326000002,237.3414326000002,,,,,,,,,,,,,,,,,,,,1,001,2023-04-06_23h21.49.385,game,2022.2.5,60.03424353226601,
,,,,,,,,5,0,5,0,,,,,4,0,4,0,,,,,,,,,,,,,,,,,,,,,,,,,,,,,,,,,,,,,,,,,,,237.70607480000035,237.70607480000035,w,0.18163649999951303,237.9472682000005,237.9472682000005,,,,,,,,,,,,,,,,,,,,1,001,2023-04-06_23h21.49.385,game,2022.2.5,60.03424353226601,
,,,,,,,,5,0,5,0,,,,,5,0,5,0,,,,,,,,,,,,,,,,,,,,,,,,,,,,,,,,,,,,,,,,,,,238.3228337999999,238.3228337999999,q,0.04209720000017114,238.4218879,238.4218879,,,,,,,,,,,,,,,,,,,,1,001,2023-04-06_23h21.49.385,game,2022.2.5,60.03424353226601,
,,,,,,,,5,0,5,0,,,,,6,0,6,0,,,,,,,,,,,,,,,,,,,,,,,,,,,,,,,,,,,,,,,,,,,238.80629580000004,238.80629580000004,None,,239.22752170000058,239.22752170000058,,,,,,,,,,,,,,,,,,,,1,001,2023-04-06_23h21.49.385,game,2022.2.5,60.03424353226601,
,,,,,,,,5,0,5,0,,,,,7,0,7,0,,,,,,,,,,,,,,,,,,,,,,,,,,,,,,,,,,,,,,,,,,,239.60619940000015,239.60619940000015,w,0.17070139999941603,239.83782990000054,239.83782990000054,,,,,,,,,,,,,,,,,,,,1,001,2023-04-06_23h21.49.385,game,2022.2.5,60.03424353226601,
,,,,,,,,5,0,5,0,,,,,8,0,8,0,,,,,,,,,,,,,,,,,,,,,,,,,,,,,,,,,,,,,,,,,,,240.2230414000005,240.2230414000005,o,0.01888319999943633,240.2960651000003,240.2960651000003,,,,,,,,,,,,,,,,,,,,1,001,2023-04-06_23h21.49.385,game,2022.2.5,60.03424353226601,
,,,,,,,,5,0,5,0,,,,,9,0,9,0,,,,,,,,,,,,,,,,,,,,,,,,,,,,,,,,,,,,,,,,,,,240.68951259999994,240.68951259999994,p,0.06585389999963809,240.80446610000035,240.80446610000035,,,,,,,,,,,,,,,,,,,,1,001,2023-04-06_23h21.49.385,game,2022.2.5,60.03424353226601,
,,,,,,,,5,0,5,0,,,,,10,0,10,0,,,,,,,,,,,,,,,,,,,,,,,,,,,,,,,,,,,,,,,,,,,241.18995210000048,241.18995210000048,q,0.02991779999956634,241.26348469999994,241.26348469999994,,,,,,,,,,,,,,,,,,,,1,001,2023-04-06_23h21.49.385,game,2022.2.5,60.03424353226601,
,,,,,,,,5,0,5,0,,,,,11,0,11,0,,,,,,,,,,,,,,,,,,,,,,,,,,,,,,,,,,,,,,,,,,,241.65645310000036,241.65645310000036,w,0.049112699999568576,241.76366450000023,241.76366450000023,,,,,,,,,,,,,,,,,,,,1,001,2023-04-06_23h21.49.385,game,2022.2.5,60.03424353226601,
,,,,,,,,5,0,5,0,,,,,12,0,12,0,,,,,,,,,,,,,,,,,,,,,,,,,,,,,,,,,,,,,,,,,,,242.13967440000033,242.13967440000033,w,0.1402643999999782,242.33884530000068,242.33884530000068,,,,,,,,,,,,,,,,,,,,1,001,2023-04-06_23h21.49.385,game,2022.2.5,60.03424353226601,
,,,,,,,,5,0,5,0,,,,,13,0,13,0,,,,,,,,,,,,,,,,,,,,,,,,,,,,,,,,,,,,,,,,,,,242.72315170000002,242.72315170000002,o,0.03475020000041695,242.8243521000004,242.8243521000004,,,,,,,,,,,,,,,,,,,,1,001,2023-04-06_23h21.49.385,game,2022.2.5,60.03424353226601,
,,,,,,,,5,0,5,0,,,,,14,0,14,0,,,,,,,,,,,,,,,,,,,,,,,,,,,,,,,,,,,,,,,,,,,243.2060629000007,243.2060629000007,p,0.030468500000097265,243.28156060000038,243.28156060000038,,,,,,,,,,,,,,,,,,,,1,001,2023-04-06_23h21.49.385,game,2022.2.5,60.03424353226601,
,,,,,,,,5,0,5,0,,,,,15,0,15,0,,,,,,,,,,,,,,,,,,,,,,,,,,,,,,,,,,,,,,,,,,,243.67283660000066,243.67283660000066,q,0.1450448999994478,243.88111149999986,243.88111149999986,,,,,,,,,,,,,,,,,,,,1,001,2023-04-06_23h21.49.385,game,2022.2.5,60.03424353226601,
,,,,,,,,5,0,5,0,,,,,16,0,16,0,,,,,,,,,,,,,,,,,,,,,,,,,,,,,,,,,,,,,,,,,,,244.25617340000008,244.25617340000008,w,0.03988209999988612,244.36420700000053,244.36420700000053,,,,,,,,,,,,,,,,,,,,1,001,2023-04-06_23h21.49.385,game,2022.2.5,60.03424353226601,
,,,,,,,,5,0,5,0,,,,,17,0,17,0,,,,,,,,,,,,,,,,,,,,,,,,,,,,,,,,,,,,,,,,,,,244.73987430000034,244.73987430000034,o,0.018582599999717786,244.82262910000009,244.82262910000009,,,,,,,,,,,,,,,,,,,,1,001,2023-04-06_23h21.49.385,game,2022.2.5,60.03424353226601,
,,,,,,,,5,0,5,0,,,,,18,0,18,0,,,,,,,,,,,,,,,,,,,,,,,,,,,,,,,,,,,,,,,,,,,245.20630940000046,245.20630940000046,None,,245.61530550000043,245.61530550000043,,,,,,,,,,,,,,,,,,,,1,001,2023-04-06_23h21.49.385,game,2022.2.5,60.03424353226601,
,,,,,,,,5,0,5,0,,,,,19,0,19,0,,,,,,,,,,,,,,,,,,,,,,,,,,,,,,,,,,,,,,,,,,,246.00665690000005,246.00665690000005,q,0.18548769999961223,246.24019700000008,246.24019700000008,,,,,,,,,,,,,,,,,,,,1,001,2023-04-06_23h21.49.385,game,2022.2.5,60.03424353226601,
,,,,,,,,5,0,5,0,,,,,,,,,,,,,,,,,,,,,,,,,,,,,,,,,,,,,,,,,,,246.63986440000008,246.63986440000008,space,1.1478655999990224,,,,,,,,,,,,,,,,,,,,,,,,,,,,,,1,001,2023-04-06_23h21.49.385,game,2022.2.5,60.03424353226601,
,,,,,,,,6,0,6,0,0,0,0,0,,,,,,,,,,,,,,,,,,,,,,,,,,,,,,,248.4397712,248.4397712,q,1.8658550999998624,250.3374373000006,250.3374373000006,,,,,,,,,,,,,,,,,,,,,247.8066641000005,247.8066641000005,space,0.606988999999885,,,,,,,,,,,,1,001,2023-04-06_23h21.49.385,game,2022.2.5,60.03424353226601,
,,,,,,,,6,0,6,0,1,0,1,0,,,,,,,,,,,,,,,,,,,,,,,,,,,,,,,250.73999860000004,250.73999860000004,w,0.24833289999969566,251.00657320000028,251.00657320000028,251.40625929999987,251.40625929999987,,,,,,,,,,,,,,,,,,,,,,,,,,,,,,,,,,1,001,2023-04-06_23h21.49.385,game,2022.2.5,60.03424353226601,
,,,,,,,,6,0,6,0,2,0,2,0,,,,,,,,,,,,,,,,,,,,,,,,,,,,,,,251.40625929999987,251.40625929999987,o,0.21827679999933025,251.65821620000042,251.65821620000042,,,,,,,,,,,,,,,,,,,,,,,,,,,,,,,,,,,,1,001,2023-04-06_23h21.49.385,game,2022.2.5,60.03424353226601,
,,,,,,,,6,0,6,0,3,0,3,0,,,,,,,,,,,,,,,,,,,,,,,,,,,,,,,252.07324340000014,252.07324340000014,p,0.5057503999996698,252.6066182000004,252.6066182000004,253.00619310000002,253.00619310000002,,,,,,,,,,,,,,,,,,,,,,,,,,,,,,,,,,1,001,2023-04-06_23h21.49.385,game,2022.2.5,60.03424353226601,
,,,,,,,,6,0,6,0,4,0,4,0,,,,,,,,,,,,,,,,,,,,,,,,,,,,,,,253.00619310000002,253.00619310000002,q,0.13550439999926311,253.17619939999986,253.17619939999986,,,,,,,,,,,,,,,,,,,,,,,,,,,,,,,,,,,,1,001,2023-04-06_23h21.49.385,game,2022.2.5,60.03424353226601,
,,,,,,,,6,0,6,0,5,0,5,0,,,,,,,,,,,,,,,,,,,,,,,,,,,,,,,253.59002360000068,253.59002360000068,w,0.032689900000150374,253.64310300000034,253.64310300000034,,,,,,,,,,,,,,,,,,,,,,,,,,,,,,,,,,,,1,001,2023-04-06_23h21.49.385,game,2022.2.5,60.03424353226601,
,,,,,,,,6,0,6,0,6,0,6,0,,,,,,,,,,,,,,,,,,,,,,,,,,,,,,,254.0562731,254.0562731,w,0.4290264000001116,254.50645739999982,254.50645739999982,254.9067109000007,254.9067109000007,,,,,,,,,,,,,,,,,,,,,,,,,,,,,,,,,,1,001,2023-04-06_23h21.49.385,game,2022.2.5,60.03424353226601,
,,,,,,,,6,0,6,0,7,0,7,0,,,,,,,,,,,,,,,,,,,,,,,,,,,,,,,254.9067109000007,254.9067109000007,o,0.4572644999998374,255.38990300000023,255.38990300000023,255.78943880000043,255.78943880000043,,,,,,,,,,,,,,,,,,,,,,,,,,,,,,,,,,1,001,2023-04-06_23h21.49.385,game,2022.2.5,60.03424353226601,
,,,,,,,,6,0,6,0,8,0,8,0,,,,,,,,,,,,,,,,,,,,,,,,,,,,,,,255.78943880000043,255.78943880000043,p,0.6443986999993285,256.45641720000003,256.45641720000003,256.85618909999994,256.85618909999994,,,,,,,,,,,,,,,,,,,,,,,,,,,,,,,,,,1,001,2023-04-06_23h21.49.385,game,2022.2.5,60.03424353226601,
,,,,,,,,6,0,6,0,9,0,9,0,,,,,,,,,,,,,,,,,,,,,,,,,,,,,,,256.85618909999994,256.85618909999994,w,0.2981748999991396,257.1922943999998,257.1922943999998,,,,,,,,,,,,,,,,,,,,,,,,,,,,,,,,,,,,1,001,2023-04-06_23h21.49.385,game,2022.2.5,60.03424353226601,
,,,,,,,,6,0,6,0,10,0,10,0,,,,,,,,,,,,,,,,,,,,,,,,,,,,,,,257.5899016000003,257.5899016000003,w,0.3427312999992864,257.9564925000004,257.9564925000004,258.35638950000066,258.35638950000066,,,,,,,,,,,,,,,,,,,,,,,,,,,,,,,,,,1,001,2023-04-06_23h21.49.385,game,2022.2.5,60.03424353226601,
,,,,,,,,6,0,6,0,11,0,11,0,,,,,,,,,,,,,,,,,,,,,,,,,,,,,,,258.35638950000066,258.35638950000066,q,0.3435647999995126,258.7231089000006,258.7231089000006,259.1229116000004,259.1229116000004,,,,,,,,,,,,,,,,,,,,,,,,,,,,,,,,,,1,001,2023-04-06_23h21.49.385,game,2022.2.5,60.03424353226601,
,,,,,,,,6,0,6,0,12,0,12,0,,,,,,,,,,,,,,,,,,,,,,,,,,,,,,,259.1229116000004,259.1229116000004,o,0.1387813000001188,259.2914494000006,259.2914494000006,,,,,,,,,,,,,,,,,,,,,,,,,,,,,,,,,,,,1,001,2023-04-06_23h21.49.385,game,2022.2.5,60.03424353226601,
,,,,,,,,6,0,6,0,13,0,13,0,,,,,,,,,,,,,,,,,,,,,,,,,,,,,,,259.7063506000004,259.7063506000004,w,0.013869200000044657,259.7402186999998,259.7402186999998,260.1397897000006,260.1397897000006,,,,,,,,,,,,,,,,,,,,,,,,,,,,,,,,,,1,001,2023-04-06_23h21.49.385,game,2022.2.5,60.03424353226601,
,,,,,,,,6,0,6,0,14,0,14,0,,,,,,,,,,,,,,,,,,,,,,,,,,,,,,,260.1397897000006,260.1397897000006,w,0.18241289999969013,260.3398794000004,260.3398794000004,260.7401223000006,260.7401223000006,,,,,,,,,,,,,,,,,,,,,,,,,,,,,,,,,,1,001,2023-04-06_23h21.49.385,game,2022.2.5,60.03424353226601,
,,,,,,,,6,0,6,0,15,0,15,0,,,,,,,,,,,,,,,,,,,,,,,,,,,,,,,260.7401223000006,260.7401223000006,w,0.18854709999959596,260.9568124000007,260.9568124000007,261.3564311,261.3564311,,,,,,,,,,,,,,,,,,,,,,,,,,,,,,,,,,1,001,2023-04-06_23h21.49.385,game,2022.2.5,60.03424353226601,
,,,,,,,,6,0,6,0,16,0,16,0,,,,,,,,,,,,,,,,,,,,,,,,,,,,,,,261.3564311,261.3564311,w,0.11284429999977874,261.4901633999998,261.4901633999998,261.88978790000056,261.88978790000056,,,,,,,,,,,,,,,,,,,,,,,,,,,,,,,,,,1,001,2023-04-06_23h21.49.385,game,2022.2.5,60.03424353226601,
,,,,,,,,6,0,6,0,17,0,17,0,,,,,,,,,,,,,,,,,,,,,,,,,,,,,,,261.88978790000056,261.88978790000056,q,0.12181109999892215,262.04112820000046,262.04112820000046,,,,,,,,,,,,,,,,,,,,,,,,,,,,,,,,,,,,1,001,2023-04-06_23h21.49.385,game,2022.2.5,60.03424353226601,
,,,,,,,,6,0,6,0,18,0,18,0,,,,,,,,,,,,,,,,,,,,,,,,,,,,,,,262.45655480000005,262.45655480000005,q,0.30175899999994726,262.7921782000003,262.7921782000003,,,,,,,,,,,,,,,,,,,,,,,,,,,,,,,,,,,,1,001,2023-04-06_23h21.49.385,game,2022.2.5,60.03424353226601,
,,,,,,,,6,0,6,0,19,0,19,0,,,,,,,,,,,,,,,,,,,,,,,,,,,,,,,263.2062771000001,263.2062771000001,w,0.15367429999969318,263.3917704000005,263.3917704000005,,,,,,,,,,,,,,,,,,,,,,,,,,,,,,,,,,,,1,001,2023-04-06_23h21.49.385,game,2022.2.5,60.03424353226601,
,,,,,,,,6,0,6,0,,,,,0,0,0,0,,,,,,,,,,,,,,,,,,,,,,,,,,,,,,,,,,,263.8061974000002,263.8061974000002,space,1.0306081999997332,,,,,265.90637550000065,265.90637550000065,q,0.3597888000003877,266.31719880000037,266.31719880000037,,,,,,,,,264.8565878999998,264.8565878999998,space,1.025951000000532,,,,,,,,1,001,2023-04-06_23h21.49.385,game,2022.2.5,60.03424353226601,
,,,,,,,,6,0,6,0,,,,,1,0,1,0,,,,,,,,,,,,,,,,,,,,,,,,,,,,,,,,,,,,,,,,,,,266.7060947,266.7060947,w,0.31618750000052387,267.0580447000002,267.0580447000002,,,,,,,,,,,,,,,,,,,,1,001,2023-04-06_23h21.49.385,game,2022.2.5,60.03424353226601,
,,,,,,,,6,0,6,0,,,,,2,0,2,0,,,,,,,,,,,,,,,,,,,,,,,,,,,,,,,,,,,,,,,,,,,267.4563644,267.4563644,None,,267.87033320000046,267.87033320000046,,,,,,,,,,,,,,,,,,,,1,001,2023-04-06_23h21.49.385,game,2022.2.5,60.03424353226601,
,,,,,,,,6,0,6,0,,,,,3,0,3,0,,,,,,,,,,,,,,,,,,,,,,,,,,,,,,,,,,,,,,,,,,,268.2563025999998,268.2563025999998,p,0.23591229999965435,268.55090290000044,268.55090290000044,,,,,,,,,,,,,,,,,,,,1,001,2023-04-06_23h21.49.385,game,2022.2.5,60.03424353226601,
,,,,,,,,6,0,6,0,,,,,4,0,4,0,,,,,,,,,,,,,,,,,,,,,,,,,,,,,,,,,,,,,,,,,,,268.9396878000007,268.9396878000007,q,0.27930859999923996,269.2687794000003,269.2687794000003,,,,,,,,,,,,,,,,,,,,1,001,2023-04-06_23h21.49.385,game,2022.2.5,60.03424353226601,
,,,,,,,,6,0,6,0,,,,,5,0,5,0,,,,,,,,,,,,,,,,,,,,,,,,,,,,,,,,,,,,,,,,,,,269.6563466000007,269.6563466000007,None,,270.0721074000003,270.0721074000003,,,,,,,,,,,,,,,,,,,,1,001,2023-04-06_23h21.49.385,game,2022.2.5,60.03424353226601,
,,,,,,,,6,0,6,0,,,,,6,0,6,0,,,,,,,,,,,,,,,,,,,,,,,,,,,,,,,,,,,,,,,,,,,270.4563790000002,270.4563790000002,w,0.11932209999940824,270.64171200000055,270.64171200000055,,,,,,,,,,,,,,,,,,,,1,001,2023-04-06_23h21.49.385,game,2022.2.5,60.03424353226601,
,,,,,,,,6,0,6,0,,,,,7,0,7,0,,,,,,,,,,,,,,,,,,,,,,,,,,,,,,,,,,,,,,,,,,,271.0229248000005,271.0229248000005,o,0.34200499999951717,271.4229746000001,271.4229746000001,,,,,,,,,,,,,,,,,,,,1,001,2023-04-06_23h21.49.385,game,2022.2.5,60.03424353226601,
,,,,,,,,6,0,6,0,,,,,8,0,8,0,,,,,,,,,,,,,,,,,,,,,,,,,,,,,,,,,,,,,,,,,,,271.80632460000015,271.80632460000015,None,,272.2195705000004,272.2195705000004,,,,,,,,,,,,,,,,,,,,1,001,2023-04-06_23h21.49.385,game,2022.2.5,60.03424353226601,
,,,,,,,,6,0,6,0,,,,,9,0,9,0,,,,,,,,,,,,,,,,,,,,,,,,,,,,,,,,,,,,,,,,,,,272.6063245000005,272.6063245000005,o,0.05973619999986113,272.72470090000024,272.72470090000024,,,,,,,,,,,,,,,,,,,,1,001,2023-04-06_23h21.49.385,game,2022.2.5,60.03424353226601,
,,,,,,,,6,0,6,0,,,,,10,0,10,0,,,,,,,,,,,,,,,,,,,,,,,,,,,,,,,,,,,,,,,,,,,273.1064747999999,273.1064747999999,o,0.2182876999995642,273.3956337999998,273.3956337999998,,,,,,,,,,,,,,,,,,,,1,001,2023-04-06_23h21.49.385,game,2022.2.5,60.03424353226601,
,,,,,,,,6,0,6,0,,,,,11,0,11,0,,,,,,,,,,,,,,,,,,,,,,,,,,,,,,,,,,,,,,,,,,,273.7731242,273.7731242,o,0.024836300000060874,273.85168220000014,273.85168220000014,,,,,,,,,,,,,,,,,,,,1,001,2023-04-06_23h21.49.385,game,2022.2.5,60.03424353226601,
,,,,,,,,6,0,6,0,,,,,12,0,12,0,,,,,,,,,,,,,,,,,,,,,,,,,,,,,,,,,,,,,,,,,,,274.23987639999996,274.23987639999996,None,,274.6400185000002,274.6400185000002,,,,,,,,,,,,,,,,,,,,1,001,2023-04-06_23h21.49.385,game,2022.2.5,60.03424353226601,
,,,,,,,,6,0,6,0,,,,,13,0,13,0,,,,,,,,,,,,,,,,,,,,,,,,,,,,,,,,,,,,,,,,,,,275.03974199999993,275.03974199999993,o,0.08968859999913548,275.18717410000045,275.18717410000045,,,,,,,,,,,,,,,,,,,,1,001,2023-04-06_23h21.49.385,game,2022.2.5,60.03424353226601,
,,,,,,,,6,0,6,0,,,,,14,0,14,0,,,,,,,,,,,,,,,,,,,,,,,,,,,,,,,,,,,,,,,,,,,275.5730631000006,275.5730631000006,o,0.17933199999970384,275.8028030000005,275.8028030000005,,,,,,,,,,,,,,,,,,,,1,001,2023-04-06_23h21.49.385,game,2022.2.5,60.03424353226601,
,,,,,,,,6,0,6,0,,,,,15,0,15,0,,,,,,,,,,,,,,,,,,,,,,,,,,,,,,,,,,,,,,,,,,,276.18973450000067,276.18973450000067,o,0.28378299999985757,276.5264216000005,276.5264216000005,,,,,,,,,,,,,,,,,,,,1,001,2023-04-06_23h21.49.385,game,2022.2.5,60.03424353226601,
,,,,,,,,6,0,6,0,,,,,16,0,16,0,,,,,,,,,,,,,,,,,,,,,,,,,,,,,,,,,,,,,,,,,,,276.9229513,276.9229513,o,0.2260610999992423,277.2180468000006,277.2180468000006,,,,,,,,,,,,,,,,,,,,1,001,2023-04-06_23h21.49.385,game,2022.2.5,60.03424353226601,
,,,,,,,,6,0,6,0,,,,,17,0,17,0,,,,,,,,,,,,,,,,,,,,,,,,,,,,,,,,,,,,,,,,,,,277.59008619999986,277.59008619999986,o,0.04986149999967893,277.69618660000015,277.69618660000015,,,,,,,,,,,,,,,,,,,,1,001,2023-04-06_23h21.49.385,game,2022.2.5,60.03424353226601,
,,,,,,,,6,0,6,0,,,,,18,0,18,0,,,,,,,,,,,,,,,,,,,,,,,,,,,,,,,,,,,,,,,,,,,278.07308640000065,278.07308640000065,o,0.14862209999955667,278.2755115,278.2755115,,,,,,,,,,,,,,,,,,,,1,001,2023-04-06_23h21.49.385,game,2022.2.5,60.03424353226601,
,,,,,,,,6,0,6,0,,,,,19,0,19,0,,,,,,,,,,,,,,,,,,,,,,,,,,,,,,,,,,,,,,,,,,,278.6566326000002,278.6566326000002,o,0.00972269999965647,278.71881889999986,278.71881889999986,,,,,,,,,,,,,,,,,,,,1,001,2023-04-06_23h21.49.385,game,2022.2.5,60.03424353226601,
,,,,,,,,6,0,6,0,,,,,,,,,,,,,,,,,,,,,,,,,,,,,,,,,,,,,,,,,,,279.10655680000036,279.10655680000036,space,0.861676599999555,,,,,,,,,,,,,,,,,,,,,,,,,,,,,,1,001,2023-04-06_23h21.49.385,game,2022.2.5,60.03424353226601,
,,,,,,,,7,0,7,0,0,0,0,0,,,,,,,,,,,,,,,,,,,,,,,,,,,,,,,281.6231265000006,281.6231265000006,q,0.6031397999995534,282.2566575999999,282.2566575999999,282.6562020000001,282.6562020000001,,,,,,,,,,,,,,,,,,,279.9899043000005,279.9899043000005,space,1.6157032000000981,,,,,,,,,,,,1,001,2023-04-06_23h21.49.385,game,2022.2.5,60.03424353226601,
,,,,,,,,7,0,7,0,1,0,1,0,,,,,,,,,,,,,,,,,,,,,,,,,,,,,,,282.6562020000001,282.6562020000001,w,0.31680710000000545,282.9898565000003,282.9898565000003,283.3895925000006,283.3895925000006,,,,,,,,,,,,,,,,,,,,,,,,,,,,,,,,,,1,001,2023-04-06_23h21.49.385,game,2022.2.5,60.03424353226601,
,,,,,,,,7,0,7,0,2,0,2,0,,,,,,,,,,,,,,,,,,,,,,,,,,,,,,,283.3895925000006,283.3895925000006,o,0.588315899999543,284.0086646999998,284.0086646999998,,,,,,,,,,,,,,,,,,,,,,,,,,,,,,,,,,,,1,001,2023-04-06_23h21.49.385,game,2022.2.5,60.03424353226601,
,,,,,,,,7,0,7,0,3,0,3,0,,,,,,,,,,,,,,,,,,,,,,,,,,,,,,,284.42329810000047,284.42329810000047,p,0.5030729999998584,284.95683069999995,284.95683069999995,285.3562928000001,285.3562928000001,,,,,,,,,,,,,,,,,,,,,,,,,,,,,,,,,,1,001,2023-04-06_23h21.49.385,game,2022.2.5,60.03424353226601,
,,,,,,,,7,0,7,0,4,0,4,0,,,,,,,,,,,,,,,,,,,,,,,,,,,,,,,285.3562928000001,285.3562928000001,w,0.189681599999858,285.57324140000037,285.57324140000037,285.97334219999993,285.97334219999993,,,,,,,,,,,,,,,,,,,,,,,,,,,,,,,,,,1,001,2023-04-06_23h21.49.385,game,2022.2.5,60.03424353226601,
,,,,,,,,7,0,7,0,5,0,5,0,,,,,,,,,,,,,,,,,,,,,,,,,,,,,,,285.97334219999993,285.97334219999993,q,0.2575428000000102,286.2566118000004,286.2566118000004,286.65650559999995,286.65650559999995,,,,,,,,,,,,,,,,,,,,,,,,,,,,,,,,,,1,001,2023-04-06_23h21.49.385,game,2022.2.5,60.03424353226601,
,,,,,,,,7,0,7,0,6,0,6,0,,,,,,,,,,,,,,,,,,,,,,,,,,,,,,,286.65650559999995,286.65650559999995,w,0.13203759999942122,286.80674030000046,286.80674030000046,287.2064706000001,287.2064706000001,,,,,,,,,,,,,,,,,,,,,,,,,,,,,,,,,,1,001,2023-04-06_23h21.49.385,game,2022.2.5,60.03424353226601,
,,,,,,,,7,0,7,0,7,0,7,0,,,,,,,,,,,,,,,,,,,,,,,,,,,,,,,287.2064706000001,287.2064706000001,w,0.4017537999989145,287.6402797999999,287.6402797999999,288.0401808000006,288.0401808000006,,,,,,,,,,,,,,,,,,,,,,,,,,,,,,,,,,1,001,2023-04-06_23h21.49.385,game,2022.2.5,60.03424353226601,
,,,,,,,,7,0,7,0,8,0,8,0,,,,,,,,,,,,,,,,,,,,,,,,,,,,,,,288.0401808000006,288.0401808000006,w,0.2767485000003944,288.34038060000057,288.34038060000057,288.73995360000026,288.73995360000026,,,,,,,,,,,,,,,,,,,,,,,,,,,,,,,,,,1,001,2023-04-06_23h21.49.385,game,2022.2.5,60.03424353226601,
,,,,,,,,7,0,7,0,9,0,9,0,,,,,,,,,,,,,,,,,,,,,,,,,,,,,,,288.73995360000026,288.73995360000026,w,0.13055589999930817,288.8898368,288.8898368,289.2902758,289.2902758,,,,,,,,,,,,,,,,,,,,,,,,,,,,,,,,,,1,001,2023-04-06_23h21.49.385,game,2022.2.5,60.03424353226601,
,,,,,,,,7,0,7,0,10,0,10,0,,,,,,,,,,,,,,,,,,,,,,,,,,,,,,,289.2902758,289.2902758,o,0.07417439999971975,289.3903492999998,289.3903492999998,289.7897872000003,289.7897872000003,,,,,,,,,,,,,,,,,,,,,,,,,,,,,,,,,,1,001,2023-04-06_23h21.49.385,game,2022.2.5,60.03424353226601,
,,,,,,,,7,0,7,0,11,0,11,0,,,,,,,,,,,,,,,,,,,,,,,,,,,,,,,289.7897872000003,289.7897872000003,p,0.041995000000497384,289.85699879999993,289.85699879999993,290.2564007000001,290.2564007000001,,,,,,,,,,,,,,,,,,,,,,,,,,,,,,,,,,1,001,2023-04-06_23h21.49.385,game,2022.2.5,60.03424353226601,
,,,,,,,,7,0,7,0,12,0,12,0,,,,,,,,,,,,,,,,,,,,,,,,,,,,,,,290.2564007000001,290.2564007000001,w,0.3640414999999848,290.64021180000054,290.64021180000054,291.04001470000003,291.04001470000003,,,,,,,,,,,,,,,,,,,,,,,,,,,,,,,,,,1,001,2023-04-06_23h21.49.385,game,2022.2.5,60.03424353226601,
,,,,,,,,7,0,7,0,13,0,13,0,,,,,,,,,,,,,,,,,,,,,,,,,,,,,,,291.04001470000003,291.04001470000003,w,0.18860979999953997,291.25721950000025,291.25721950000025,291.6566561999998,291.6566561999998,,,,,,,,,,,,,,,,,,,,,,,,,,,,,,,,,,1,001,2023-04-06_23h21.49.385,game,2022.2.5,60.03424353226601,
,,,,,,,,7,0,7,0,14,0,14,0,,,,,,,,,,,,,,,,,,,,,,,,,,,,,,,291.6566561999998,291.6566561999998,w,0.08092269999906421,291.75672010000017,291.75672010000017,292.15636859999995,292.15636859999995,,,,,,,,,,,,,,,,,,,,,,,,,,,,,,,,,,1,001,2023-04-06_23h21.49.385,game,2022.2.5,60.03424353226601,
,,,,,,,,7,0,7,0,15,0,15,0,,,,,,,,,,,,,,,,,,,,,,,,,,,,,,,292.15636859999995,292.15636859999995,w,0.12222849999943719,292.3066979000005,292.3066979000005,292.70671180000045,292.70671180000045,,,,,,,,,,,,,,,,,,,,,,,,,,,,,,,,,,1,001,2023-04-06_23h21.49.385,game,2022.2.5,60.03424353226601,
,,,,,,,,7,0,7,0,16,0,16,0,,,,,,,,,,,,,,,,,,,,,,,,,,,,,,,292.70671180000045,292.70671180000045,w,0.044744799999534735,292.77342880000015,292.77342880000015,293.1730598000004,293.1730598000004,,,,,,,,,,,,,,,,,,,,,,,,,,,,,,,,,,1,001,2023-04-06_23h21.49.385,game,2022.2.5,60.03424353226601,
,,,,,,,,7,0,7,0,17,0,17,0,,,,,,,,,,,,,,,,,,,,,,,,,,,,,,,293.1730598000004,293.1730598000004,w,0.05946769999991375,293.2569714000001,293.2569714000001,293.65679270000055,293.65679270000055,,,,,,,,,,,,,,,,,,,,,,,,,,,,,,,,,,1,001,2023-04-06_23h21.49.385,game,2022.2.5,60.03424353226601,
,,,,,,,,7,0,7,0,18,0,18,0,,,,,,,,,,,,,,,,,,,,,,,,,,,,,,,293.65679270000055,293.65679270000055,w,0.027291699999295815,293.70693290000054,293.70693290000054,294.1066141000001,294.1066141000001,,,,,,,,,,,,,,,,,,,,,,,,,,,,,,,,,,1,001,2023-04-06_23h21.49.385,game,2022.2.5,60.03424353226601,
,,,,,,,,7,0,7,0,19,0,19,0,,,,,,,,,,,,,,,,,,,,,,,,,,,,,,,294.1066141000001,294.1066141000001,w,0.12137840000013966,294.25678120000066,294.25678120000066,294.6666267999999,294.6666267999999,,,,,,,,,,,,,,,,,,,,,,,,,,,,,,,,,,1,001,2023-04-06_23h21.49.385,game,2022.2.5,60.03424353226601,
,,,,,,,,7,0,7,0,,,,,0,0,0,0,,,,,,,,,,,,,,,,,,,,,,,,,,,,,,,,,,,294.6666267999999,294.6666267999999,space,0.9437599999992017,,,,,297.0567374000002,297.0567374000002,None,,297.45933010000044,297.45933010000044,,,,,,,,,295.6401672000002,295.6401672000002,space,1.3939024999999674,297.45933010000044,297.45933010000044,,,,,,1,001,2023-04-06_23h21.49.385,game,2022.2.5,60.03424353226601,
,,,,,,,,7,0,7,0,,,,,1,0,1,0,,,,,,,,,,,,,,,,,,,,,,,,,,,,,,,,,,,,,,,,,,,297.87335580000035,297.87335580000035,q,0.1327233999991222,298.0523253000001,298.0523253000001,,,,,,,,,,,,,,,,,,,,1,001,2023-04-06_23h21.49.385,game,2022.2.5,60.03424353226601,
,,,,,,,,7,0,7,0,,,,,2,0,2,0,,,,,,,,,,,,,,,,,,,,,,,,,,,,,,,,,,,,,,,,,,,298.4399312000005,298.4399312000005,w,0.20172309999907156,298.7134550999999,298.7134550999999,,,,,,,,,,,,,,,,,,,,1,001,2023-04-06_23h21.49.385,game,2022.2.5,60.03424353226601,
,,,,,,,,7,0,7,0,,,,,3,0,3,0,,,,,,,,,,,,,,,,,,,,,,,,,,,,,,,,,,,,,,,,,,,299.0902108,299.0902108,o,0.33811989999958314,299.4921533000006,299.4921533000006,,,,,,,,,,,,,,,,,,,,1,001,2023-04-06_23h21.49.385,game,2022.2.5,60.03424353226601,
,,,,,,,,7,0,7,0,,,,,4,0,4,0,,,,,,,,,,,,,,,,,,,,,,,,,,,,,,,,,,,,,,,,,,,299.87335859999985,299.87335859999985,None,,300.2768008000003,300.2768008000003,,,,,,,,,,,,,,,,,,,,1,001,2023-04-06_23h21.49.385,game,2022.2.5,60.03424353226601,
,,,,,,,,7,0,7,0,,,,,5,0,5,0,,,,,,,,,,,,,,,,,,,,,,,,,,,,,,,,,,,,,,,,,,,300.67318930000056,300.67318930000056,o,0.0961710999999923,300.81873970000015,300.81873970000015,,,,,,,,,,,,,,,,,,,,1,001,2023-04-06_23h21.49.385,game,2022.2.5,60.03424353226601,
,,,,,,,,7,0,7,0,,,,,6,0,6,0,,,,,,,,,,,,,,,,,,,,,,,,,,,,,,,,,,,,,,,,,,,301.2064655000004,301.2064655000004,None,,301.60802520000016,301.60802520000016,,,,,,,,,,,,,,,,,,,,1,001,2023-04-06_23h21.49.385,game,2022.2.5,60.03424353226601,
,,,,,,,,7,0,7,0,,,,,7,0,7,0,,,,,,,,,,,,,,,,,,,,,,,,,,,,,,,,,,,,,,,,,,,302.0066391999999,302.0066391999999,o,0.08802649999961432,302.15427929999987,302.15427929999987,,,,,,,,,,,,,,,,,,,,1,001,2023-04-06_23h21.49.385,game,2022.2.5,60.03424353226601,
,,,,,,,,7,0,7,0,,,,,8,0,8,0,,,,,,,,,,,,,,,,,,,,,,,,,,,,,,,,,,,,,,,,,,,302.53996860000007,302.53996860000007,o,0.2544674999999188,302.85543490000055,302.85543490000055,,,,,,,,,,,,,,,,,,,,1,001,2023-04-06_23h21.49.385,game,2022.2.5,60.03424353226601,
,,,,,,,,7,0,7,0,,,,,9,0,9,0,,,,,,,,,,,,,,,,,,,,,,,,,,,,,,,,,,,,,,,,,,,303.24025020000045,303.24025020000045,o,0.14705599999979313,303.4360437000005,303.4360437000005,,,,,,,,,,,,,,,,,,,,1,001,2023-04-06_23h21.49.385,game,2022.2.5,60.03424353226601,
,,,,,,,,7,0,7,0,,,,,10,0,10,0,,,,,,,,,,,,,,,,,,,,,,,,,,,,,,,,,,,,,,,,,,,303.8234429000004,303.8234429000004,o,0.041823999999905936,303.9252299,303.9252299,,,,,,,,,,,,,,,,,,,,1,001,2023-04-06_23h21.49.385,game,2022.2.5,60.03424353226601,
,,,,,,,,7,0,7,0,,,,,11,0,11,0,,,,,,,,,,,,,,,,,,,,,,,,,,,,,,,,,,,,,,,,,,,304.30669620000026,304.30669620000026,o,0.005376500000238593,304.3588479,304.3588479,,,,,,,,,,,,,,,,,,,,1,001,2023-04-06_23h21.49.385,game,2022.2.5,60.03424353226601,
,,,,,,,,7,0,7,0,,,,,12,0,12,0,,,,,,,,,,,,,,,,,,,,,,,,,,,,,,,,,,,,,,,,,,,304.7564198,304.7564198,None,,305.15987380000024,305.15987380000024,,,,,,,,,,,,,,,,,,,,1,001,2023-04-06_23h21.49.385,game,2022.2.5,60.03424353226601,
,,,,,,,,7,0,7,0,,,,,13,0,13,0,,,,,,,,,,,,,,,,,,,,,,,,,,,,,,,,,,,,,,,,,,,305.55675710000014,305.55675710000014,o,0.141808299999866,305.7493037000004,305.7493037000004,,,,,,,,,,,,,,,,,,,,1,001,2023-04-06_23h21.49.385,game,2022.2.5,60.03424353226601,
,,,,,,,,7,0,7,0,,,,,14,0,14,0,,,,,,,,,,,,,,,,,,,,,,,,,,,,,,,,,,,,,,,,,,,306.13994580000053,306.13994580000053,o,0.34526740000001155,306.54005980000056,306.54005980000056,,,,,,,,,,,,,,,,,,,,1,001,2023-04-06_23h21.49.385,game,2022.2.5,60.03424353226601,
,,,,,,,,7,0,7,0,,,,,15,0,15,0,,,,,,,,,,,,,,,,,,,,,,,,,,,,,,,,,,,,,,,,,,,306.92353490000005,306.92353490000005,o,0.3297233999992386,307.3061406000006,307.3061406000006,,,,,,,,,,,,,,,,,,,,1,001,2023-04-06_23h21.49.385,game,2022.2.5,60.03424353226601,
,,,,,,,,7,0,7,0,,,,,16,0,16,0,,,,,,,,,,,,,,,,,,,,,,,,,,,,,,,,,,,,,,,,,,,307.6900822000007,307.6900822000007,o,0.04432189999897673,307.7833756,307.7833756,,,,,,,,,,,,,,,,,,,,1,001,2023-04-06_23h21.49.385,game,2022.2.5,60.03424353226601,
,,,,,,,,7,0,7,0,,,,,17,0,17,0,,,,,,,,,,,,,,,,,,,,,,,,,,,,,,,,,,,,,,,,,,,308.1733266000001,308.1733266000001,o,0.023935299999720883,308.25005899999996,308.25005899999996,,,,,,,,,,,,,,,,,,,,1,001,2023-04-06_23h21.49.385,game,2022.2.5,60.03424353226601,
,,,,,,,,7,0,7,0,,,,,18,0,18,0,,,,,,,,,,,,,,,,,,,,,,,,,,,,,,,,,,,,,,,,,,,308.6401022,308.6401022,o,0.03102729999955045,308.7207524000005,308.7207524000005,,,,,,,,,,,,,,,,,,,,1,001,2023-04-06_23h21.49.385,game,2022.2.5,60.03424353226601,
,,,,,,,,7,0,7,0,,,,,19,0,19,0,,,,,,,,,,,,,,,,,,,,,,,,,,,,,,,,,,,,,,,,,,,309.1070135,309.1070135,o,0.007474299999557843,309.17283510000016,309.17283510000016,,,,,,,,,,,,,,,,,,,,1,001,2023-04-06_23h21.49.385,game,2022.2.5,60.03424353226601,
,,,,,,,,7,0,7,0,,,,,,,,,,,,,,,,,,,,,,,,,,,,,,,,,,,,,,,,,,,309.56701410000005,309.56701410000005,space,1.9248696000004202,,,,,,,,,,,,,,,,,,,,,,,,,,,,,,1,001,2023-04-06_23h21.49.385,game,2022.2.5,60.03424353226601,
,,,,,,,,,,,,,,,,,,,,,,,,,,,,,,,,,,,,,,,,,,,,,,,,,,,,,,,,,,,,,,,,,,,,,,,,,,,,,,,,,,311.52873030000046,311.52873030000046,311.52873030000046,space,3.151361799999904,1,001,2023-04-06_23h21.49.385,game,2022.2.5,60.03424353226601,
