Round Number,Trial Number,Reaction Time,Choice,Reward,Time Condition,Payoff Condition,Q mapped,W mapped,O mapped,P mapped,One value,Two value,Three value,Four value,One mean,Two mean,Three mean,Four mean,Mean Shift,One shifted mean,Two shifted mean,Three shifted mean,Four shifted mean,One SD,Two SD,Three SD,Four SD
1,1,0.5474567000055686,w,65.0,Unlimited Time,h,48.82795737934828,65.0312913750342,78.56808097687448,57.48483094653699,48.82795737934828,65.0312913750342,78.56808097687448,57.48483094653699,-10,-0.33,0.33,10,60,50,59.67,60.33,70,10,10,10,10
1,2,0.6102779000066221,p,77.0,Unlimited Time,h,60.77126571379797,62.35875863893125,58.62582335342112,76.97326117957195,60.77126571379797,62.35875863893125,58.62582335342112,76.97326117957195,-10,-0.33,0.33,10,60,50,59.67,60.33,70,10,10,10,10
1,3,0.45047010004054755,o,73.4,Unlimited Time,h,39.063241868220935,54.19009491679192,73.44281101619532,71.90561514282052,39.063241868220935,54.19009491679192,73.44281101619532,71.90561514282052,-10,-0.33,0.33,10,60,50,59.67,60.33,70,10,10,10,10
1,4,0.329498200037051,q,57.8,Unlimited Time,h,57.75230643912487,62.29294008719422,59.83300683077001,100.54200235386337,57.75230643912487,62.29294008719422,59.83300683077001,100.54200235386337,-10,-0.33,0.33,10,60,50,59.67,60.33,70,10,10,10,10
1,5,0.47422840003855526,p,85.2,Unlimited Time,h,53.098687477292245,71.51197561066908,40.89869841341975,85.19615880404982,53.098687477292245,71.51197561066908,40.89869841341975,85.19615880404982,-10,-0.33,0.33,10,60,50,59.67,60.33,70,10,10,10,10
1,6,0.3258790000109002,o,45.2,Unlimited Time,h,46.68251177882756,71.04425794399933,45.20016013448963,65.39597300904678,46.68251177882756,71.04425794399933,45.20016013448963,65.39597300904678,-10,-0.33,0.33,10,60,50,59.67,60.33,70,10,10,10,10
1,7,0.22909229999640957,p,66.8,Unlimited Time,h,53.771456608572095,48.22272095968795,57.054800706527665,66.7885979259589,53.771456608572095,48.22272095968795,57.054800706527665,66.7885979259589,-10,-0.33,0.33,10,60,50,59.67,60.33,70,10,10,10,10
1,8,0.4700421000015922,w,73.5,Unlimited Time,h,74.874474586464,73.51063134255318,63.365370491814424,44.02094572725098,74.874474586464,73.51063134255318,63.365370491814424,44.02094572725098,-10,-0.33,0.33,10,60,50,59.67,60.33,70,10,10,10,10
1,9,0.18580390000715852,w,61.3,Unlimited Time,h,53.51158551698196,61.321809202464294,71.08890834477108,61.794884238675664,53.51158551698196,61.321809202464294,71.08890834477108,61.794884238675664,-10,-0.33,0.33,10,60,50,59.67,60.33,70,10,10,10,10
1,10,0.507959199952893,w,73.6,Unlimited Time,h,56.39593249697329,73.63042822360872,63.03043598386958,75.08525081262711,56.39593249697329,73.63042822360872,63.03043598386958,75.08525081262711,-10,-0.33,0.33,10,60,50,59.67,60.33,70,10,10,10,10
1,11,0.23643950000405312,q,44.3,Unlimited Time,h,44.34838670066981,41.33061819030132,34.925664741484574,63.94308123836215,44.34838670066981,41.33061819030132,34.925664741484574,63.94308123836215,-10,-0.33,0.33,10,60,50,59.67,60.33,70,10,10,10,10
1,12,0.2729928999906406,q,63.2,Unlimited Time,h,63.20661706589109,56.334594126594446,76.81087504113947,64.80120800715608,63.20661706589109,56.334594126594446,76.81087504113947,64.80120800715608,-10,-0.33,0.33,10,60,50,59.67,60.33,70,10,10,10,10
1,13,0.879135099996347,w,59.7,Unlimited Time,h,44.26782126351531,59.698370533406184,59.01339463147587,68.92871170125632,44.26782126351531,59.698370533406184,59.01339463147587,68.92871170125632,-10,-0.33,0.33,10,60,50,59.67,60.33,70,10,10,10,10
1,14,0.31489049998344854,w,44.3,Unlimited Time,h,53.12007945211185,44.25691580206753,81.62275422721765,69.31643571479574,53.12007945211185,44.25691580206753,81.62275422721765,69.31643571479574,-10,-0.33,0.33,10,60,50,59.67,60.33,70,10,10,10,10
1,15,0.28932610002812,q,53.3,Unlimited Time,h,53.309016574983275,60.153369095430584,68.32002476975012,85.10580297276124,53.309016574983275,60.153369095430584,68.32002476975012,85.10580297276124,-10,-0.33,0.33,10,60,50,59.67,60.33,70,10,10,10,10
1,16,0.22490689996629953,q,48.1,Unlimited Time,h,48.07779650826004,73.12257127030023,62.240983637921886,69.82967507132453,48.07779650826004,73.12257127030023,62.240983637921886,69.82967507132453,-10,-0.33,0.33,10,60,50,59.67,60.33,70,10,10,10,10
1,17,0.5245583000360057,w,60.4,Unlimited Time,h,47.67483703553391,60.44297095142958,64.62009523660198,85.37574485120318,47.67483703553391,60.44297095142958,64.62009523660198,85.37574485120318,-10,-0.33,0.33,10,60,50,59.67,60.33,70,10,10,10,10
1,18,0.37141770002199337,q,41.3,Unlimited Time,h,41.29050643528074,54.37791631549225,73.75728205271912,71.55959093298762,41.29050643528074,54.37791631549225,73.75728205271912,71.55959093298762,-10,-0.33,0.33,10,60,50,59.67,60.33,70,10,10,10,10
1,19,0.2963693999918178,w,46.9,Unlimited Time,h,39.27850478877968,46.92480083252048,48.174504599409275,67.06295120049018,39.27850478877968,46.92480083252048,48.174504599409275,67.06295120049018,-10,-0.33,0.33,10,60,50,59.67,60.33,70,10,10,10,10
1,20,0.21621099999174476,w,64.7,Unlimited Time,h,69.30733432167821,64.71017512765182,52.703833007187754,64.33684723125889,69.30733432167821,64.71017512765182,52.703833007187754,64.33684723125889,-10,-0.33,0.33,10,60,50,59.67,60.33,70,10,10,10,10
2,1,,,0.0,Limited Time,e,63.23350627511572,59.51030684475901,58.113572250112895,71.58583582801225,63.23350627511572,58.113572250112895,59.51030684475901,71.58583582801225,0,0,0,0,60,60,60,60,60,3.1622776601683795,6.324555320336759,8.366600265340756,10
2,2,,,0.0,Limited Time,e,60.81609338572447,52.21630055230992,61.480161324670426,59.805067053495144,60.81609338572447,61.480161324670426,52.21630055230992,59.805067053495144,0,0,0,0,60,60,60,60,60,3.1622776601683795,6.324555320336759,8.366600265340756,10
2,3,,,0.0,Limited Time,e,54.57528188784279,42.49913707526157,60.76535478607528,57.99822754305945,54.57528188784279,60.76535478607528,42.49913707526157,57.99822754305945,0,0,0,0,60,60,60,60,60,3.1622776601683795,6.324555320336759,8.366600265340756,10
2,4,0.36491609999211505,o,59.6,Limited Time,e,60.410265937823745,61.175021135285526,59.56880580233472,73.3889721369384,60.410265937823745,59.56880580233472,61.175021135285526,73.3889721369384,0,0,0,0,60,60,60,60,60,3.1622776601683795,6.324555320336759,8.366600265340756,10
2,5,0.18005030002677813,o,61.6,Limited Time,e,63.236155814113125,63.629135115546426,61.5519774254853,54.222609039117344,63.236155814113125,61.5519774254853,63.629135115546426,54.222609039117344,0,0,0,0,60,60,60,60,60,3.1622776601683795,6.324555320336759,8.366600265340756,10
2,6,0.07077589997788891,o,71.5,Limited Time,e,57.95393329746281,62.172036723822266,71.4603722166862,54.54933949629728,57.95393329746281,71.4603722166862,62.172036723822266,54.54933949629728,0,0,0,0,60,60,60,60,60,3.1622776601683795,6.324555320336759,8.366600265340756,10
2,7,0.11283569998340681,o,71.2,Limited Time,e,56.015629597033474,42.295043270954764,71.24207050974293,46.50787741750888,56.015629597033474,71.24207050974293,42.295043270954764,46.50787741750888,0,0,0,0,60,60,60,60,60,3.1622776601683795,6.324555320336759,8.366600265340756,10
2,8,0.10202060005394742,o,55.8,Limited Time,e,57.9311172288955,38.25226593997431,55.757637176529926,60.483688964858096,57.9311172288955,55.757637176529926,38.25226593997431,60.483688964858096,0,0,0,0,60,60,60,60,60,3.1622776601683795,6.324555320336759,8.366600265340756,10
2,9,0.11167109996313229,o,70.3,Limited Time,e,57.06760128702883,64.28206427871898,70.31367144736441,62.80410183381821,57.06760128702883,70.31367144736441,64.28206427871898,62.80410183381821,0,0,0,0,60,60,60,60,60,3.1622776601683795,6.324555320336759,8.366600265340756,10
2,10,0.10409229999640957,o,67.9,Limited Time,e,61.63100657167075,58.94372456072101,67.94283877722974,62.46393260606228,61.63100657167075,67.94283877722974,58.94372456072101,62.46393260606228,0,0,0,0,60,60,60,60,60,3.1622776601683795,6.324555320336759,8.366600265340756,10
2,11,0.08318130002589896,o,65.6,Limited Time,e,62.199458294861806,51.25583900975126,65.64566046983724,62.61989125857298,62.199458294861806,65.64566046983724,51.25583900975126,62.61989125857298,0,0,0,0,60,60,60,60,60,3.1622776601683795,6.324555320336759,8.366600265340756,10
2,12,0.1339284999994561,o,64.4,Limited Time,e,58.9164555147583,63.02394754523122,64.38157096035559,41.64768879832657,58.9164555147583,64.38157096035559,63.02394754523122,41.64768879832657,0,0,0,0,60,60,60,60,60,3.1622776601683795,6.324555320336759,8.366600265340756,10
2,13,0.09448949998477474,o,59.9,Limited Time,e,59.508342193919596,66.00922652589905,59.89075070936315,52.884851230210764,59.508342193919596,59.89075070936315,66.00922652589905,52.884851230210764,0,0,0,0,60,60,60,60,60,3.1622776601683795,6.324555320336759,8.366600265340756,10
2,14,0.10332549997838214,o,62.2,Limited Time,e,60.89632378101804,59.21386704272301,62.24035264538183,79.702568053902,60.89632378101804,62.24035264538183,59.21386704272301,79.702568053902,0,0,0,0,60,60,60,60,60,3.1622776601683795,6.324555320336759,8.366600265340756,10
2,15,0.1135088000446558,o,51.6,Limited Time,e,54.71565755979985,46.62322837792577,51.60715941858331,51.251169780398314,54.71565755979985,51.60715941858331,46.62322837792577,51.251169780398314,0,0,0,0,60,60,60,60,60,3.1622776601683795,6.324555320336759,8.366600265340756,10
2,16,0.09604209999088198,o,65.1,Limited Time,e,57.434318378639496,73.39818323818926,65.07738857538983,75.82302532030157,57.434318378639496,65.07738857538983,73.39818323818926,75.82302532030157,0,0,0,0,60,60,60,60,60,3.1622776601683795,6.324555320336759,8.366600265340756,10
2,17,0.13608610001392663,o,62.2,Limited Time,e,57.79915701132382,67.3078975745673,62.237817283167175,56.46000563413405,57.79915701132382,62.237817283167175,67.3078975745673,56.46000563413405,0,0,0,0,60,60,60,60,60,3.1622776601683795,6.324555320336759,8.366600265340756,10
2,18,0.1620874999789521,o,47.7,Limited Time,e,62.36590741706872,60.730221581269014,47.6833446311449,48.813817416967524,62.36590741706872,47.6833446311449,60.730221581269014,48.813817416967524,0,0,0,0,60,60,60,60,60,3.1622776601683795,6.324555320336759,8.366600265340756,10
2,19,0.17221640003845096,o,53.0,Limited Time,e,63.730328772181025,64.77902340135397,52.994512729231126,73.4521862475975,63.730328772181025,52.994512729231126,64.77902340135397,73.4521862475975,0,0,0,0,60,60,60,60,60,3.1622776601683795,6.324555320336759,8.366600265340756,10
2,20,0.11475250002695248,o,69.9,Limited Time,e,59.73239925467681,57.12903288949741,69.89329329982148,74.45506487613662,59.73239925467681,69.89329329982148,57.12903288949741,74.45506487613662,0,0,0,0,60,60,60,60,60,3.1622776601683795,6.324555320336759,8.366600265340756,10
3,1,0.3381697000004351,o,58.1,Unlimited Time,e,63.23350627511572,71.58583582801225,58.113572250112895,59.51030684475901,63.23350627511572,58.113572250112895,59.51030684475901,71.58583582801225,0,0,0,0,60,60,60,60,60,3.1622776601683795,6.324555320336759,8.366600265340756,10
3,2,0.002644799998961389,o,61.5,Unlimited Time,e,60.81609338572447,59.805067053495144,61.480161324670426,52.21630055230992,60.81609338572447,61.480161324670426,52.21630055230992,59.805067053495144,0,0,0,0,60,60,60,60,60,3.1622776601683795,6.324555320336759,8.366600265340756,10
3,3,0.0368904999922961,o,60.8,Unlimited Time,e,54.57528188784279,57.99822754305945,60.76535478607528,42.49913707526157,54.57528188784279,60.76535478607528,42.49913707526157,57.99822754305945,0,0,0,0,60,60,60,60,60,3.1622776601683795,6.324555320336759,8.366600265340756,10
3,4,0.09176549996482208,w,73.4,Unlimited Time,e,60.410265937823745,73.3889721369384,59.56880580233472,61.175021135285526,60.410265937823745,59.56880580233472,61.175021135285526,73.3889721369384,0,0,0,0,60,60,60,60,60,3.1622776601683795,6.324555320336759,8.366600265340756,10
3,5,0.08287079998990521,p,63.6,Unlimited Time,e,63.236155814113125,54.222609039117344,61.5519774254853,63.629135115546426,63.236155814113125,61.5519774254853,63.629135115546426,54.222609039117344,0,0,0,0,60,60,60,60,60,3.1622776601683795,6.324555320336759,8.366600265340756,10
3,6,0.015614999982062727,q,58.0,Unlimited Time,e,57.95393329746281,54.54933949629728,71.4603722166862,62.172036723822266,57.95393329746281,71.4603722166862,62.172036723822266,54.54933949629728,0,0,0,0,60,60,60,60,60,3.1622776601683795,6.324555320336759,8.366600265340756,10
3,7,0.04586180002661422,o,71.2,Unlimited Time,e,56.015629597033474,46.50787741750888,71.24207050974293,42.295043270954764,56.015629597033474,71.24207050974293,42.295043270954764,46.50787741750888,0,0,0,0,60,60,60,60,60,3.1622776601683795,6.324555320336759,8.366600265340756,10
3,8,0.06968329998198897,q,57.9,Unlimited Time,e,57.9311172288955,60.483688964858096,55.757637176529926,38.25226593997431,57.9311172288955,55.757637176529926,38.25226593997431,60.483688964858096,0,0,0,0,60,60,60,60,60,3.1622776601683795,6.324555320336759,8.366600265340756,10
3,9,0.01844159996835515,q,57.1,Unlimited Time,e,57.06760128702883,62.80410183381821,70.31367144736441,64.28206427871898,57.06760128702883,70.31367144736441,64.28206427871898,62.80410183381821,0,0,0,0,60,60,60,60,60,3.1622776601683795,6.324555320336759,8.366600265340756,10
3,10,0.0032691999804228544,o,67.9,Unlimited Time,e,61.63100657167075,62.46393260606228,67.94283877722974,58.94372456072101,61.63100657167075,67.94283877722974,58.94372456072101,62.46393260606228,0,0,0,0,60,60,60,60,60,3.1622776601683795,6.324555320336759,8.366600265340756,10
3,11,0.07993559999158606,p,51.3,Unlimited Time,e,62.199458294861806,62.61989125857298,65.64566046983724,51.25583900975126,62.199458294861806,65.64566046983724,51.25583900975126,62.61989125857298,0,0,0,0,60,60,60,60,60,3.1622776601683795,6.324555320336759,8.366600265340756,10
3,12,0.028145199990831316,q,58.9,Unlimited Time,e,58.9164555147583,41.64768879832657,64.38157096035559,63.02394754523122,58.9164555147583,64.38157096035559,63.02394754523122,41.64768879832657,0,0,0,0,60,60,60,60,60,3.1622776601683795,6.324555320336759,8.366600265340756,10
3,13,0.1291723000467755,q,59.5,Unlimited Time,e,59.508342193919596,52.884851230210764,59.89075070936315,66.00922652589905,59.508342193919596,59.89075070936315,66.00922652589905,52.884851230210764,0,0,0,0,60,60,60,60,60,3.1622776601683795,6.324555320336759,8.366600265340756,10
3,14,0.0005985000170767307,q,60.9,Unlimited Time,e,60.89632378101804,79.702568053902,62.24035264538183,59.21386704272301,60.89632378101804,62.24035264538183,59.21386704272301,79.702568053902,0,0,0,0,60,60,60,60,60,3.1622776601683795,6.324555320336759,8.366600265340756,10
3,15,0.06112480000592768,o,51.6,Unlimited Time,e,54.71565755979985,51.251169780398314,51.60715941858331,46.62322837792577,54.71565755979985,51.60715941858331,46.62322837792577,51.251169780398314,0,0,0,0,60,60,60,60,60,3.1622776601683795,6.324555320336759,8.366600265340756,10
3,16,0.0016483000363223255,w,75.8,Unlimited Time,e,57.434318378639496,75.82302532030157,65.07738857538983,73.39818323818926,57.434318378639496,65.07738857538983,73.39818323818926,75.82302532030157,0,0,0,0,60,60,60,60,60,3.1622776601683795,6.324555320336759,8.366600265340756,10
3,17,0.1033255000365898,p,67.3,Unlimited Time,e,57.79915701132382,56.46000563413405,62.237817283167175,67.3078975745673,57.79915701132382,62.237817283167175,67.3078975745673,56.46000563413405,0,0,0,0,60,60,60,60,60,3.1622776601683795,6.324555320336759,8.366600265340756,10
3,18,0.06384189997334033,o,47.7,Unlimited Time,e,62.36590741706872,48.813817416967524,47.6833446311449,60.730221581269014,62.36590741706872,47.6833446311449,60.730221581269014,48.813817416967524,0,0,0,0,60,60,60,60,60,3.1622776601683795,6.324555320336759,8.366600265340756,10
3,19,0.021013199992012233,o,53.0,Unlimited Time,e,63.730328772181025,73.4521862475975,52.994512729231126,64.77902340135397,63.730328772181025,52.994512729231126,64.77902340135397,73.4521862475975,0,0,0,0,60,60,60,60,60,3.1622776601683795,6.324555320336759,8.366600265340756,10
3,20,0.04067899996880442,o,69.9,Unlimited Time,e,59.73239925467681,74.45506487613662,69.89329329982148,57.12903288949741,59.73239925467681,69.89329329982148,57.12903288949741,74.45506487613662,0,0,0,0,60,60,60,60,60,3.1622776601683795,6.324555320336759,8.366600265340756,10
4,1,0.2264697000500746,o,51.4,Limited Time,l,50.57406600786678,57.020164451128416,51.39035030624247,66.97395169214724,50.57406600786678,57.020164451128416,51.39035030624247,66.97395169214724,-10,-0.33,0.33,10,60,50,59.67,60.33,70,3.1622776601683795,3.1622776601683795,3.1622776601683795,3.1622776601683795
4,2,0.16832210001302883,o,61.6,Limited Time,l,49.546755072999645,61.88366845883548,61.625989442555834,67.91673098154098,49.546755072999645,61.88366845883548,61.625989442555834,67.91673098154098,-10,-0.33,0.33,10,60,50,59.67,60.33,70,3.1622776601683795,3.1622776601683795,3.1622776601683795,3.1622776601683795
4,3,0.15457319997949526,p,70.1,Limited Time,l,54.50366372947158,61.69422529374772,59.41560476056119,70.14825071547502,54.50366372947158,61.69422529374772,59.41560476056119,70.14825071547502,-10,-0.33,0.33,10,60,50,59.67,60.33,70,3.1622776601683795,3.1622776601683795,3.1622776601683795,3.1622776601683795
4,4,0.018679200031328946,o,62.0,Limited Time,l,49.3606997983136,63.40612253629473,61.965921069582954,66.38957291264462,49.3606997983136,63.40612253629473,61.965921069582954,66.38957291264462,-10,-0.33,0.33,10,60,50,59.67,60.33,70,3.1622776601683795,3.1622776601683795,3.1622776601683795,3.1622776601683795
4,5,0.11327530001290143,p,71.2,Limited Time,l,49.16090953103728,56.537854566274376,59.503130374148114,71.16126663773832,49.16090953103728,56.537854566274376,59.503130374148114,71.16126663773832,-10,-0.33,0.33,10,60,50,59.67,60.33,70,3.1622776601683795,3.1622776601683795,3.1622776601683795,3.1622776601683795
4,6,0.023106699984055012,o,57.3,Limited Time,l,55.64637932157682,63.49538359063416,57.332227549262825,72.73420136988639,55.64637932157682,63.49538359063416,57.332227549262825,72.73420136988639,-10,-0.33,0.33,10,60,50,59.67,60.33,70,3.1622776601683795,3.1622776601683795,3.1622776601683795,3.1622776601683795
4,7,0.05793640000047162,p,69.6,Limited Time,l,50.76446325293198,54.627460665753134,61.7976422860952,69.61072849712868,50.76446325293198,54.627460665753134,61.7976422860952,69.61072849712868,-10,-0.33,0.33,10,60,50,59.67,60.33,70,3.1622776601683795,3.1622776601683795,3.1622776601683795,3.1622776601683795
4,8,0.162170400028117,p,70.6,Limited Time,l,50.65014817694421,65.04515979370608,55.661631562540265,70.59170204077105,50.65014817694421,65.04515979370608,55.661631562540265,70.59170204077105,-10,-0.33,0.33,10,60,50,59.67,60.33,70,3.1622776601683795,3.1622776601683795,3.1622776601683795,3.1622776601683795
4,9,0.12273820000700653,p,66.5,Limited Time,l,48.45075297502399,56.37997745638928,61.3981534545631,66.50332483238036,48.45075297502399,56.37997745638928,61.3981534545631,66.50332483238036,-10,-0.33,0.33,10,60,50,59.67,60.33,70,3.1622776601683795,3.1622776601683795,3.1622776601683795,3.1622776601683795
4,10,0.13478979998035356,p,72.7,Limited Time,l,49.87125436919649,56.64937538084581,61.18271778218126,72.71258990739612,49.87125436919649,56.64937538084581,61.18271778218126,72.71258990739612,-10,-0.33,0.33,10,60,50,59.67,60.33,70,3.1622776601683795,3.1622776601683795,3.1622776601683795,3.1622776601683795
4,11,0.06854319997364655,p,72.8,Limited Time,l,52.01292988958051,60.399542998917035,62.05589733793445,72.80868335082886,52.01292988958051,60.399542998917035,62.05589733793445,72.80868335082886,-10,-0.33,0.33,10,60,50,59.67,60.33,70,3.1622776601683795,3.1622776601683795,3.1622776601683795,3.1622776601683795
4,12,0.046017999993637204,p,71.5,Limited Time,l,52.25875777438841,62.60594720669024,65.77490493452339,71.51476655989696,52.25875777438841,62.60594720669024,65.77490493452339,71.51476655989696,-10,-0.33,0.33,10,60,50,59.67,60.33,70,3.1622776601683795,3.1622776601683795,3.1622776601683795,3.1622776601683795
4,13,0.06428929994581267,p,73.3,Limited Time,l,46.778748900590855,57.72640388177401,60.86103759858211,73.2876228869699,46.778748900590855,57.72640388177401,60.86103759858211,73.2876228869699,-10,-0.33,0.33,10,60,50,59.67,60.33,70,3.1622776601683795,3.1622776601683795,3.1622776601683795,3.1622776601683795
4,14,0.06739310000557452,p,69.9,Limited Time,l,52.0564181110007,56.6002114082501,60.92675549004016,69.9375936562542,52.0564181110007,56.6002114082501,60.92675549004016,69.9375936562542,-10,-0.33,0.33,10,60,50,59.67,60.33,70,3.1622776601683795,3.1622776601683795,3.1622776601683795,3.1622776601683795
4,15,0.09383859997615218,p,71.8,Limited Time,l,45.66697794602557,61.373097569011776,64.06715961772393,71.83932022055504,45.66697794602557,61.373097569011776,64.06715961772393,71.83932022055504,-10,-0.33,0.33,10,60,50,59.67,60.33,70,3.1622776601683795,3.1622776601683795,3.1622776601683795,3.1622776601683795
4,16,0.12922239996260032,p,69.8,Limited Time,l,52.87238447292374,61.191093732614455,61.318514784799234,69.83859435019595,52.87238447292374,61.191093732614455,61.318514784799234,69.83859435019595,-10,-0.33,0.33,10,60,50,59.67,60.33,70,3.1622776601683795,3.1622776601683795,3.1622776601683795,3.1622776601683795
4,17,0.146004099980928,p,63.2,Limited Time,l,48.0185869596209,60.12098834107076,58.34042366827891,63.19666518611888,48.0185869596209,60.12098834107076,58.34042366827891,63.19666518611888,-10,-0.33,0.33,10,60,50,59.67,60.33,70,3.1622776601683795,3.1622776601683795,3.1622776601683795,3.1622776601683795
4,18,0.07323189999442548,p,74.3,Limited Time,l,53.444425844546515,62.613284507299255,63.51575212645903,74.28640706157242,53.444425844546515,62.613284507299255,63.51575212645903,74.28640706157242,-10,-0.33,0.33,10,60,50,59.67,60.33,70,3.1622776601683795,3.1622776601683795,3.1622776601683795,3.1622776601683795
4,19,0.006487600039690733,o,58.0,Limited Time,l,49.09988299083425,57.08317330887385,57.99944260775853,69.28572860135652,49.09988299083425,57.08317330887385,57.99944260775853,69.28572860135652,-10,-0.33,0.33,10,60,50,59.67,60.33,70,3.1622776601683795,3.1622776601683795,3.1622776601683795,3.1622776601683795
4,20,0.013902199978474528,p,65.2,Limited Time,l,53.328108914987,61.01212053685551,63.79910805400748,65.19461165674161,53.328108914987,61.01212053685551,63.79910805400748,65.19461165674161,-10,-0.33,0.33,10,60,50,59.67,60.33,70,3.1622776601683795,3.1622776601683795,3.1622776601683795,3.1622776601683795
5,1,0.28533029998652637,p,63.2,Unlimited Time,e,71.58583582801225,58.113572250112895,59.51030684475901,63.23350627511572,63.23350627511572,58.113572250112895,59.51030684475901,71.58583582801225,0,0,0,0,60,60,60,60,60,3.1622776601683795,6.324555320336759,8.366600265340756,10
5,2,0.028902299993205816,o,52.2,Unlimited Time,e,59.805067053495144,61.480161324670426,52.21630055230992,60.81609338572447,60.81609338572447,61.480161324670426,52.21630055230992,59.805067053495144,0,0,0,0,60,60,60,60,60,3.1622776601683795,6.324555320336759,8.366600265340756,10
5,3,0.09787140000844374,o,42.5,Unlimited Time,e,57.99822754305945,60.76535478607528,42.49913707526157,54.57528188784279,54.57528188784279,60.76535478607528,42.49913707526157,57.99822754305945,0,0,0,0,60,60,60,60,60,3.1622776601683795,6.324555320336759,8.366600265340756,10
5,4,0.05588170001283288,p,60.4,Unlimited Time,e,73.3889721369384,59.56880580233472,61.175021135285526,60.410265937823745,60.410265937823745,59.56880580233472,61.175021135285526,73.3889721369384,0,0,0,0,60,60,60,60,60,3.1622776601683795,6.324555320336759,8.366600265340756,10
5,5,0.14335689996369183,o,63.6,Unlimited Time,e,54.222609039117344,61.5519774254853,63.629135115546426,63.236155814113125,63.236155814113125,61.5519774254853,63.629135115546426,54.222609039117344,0,0,0,0,60,60,60,60,60,3.1622776601683795,6.324555320336759,8.366600265340756,10
5,6,0.08120170002803206,o,62.2,Unlimited Time,e,54.54933949629728,71.4603722166862,62.172036723822266,57.95393329746281,57.95393329746281,71.4603722166862,62.172036723822266,54.54933949629728,0,0,0,0,60,60,60,60,60,3.1622776601683795,6.324555320336759,8.366600265340756,10
5,7,0.09056080004666,p,56.0,Unlimited Time,e,46.50787741750888,71.24207050974293,42.295043270954764,56.015629597033474,56.015629597033474,71.24207050974293,42.295043270954764,46.50787741750888,0,0,0,0,60,60,60,60,60,3.1622776601683795,6.324555320336759,8.366600265340756,10
5,8,0.15984630002640188,p,57.9,Unlimited Time,e,60.483688964858096,55.757637176529926,38.25226593997431,57.9311172288955,57.9311172288955,55.757637176529926,38.25226593997431,60.483688964858096,0,0,0,0,60,60,60,60,60,3.1622776601683795,6.324555320336759,8.366600265340756,10
5,9,0.09600889997091144,p,57.1,Unlimited Time,e,62.80410183381821,70.31367144736441,64.28206427871898,57.06760128702883,57.06760128702883,70.31367144736441,64.28206427871898,62.80410183381821,0,0,0,0,60,60,60,60,60,3.1622776601683795,6.324555320336759,8.366600265340756,10
5,10,0.024988199991639704,o,58.9,Unlimited Time,e,62.46393260606228,67.94283877722974,58.94372456072101,61.63100657167075,61.63100657167075,67.94283877722974,58.94372456072101,62.46393260606228,0,0,0,0,60,60,60,60,60,3.1622776601683795,6.324555320336759,8.366600265340756,10
5,11,0.06775069999275729,p,62.2,Unlimited Time,e,62.61989125857298,65.64566046983724,51.25583900975126,62.199458294861806,62.199458294861806,65.64566046983724,51.25583900975126,62.61989125857298,0,0,0,0,60,60,60,60,60,3.1622776601683795,6.324555320336759,8.366600265340756,10
5,12,0.11757569998735562,o,63.0,Unlimited Time,e,41.64768879832657,64.38157096035559,63.02394754523122,58.9164555147583,58.9164555147583,64.38157096035559,63.02394754523122,41.64768879832657,0,0,0,0,60,60,60,60,60,3.1622776601683795,6.324555320336759,8.366600265340756,10
5,13,0.11616989999311045,p,59.5,Unlimited Time,e,52.884851230210764,59.89075070936315,66.00922652589905,59.508342193919596,59.508342193919596,59.89075070936315,66.00922652589905,52.884851230210764,0,0,0,0,60,60,60,60,60,3.1622776601683795,6.324555320336759,8.366600265340756,10
5,14,0.019332600000780076,o,59.2,Unlimited Time,e,79.702568053902,62.24035264538183,59.21386704272301,60.89632378101804,60.89632378101804,62.24035264538183,59.21386704272301,79.702568053902,0,0,0,0,60,60,60,60,60,3.1622776601683795,6.324555320336759,8.366600265340756,10
5,15,0.17270259995711967,p,54.7,Unlimited Time,e,51.251169780398314,51.60715941858331,46.62322837792577,54.71565755979985,54.71565755979985,51.60715941858331,46.62322837792577,51.251169780398314,0,0,0,0,60,60,60,60,60,3.1622776601683795,6.324555320336759,8.366600265340756,10
5,16,0.010677599988412112,o,73.4,Unlimited Time,e,75.82302532030157,65.07738857538983,73.39818323818926,57.434318378639496,57.434318378639496,65.07738857538983,73.39818323818926,75.82302532030157,0,0,0,0,60,60,60,60,60,3.1622776601683795,6.324555320336759,8.366600265340756,10
5,17,0.056020300020463765,p,57.8,Unlimited Time,e,56.46000563413405,62.237817283167175,67.3078975745673,57.79915701132382,57.79915701132382,62.237817283167175,67.3078975745673,56.46000563413405,0,0,0,0,60,60,60,60,60,3.1622776601683795,6.324555320336759,8.366600265340756,10
5,18,0.031620999972801656,o,60.7,Unlimited Time,e,48.813817416967524,47.6833446311449,60.730221581269014,62.36590741706872,62.36590741706872,47.6833446311449,60.730221581269014,48.813817416967524,0,0,0,0,60,60,60,60,60,3.1622776601683795,6.324555320336759,8.366600265340756,10
5,19,0.08181590004824102,p,63.7,Unlimited Time,e,73.4521862475975,52.994512729231126,64.77902340135397,63.730328772181025,63.730328772181025,52.994512729231126,64.77902340135397,73.4521862475975,0,0,0,0,60,60,60,60,60,3.1622776601683795,6.324555320336759,8.366600265340756,10
5,20,0.03374599997187033,o,57.1,Unlimited Time,e,74.45506487613662,69.89329329982148,57.12903288949741,59.73239925467681,59.73239925467681,69.89329329982148,57.12903288949741,74.45506487613662,0,0,0,0,60,60,60,60,60,3.1622776601683795,6.324555320336759,8.366600265340756,10
6,1,,,0.0,Limited Time,e,58.113572250112895,59.51030684475901,63.23350627511572,71.58583582801225,63.23350627511572,58.113572250112895,59.51030684475901,71.58583582801225,0,0,0,0,60,60,60,60,60,3.1622776601683795,6.324555320336759,8.366600265340756,10
6,2,0.32151239999802783,w,52.2,Limited Time,e,61.480161324670426,52.21630055230992,60.81609338572447,59.805067053495144,60.81609338572447,61.480161324670426,52.21630055230992,59.805067053495144,0,0,0,0,60,60,60,60,60,3.1622776601683795,6.324555320336759,8.366600265340756,10
6,3,0.0842246999964118,w,42.5,Limited Time,e,60.76535478607528,42.49913707526157,54.57528188784279,57.99822754305945,54.57528188784279,60.76535478607528,42.49913707526157,57.99822754305945,0,0,0,0,60,60,60,60,60,3.1622776601683795,6.324555320336759,8.366600265340756,10
6,4,0.2953968999790959,w,61.2,Limited Time,e,59.56880580233472,61.175021135285526,60.410265937823745,73.3889721369384,60.410265937823745,59.56880580233472,61.175021135285526,73.3889721369384,0,0,0,0,60,60,60,60,60,3.1622776601683795,6.324555320336759,8.366600265340756,10
6,5,0.0897032999782823,p,54.2,Limited Time,e,61.5519774254853,63.629135115546426,63.236155814113125,54.222609039117344,63.236155814113125,61.5519774254853,63.629135115546426,54.222609039117344,0,0,0,0,60,60,60,60,60,3.1622776601683795,6.324555320336759,8.366600265340756,10
6,6,0.008594000013545156,p,54.5,Limited Time,e,71.4603722166862,62.172036723822266,57.95393329746281,54.54933949629728,57.95393329746281,71.4603722166862,62.172036723822266,54.54933949629728,0,0,0,0,60,60,60,60,60,3.1622776601683795,6.324555320336759,8.366600265340756,10
6,7,0.04295149998506531,o,56.0,Limited Time,e,71.24207050974293,42.295043270954764,56.015629597033474,46.50787741750888,56.015629597033474,71.24207050974293,42.295043270954764,46.50787741750888,0,0,0,0,60,60,60,60,60,3.1622776601683795,6.324555320336759,8.366600265340756,10
6,8,0.097653100034222,q,55.8,Limited Time,e,55.757637176529926,38.25226593997431,57.9311172288955,60.483688964858096,57.9311172288955,55.757637176529926,38.25226593997431,60.483688964858096,0,0,0,0,60,60,60,60,60,3.1622776601683795,6.324555320336759,8.366600265340756,10
6,9,0.02721400000154972,p,62.8,Limited Time,e,70.31367144736441,64.28206427871898,57.06760128702883,62.80410183381821,57.06760128702883,70.31367144736441,64.28206427871898,62.80410183381821,0,0,0,0,60,60,60,60,60,3.1622776601683795,6.324555320336759,8.366600265340756,10
6,10,0.011740699992515147,p,62.5,Limited Time,e,67.94283877722974,58.94372456072101,61.63100657167075,62.46393260606228,61.63100657167075,67.94283877722974,58.94372456072101,62.46393260606228,0,0,0,0,60,60,60,60,60,3.1622776601683795,6.324555320336759,8.366600265340756,10
6,11,0.05461809999542311,p,62.6,Limited Time,e,65.64566046983724,51.25583900975126,62.199458294861806,62.61989125857298,62.199458294861806,65.64566046983724,51.25583900975126,62.61989125857298,0,0,0,0,60,60,60,60,60,3.1622776601683795,6.324555320336759,8.366600265340756,10
6,12,0.01717040000949055,p,41.6,Limited Time,e,64.38157096035559,63.02394754523122,58.9164555147583,41.64768879832657,58.9164555147583,64.38157096035559,63.02394754523122,41.64768879832657,0,0,0,0,60,60,60,60,60,3.1622776601683795,6.324555320336759,8.366600265340756,10
6,13,0.07421339995926246,q,59.9,Limited Time,e,59.89075070936315,66.00922652589905,59.508342193919596,52.884851230210764,59.508342193919596,59.89075070936315,66.00922652589905,52.884851230210764,0,0,0,0,60,60,60,60,60,3.1622776601683795,6.324555320336759,8.366600265340756,10
6,14,0.06964269996387884,w,59.2,Limited Time,e,62.24035264538183,59.21386704272301,60.89632378101804,79.702568053902,60.89632378101804,62.24035264538183,59.21386704272301,79.702568053902,0,0,0,0,60,60,60,60,60,3.1622776601683795,6.324555320336759,8.366600265340756,10
6,15,0.06607690005330369,w,46.6,Limited Time,e,51.60715941858331,46.62322837792577,54.71565755979985,51.251169780398314,54.71565755979985,51.60715941858331,46.62322837792577,51.251169780398314,0,0,0,0,60,60,60,60,60,3.1622776601683795,6.324555320336759,8.366600265340756,10
6,16,0.06226139998761937,o,57.4,Limited Time,e,65.07738857538983,73.39818323818926,57.434318378639496,75.82302532030157,57.434318378639496,65.07738857538983,73.39818323818926,75.82302532030157,0,0,0,0,60,60,60,60,60,3.1622776601683795,6.324555320336759,8.366600265340756,10
6,17,0.022891699976753443,o,57.8,Limited Time,e,62.237817283167175,67.3078975745673,57.79915701132382,56.46000563413405,57.79915701132382,62.237817283167175,67.3078975745673,56.46000563413405,0,0,0,0,60,60,60,60,60,3.1622776601683795,6.324555320336759,8.366600265340756,10
6,18,0.047533800010569394,o,62.4,Limited Time,e,47.6833446311449,60.730221581269014,62.36590741706872,48.813817416967524,62.36590741706872,47.6833446311449,60.730221581269014,48.813817416967524,0,0,0,0,60,60,60,60,60,3.1622776601683795,6.324555320336759,8.366600265340756,10
6,19,0.019288099952973425,o,63.7,Limited Time,e,52.994512729231126,64.77902340135397,63.730328772181025,73.4521862475975,63.730328772181025,52.994512729231126,64.77902340135397,73.4521862475975,0,0,0,0,60,60,60,60,60,3.1622776601683795,6.324555320336759,8.366600265340756,10
6,20,0.023056999954860657,q,69.9,Limited Time,e,69.89329329982148,57.12903288949741,59.73239925467681,74.45506487613662,59.73239925467681,69.89329329982148,57.12903288949741,74.45506487613662,0,0,0,0,60,60,60,60,60,3.1622776601683795,6.324555320336759,8.366600265340756,10
7,1,0.5057176999980584,o,52.4,Unlimited Time,i,66.33503827703971,51.88042715241807,52.36499087977737,69.19429503703765,51.88042715241807,52.36499087977737,66.33503827703971,69.19429503703765,-10,-10,10,10,60,50,50,70,70,3.1622776601683795,10,3.1622776601683795,10
7,2,0.09575539996149018,o,45.3,Unlimited Time,i,68.45668389388064,48.07876390439139,45.285337090126504,49.48763049166484,48.07876390439139,45.285337090126504,68.45668389388064,49.48763049166484,-10,-10,10,10,60,50,50,70,70,3.1622776601683795,10,3.1622776601683795,10
7,3,0.5124603000003844,o,63.1,Unlimited Time,i,70.53496691500833,45.77538030720734,63.08649973649406,84.09076603640199,45.77538030720734,63.08649973649406,70.53496691500833,84.09076603640199,-10,-10,10,10,60,50,50,70,70,3.1622776601683795,10,3.1622776601683795,10
7,4,0.2207160000107251,o,58.6,Unlimited Time,i,58.37257537884653,47.90159739041649,58.63412760437108,82.79816459459792,47.90159739041649,58.63412760437108,58.37257537884653,82.79816459459792,-10,-10,10,10,60,50,50,70,70,3.1622776601683795,10,3.1622776601683795,10
7,5,0.18549720000009984,o,58.3,Unlimited Time,i,70.41067793275046,52.23340364217411,58.309328434935296,67.79543181252211,52.23340364217411,58.309328434935296,70.41067793275046,67.79543181252211,-10,-10,10,10,60,50,50,70,70,3.1622776601683795,10,3.1622776601683795,10
7,6,0.08470740000484511,o,52.4,Unlimited Time,i,68.12444317026487,52.16177596968776,52.35776902942274,69.74814172917677,52.16177596968776,52.35776902942274,68.12444317026487,69.74814172917677,-10,-10,10,10,60,50,50,70,70,3.1622776601683795,10,3.1622776601683795,10
7,7,0.06231349997688085,o,47.5,Unlimited Time,i,73.5272623080533,47.434361209398084,47.457484118453195,85.85804319784552,47.434361209398084,47.457484118453195,73.5272623080533,85.85804319784552,-10,-10,10,10,60,50,50,70,70,3.1622776601683795,10,3.1622776601683795,10
7,8,0.12441970000509173,p,63.5,Unlimited Time,i,71.9431341916161,48.80456523749483,57.06842991052136,63.505225016140606,48.80456523749483,57.06842991052136,71.9431341916161,63.505225016140606,-10,-10,10,10,60,50,50,70,70,3.1622776601683795,10,3.1622776601683795,10
7,9,0.398500100011006,p,73.6,Unlimited Time,i,70.87867742898322,46.24911953566042,52.12022143896735,73.62100640603988,46.24911953566042,52.12022143896735,70.87867742898322,73.62100640603988,-10,-10,10,10,60,50,50,70,70,3.1622776601683795,10,3.1622776601683795,10
7,10,0.3316656000097282,p,62.8,Unlimited Time,i,69.51994544784715,46.612433694834614,50.970407060031185,62.77864998045895,46.612433694834614,50.970407060031185,69.51994544784715,62.77864998045895,-10,-10,10,10,60,50,50,70,70,3.1622776601683795,10,3.1622776601683795,10
7,11,0.3396828999975696,p,70.0,Unlimited Time,i,73.57178324433717,47.381321529969135,45.18067197209526,70.0360039495879,47.381321529969135,45.18067197209526,73.57178324433717,70.0360039495879,-10,-10,10,10,60,50,50,70,70,3.1622776601683795,10,3.1622776601683795,10
7,12,0.3908034000196494,p,66.9,Unlimited Time,i,64.84972715583638,45.86360685253612,61.67277571192021,66.94556176007379,45.86360685253612,61.67277571192021,64.84972715583638,66.94556176007379,-10,-10,10,10,60,50,50,70,70,3.1622776601683795,10,3.1622776601683795,10
7,13,0.1583348999847658,w,43.5,Unlimited Time,i,76.83776232258406,43.541481928726874,54.05896845414164,79.64660186709239,43.541481928726874,54.05896845414164,76.83776232258406,79.64660186709239,-10,-10,10,10,60,50,50,70,70,3.1622776601683795,10,3.1622776601683795,10
7,14,0.12523740000324324,w,51.0,Unlimited Time,i,67.237983534208,50.999768569932094,41.21398149076654,69.00467911434613,50.999768569932094,41.21398149076654,67.237983534208,69.00467911434613,-10,-10,10,10,60,50,50,70,70,3.1622776601683795,10,3.1622776601683795,10
7,15,0.6736562000005506,w,54.2,Unlimited Time,i,73.42560055443175,54.20502720278458,46.50852372284322,65.50429350216349,54.20502720278458,46.50852372284322,73.42560055443175,65.50429350216349,-10,-10,10,10,60,50,50,70,70,3.1622776601683795,10,3.1622776601683795,10
7,16,0.15087040001526475,w,52.5,Unlimited Time,i,70.09019371251723,52.51900531223498,22.636797006797448,78.33278727763619,52.51900531223498,22.636797006797448,70.09019371251723,78.33278727763619,-10,-10,10,10,60,50,50,70,70,3.1622776601683795,10,3.1622776601683795,10
7,17,0.21728079998865724,w,54.3,Unlimited Time,i,68.61942438964842,54.2566183784736,46.75911346677675,71.04504240920222,54.2566183784736,46.75911346677675,68.61942438964842,71.04504240920222,-10,-10,10,10,60,50,50,70,70,3.1622776601683795,10,3.1622776601683795,10
7,18,0.5894172000116669,o,55.3,Unlimited Time,i,70.49054779030926,57.186426445312804,55.30877325675208,74.04563874389483,57.186426445312804,55.30877325675208,70.49054779030926,74.04563874389483,-10,-10,10,10,60,50,50,70,70,3.1622776601683795,10,3.1622776601683795,10
7,19,0.11540779995266348,p,71.9,Unlimited Time,i,64.93191693845066,54.65380394678751,59.91808267658239,71.93841796293522,54.65380394678751,59.91808267658239,64.93191693845066,71.93841796293522,-10,-10,10,10,60,50,50,70,70,3.1622776601683795,10,3.1622776601683795,10
7,20,0.2993309999583289,q,69.1,Unlimited Time,i,69.07704935381629,51.89160150321209,53.66006832227148,52.04631770071151,51.89160150321209,53.66006832227148,69.07704935381629,52.04631770071151,-10,-10,10,10,60,50,50,70,70,3.1622776601683795,10,3.1622776601683795,10
8,1,,,0.0,Limited Time,l,57.020164451128416,50.57406600786678,66.97395169214724,51.39035030624247,50.57406600786678,57.020164451128416,51.39035030624247,66.97395169214724,-10,-0.33,0.33,10,60,50,59.67,60.33,70,3.1622776601683795,3.1622776601683795,3.1622776601683795,3.1622776601683795
8,2,,,0.0,Limited Time,l,61.88366845883548,49.546755072999645,67.91673098154098,61.625989442555834,49.546755072999645,61.88366845883548,61.625989442555834,67.91673098154098,-10,-0.33,0.33,10,60,50,59.67,60.33,70,3.1622776601683795,3.1622776601683795,3.1622776601683795,3.1622776601683795
8,3,0.023640000028535724,p,59.4,Limited Time,l,61.69422529374772,54.50366372947158,70.14825071547502,59.41560476056119,54.50366372947158,61.69422529374772,59.41560476056119,70.14825071547502,-10,-0.33,0.33,10,60,50,59.67,60.33,70,3.1622776601683795,3.1622776601683795,3.1622776601683795,3.1622776601683795
8,4,0.007792599964886904,o,66.4,Limited Time,l,63.40612253629473,49.3606997983136,66.38957291264462,61.965921069582954,49.3606997983136,63.40612253629473,61.965921069582954,66.38957291264462,-10,-0.33,0.33,10,60,50,59.67,60.33,70,3.1622776601683795,3.1622776601683795,3.1622776601683795,3.1622776601683795
8,5,0.1330854000407271,p,59.5,Limited Time,l,56.537854566274376,49.16090953103728,71.16126663773832,59.503130374148114,49.16090953103728,56.537854566274376,59.503130374148114,71.16126663773832,-10,-0.33,0.33,10,60,50,59.67,60.33,70,3.1622776601683795,3.1622776601683795,3.1622776601683795,3.1622776601683795
8,6,0.013287400011904538,o,72.7,Limited Time,l,63.49538359063416,55.64637932157682,72.73420136988639,57.332227549262825,55.64637932157682,63.49538359063416,57.332227549262825,72.73420136988639,-10,-0.33,0.33,10,60,50,59.67,60.33,70,3.1622776601683795,3.1622776601683795,3.1622776601683795,3.1622776601683795
8,7,0.025391100032720715,o,69.6,Limited Time,l,54.627460665753134,50.76446325293198,69.61072849712868,61.7976422860952,50.76446325293198,54.627460665753134,61.7976422860952,69.61072849712868,-10,-0.33,0.33,10,60,50,59.67,60.33,70,3.1622776601683795,3.1622776601683795,3.1622776601683795,3.1622776601683795
8,8,0.07784399995580316,p,55.7,Limited Time,l,65.04515979370608,50.65014817694421,70.59170204077105,55.661631562540265,50.65014817694421,65.04515979370608,55.661631562540265,70.59170204077105,-10,-0.33,0.33,10,60,50,59.67,60.33,70,3.1622776601683795,3.1622776601683795,3.1622776601683795,3.1622776601683795
8,9,0.057308999996166676,o,66.5,Limited Time,l,56.37997745638928,48.45075297502399,66.50332483238036,61.3981534545631,48.45075297502399,56.37997745638928,61.3981534545631,66.50332483238036,-10,-0.33,0.33,10,60,50,59.67,60.33,70,3.1622776601683795,3.1622776601683795,3.1622776601683795,3.1622776601683795
8,10,0.019830100005492568,o,72.7,Limited Time,l,56.64937538084581,49.87125436919649,72.71258990739612,61.18271778218126,49.87125436919649,56.64937538084581,61.18271778218126,72.71258990739612,-10,-0.33,0.33,10,60,50,59.67,60.33,70,3.1622776601683795,3.1622776601683795,3.1622776601683795,3.1622776601683795
8,11,0.002121100027579814,o,72.8,Limited Time,l,60.399542998917035,52.01292988958051,72.80868335082886,62.05589733793445,52.01292988958051,60.399542998917035,62.05589733793445,72.80868335082886,-10,-0.33,0.33,10,60,50,59.67,60.33,70,3.1622776601683795,3.1622776601683795,3.1622776601683795,3.1622776601683795
8,12,0.0004494000459089875,o,71.5,Limited Time,l,62.60594720669024,52.25875777438841,71.51476655989696,65.77490493452339,52.25875777438841,62.60594720669024,65.77490493452339,71.51476655989696,-10,-0.33,0.33,10,60,50,59.67,60.33,70,3.1622776601683795,3.1622776601683795,3.1622776601683795,3.1622776601683795
8,13,0.009831600007601082,o,73.3,Limited Time,l,57.72640388177401,46.778748900590855,73.2876228869699,60.86103759858211,46.778748900590855,57.72640388177401,60.86103759858211,73.2876228869699,-10,-0.33,0.33,10,60,50,59.67,60.33,70,3.1622776601683795,3.1622776601683795,3.1622776601683795,3.1622776601683795
8,14,0.03187909995904192,o,69.9,Limited Time,l,56.6002114082501,52.0564181110007,69.9375936562542,60.92675549004016,52.0564181110007,56.6002114082501,60.92675549004016,69.9375936562542,-10,-0.33,0.33,10,60,50,59.67,60.33,70,3.1622776601683795,3.1622776601683795,3.1622776601683795,3.1622776601683795
8,15,0.08845749997999519,o,71.8,Limited Time,l,61.373097569011776,45.66697794602557,71.83932022055504,64.06715961772393,45.66697794602557,61.373097569011776,64.06715961772393,71.83932022055504,-10,-0.33,0.33,10,60,50,59.67,60.33,70,3.1622776601683795,3.1622776601683795,3.1622776601683795,3.1622776601683795
8,16,0.043547799985390157,o,69.8,Limited Time,l,61.191093732614455,52.87238447292374,69.83859435019595,61.318514784799234,52.87238447292374,61.191093732614455,61.318514784799234,69.83859435019595,-10,-0.33,0.33,10,60,50,59.67,60.33,70,3.1622776601683795,3.1622776601683795,3.1622776601683795,3.1622776601683795
8,17,0.04715310002211481,o,63.2,Limited Time,l,60.12098834107076,48.0185869596209,63.19666518611888,58.34042366827891,48.0185869596209,60.12098834107076,58.34042366827891,63.19666518611888,-10,-0.33,0.33,10,60,50,59.67,60.33,70,3.1622776601683795,3.1622776601683795,3.1622776601683795,3.1622776601683795
8,18,0.07752809999510646,o,74.3,Limited Time,l,62.613284507299255,53.444425844546515,74.28640706157242,63.51575212645903,53.444425844546515,62.613284507299255,63.51575212645903,74.28640706157242,-10,-0.33,0.33,10,60,50,59.67,60.33,70,3.1622776601683795,3.1622776601683795,3.1622776601683795,3.1622776601683795
8,19,0.044490200001746416,o,69.3,Limited Time,l,57.08317330887385,49.09988299083425,69.28572860135652,57.99944260775853,49.09988299083425,57.08317330887385,57.99944260775853,69.28572860135652,-10,-0.33,0.33,10,60,50,59.67,60.33,70,3.1622776601683795,3.1622776601683795,3.1622776601683795,3.1622776601683795
8,20,0.05755570001201704,o,65.2,Limited Time,l,61.01212053685551,53.328108914987,65.19461165674161,63.79910805400748,53.328108914987,61.01212053685551,63.79910805400748,65.19461165674161,-10,-0.33,0.33,10,60,50,59.67,60.33,70,3.1622776601683795,3.1622776601683795,3.1622776601683795,3.1622776601683795
9,1,0.16724019998218864,p,48.8,Unlimited Time,h,78.56808097687448,57.48483094653699,65.0312913750342,48.82795737934828,48.82795737934828,65.0312913750342,78.56808097687448,57.48483094653699,-10,-0.33,0.33,10,60,50,59.67,60.33,70,10,10,10,10
9,2,0.15640569996321574,o,62.4,Unlimited Time,h,58.62582335342112,76.97326117957195,62.35875863893125,60.77126571379797,60.77126571379797,62.35875863893125,58.62582335342112,76.97326117957195,-10,-0.33,0.33,10,60,50,59.67,60.33,70,10,10,10,10
9,3,0.10004409996327013,o,54.2,Unlimited Time,h,73.44281101619532,71.90561514282052,54.19009491679192,39.063241868220935,39.063241868220935,54.19009491679192,73.44281101619532,71.90561514282052,-10,-0.33,0.33,10,60,50,59.67,60.33,70,10,10,10,10
9,4,0.046105500019621104,p,57.8,Unlimited Time,h,59.83300683077001,100.54200235386337,62.29294008719422,57.75230643912487,57.75230643912487,62.29294008719422,59.83300683077001,100.54200235386337,-10,-0.33,0.33,10,60,50,59.67,60.33,70,10,10,10,10
9,5,0.06458599999314174,p,53.1,Unlimited Time,h,40.89869841341975,85.19615880404982,71.51197561066908,53.098687477292245,53.098687477292245,71.51197561066908,40.89869841341975,85.19615880404982,-10,-0.33,0.33,10,60,50,59.67,60.33,70,10,10,10,10
9,6,0.015782299975398928,w,65.4,Unlimited Time,h,45.20016013448963,65.39597300904678,71.04425794399933,46.68251177882756,46.68251177882756,71.04425794399933,45.20016013448963,65.39597300904678,-10,-0.33,0.33,10,60,50,59.67,60.33,70,10,10,10,10
9,7,0.11737220000941306,p,53.8,Unlimited Time,h,57.054800706527665,66.7885979259589,48.22272095968795,53.771456608572095,53.771456608572095,48.22272095968795,57.054800706527665,66.7885979259589,-10,-0.33,0.33,10,60,50,59.67,60.33,70,10,10,10,10
9,8,0.010342900000978261,w,44.0,Unlimited Time,h,63.365370491814424,44.02094572725098,73.51063134255318,74.874474586464,74.874474586464,73.51063134255318,63.365370491814424,44.02094572725098,-10,-0.33,0.33,10,60,50,59.67,60.33,70,10,10,10,10
9,9,0.04740349994972348,p,53.5,Unlimited Time,h,71.08890834477108,61.794884238675664,61.321809202464294,53.51158551698196,53.51158551698196,61.321809202464294,71.08890834477108,61.794884238675664,-10,-0.33,0.33,10,60,50,59.67,60.33,70,10,10,10,10
9,10,0.008882899943273515,o,73.6,Unlimited Time,h,63.03043598386958,75.08525081262711,73.63042822360872,56.39593249697329,56.39593249697329,73.63042822360872,63.03043598386958,75.08525081262711,-10,-0.33,0.33,10,60,50,59.67,60.33,70,10,10,10,10
9,11,0.021707399981096387,p,44.3,Unlimited Time,h,34.925664741484574,63.94308123836215,41.33061819030132,44.34838670066981,44.34838670066981,41.33061819030132,34.925664741484574,63.94308123836215,-10,-0.33,0.33,10,60,50,59.67,60.33,70,10,10,10,10
9,12,0.011364699981641024,o,56.3,Unlimited Time,h,76.81087504113947,64.80120800715608,56.334594126594446,63.20661706589109,63.20661706589109,56.334594126594446,76.81087504113947,64.80120800715608,-10,-0.33,0.33,10,60,50,59.67,60.33,70,10,10,10,10
9,13,0.016706899972632527,p,44.3,Unlimited Time,h,59.01339463147587,68.92871170125632,59.698370533406184,44.26782126351531,44.26782126351531,59.698370533406184,59.01339463147587,68.92871170125632,-10,-0.33,0.33,10,60,50,59.67,60.33,70,10,10,10,10
9,14,0.09357450000243261,p,53.1,Unlimited Time,h,81.62275422721765,69.31643571479574,44.25691580206753,53.12007945211185,53.12007945211185,44.25691580206753,81.62275422721765,69.31643571479574,-10,-0.33,0.33,10,60,50,59.67,60.33,70,10,10,10,10
9,15,0.1230828000116162,q,68.3,Unlimited Time,h,68.32002476975012,85.10580297276124,60.153369095430584,53.309016574983275,53.309016574983275,60.153369095430584,68.32002476975012,85.10580297276124,-10,-0.33,0.33,10,60,50,59.67,60.33,70,10,10,10,10
9,16,0.1473757000057958,o,73.1,Unlimited Time,h,62.240983637921886,69.82967507132453,73.12257127030023,48.07779650826004,48.07779650826004,73.12257127030023,62.240983637921886,69.82967507132453,-10,-0.33,0.33,10,60,50,59.67,60.33,70,10,10,10,10
9,17,0.008960000006482005,w,85.4,Unlimited Time,h,64.62009523660198,85.37574485120318,60.44297095142958,47.67483703553391,47.67483703553391,60.44297095142958,64.62009523660198,85.37574485120318,-10,-0.33,0.33,10,60,50,59.67,60.33,70,10,10,10,10
9,18,0.029363100009504706,w,71.6,Unlimited Time,h,73.75728205271912,71.55959093298762,54.37791631549225,41.29050643528074,41.29050643528074,54.37791631549225,73.75728205271912,71.55959093298762,-10,-0.33,0.33,10,60,50,59.67,60.33,70,10,10,10,10
9,19,0.019983100006356835,w,67.1,Unlimited Time,h,48.174504599409275,67.06295120049018,46.92480083252048,39.27850478877968,39.27850478877968,46.92480083252048,48.174504599409275,67.06295120049018,-10,-0.33,0.33,10,60,50,59.67,60.33,70,10,10,10,10
9,20,0.11432400002377108,p,69.3,Unlimited Time,h,52.703833007187754,64.33684723125889,64.71017512765182,69.30733432167821,69.30733432167821,64.71017512765182,52.703833007187754,64.33684723125889,-10,-0.33,0.33,10,60,50,59.67,60.33,70,10,10,10,10
10,1,,,0.0,Limited Time,h,57.48483094653699,48.82795737934828,78.56808097687448,65.0312913750342,48.82795737934828,65.0312913750342,78.56808097687448,57.48483094653699,-10,-0.33,0.33,10,60,50,59.67,60.33,70,10,10,10,10
10,2,0.09050019999267533,w,60.8,Limited Time,h,76.97326117957195,60.77126571379797,58.62582335342112,62.35875863893125,60.77126571379797,62.35875863893125,58.62582335342112,76.97326117957195,-10,-0.33,0.33,10,60,50,59.67,60.33,70,10,10,10,10
10,3,0.11867960001109168,w,39.1,Limited Time,h,71.90561514282052,39.063241868220935,73.44281101619532,54.19009491679192,39.063241868220935,54.19009491679192,73.44281101619532,71.90561514282052,-10,-0.33,0.33,10,60,50,59.67,60.33,70,10,10,10,10
10,4,0.17617709998739883,w,57.8,Limited Time,h,100.54200235386337,57.75230643912487,59.83300683077001,62.29294008719422,57.75230643912487,62.29294008719422,59.83300683077001,100.54200235386337,-10,-0.33,0.33,10,60,50,59.67,60.33,70,10,10,10,10
10,5,0.1790245000156574,w,53.1,Limited Time,h,85.19615880404982,53.098687477292245,40.89869841341975,71.51197561066908,53.098687477292245,71.51197561066908,40.89869841341975,85.19615880404982,-10,-0.33,0.33,10,60,50,59.67,60.33,70,10,10,10,10
10,6,0.036993499961681664,w,46.7,Limited Time,h,65.39597300904678,46.68251177882756,45.20016013448963,71.04425794399933,46.68251177882756,71.04425794399933,45.20016013448963,65.39597300904678,-10,-0.33,0.33,10,60,50,59.67,60.33,70,10,10,10,10
10,7,0.2010469000088051,w,53.8,Limited Time,h,66.7885979259589,53.771456608572095,57.054800706527665,48.22272095968795,53.771456608572095,48.22272095968795,57.054800706527665,66.7885979259589,-10,-0.33,0.33,10,60,50,59.67,60.33,70,10,10,10,10
10,8,0.0953628999995999,w,74.9,Limited Time,h,44.02094572725098,74.874474586464,63.365370491814424,73.51063134255318,74.874474586464,73.51063134255318,63.365370491814424,44.02094572725098,-10,-0.33,0.33,10,60,50,59.67,60.33,70,10,10,10,10
10,9,0.0645665000192821,w,53.5,Limited Time,h,61.794884238675664,53.51158551698196,71.08890834477108,61.321809202464294,53.51158551698196,61.321809202464294,71.08890834477108,61.794884238675664,-10,-0.33,0.33,10,60,50,59.67,60.33,70,10,10,10,10
10,10,0.02720219996990636,w,56.4,Limited Time,h,75.08525081262711,56.39593249697329,63.03043598386958,73.63042822360872,56.39593249697329,73.63042822360872,63.03043598386958,75.08525081262711,-10,-0.33,0.33,10,60,50,59.67,60.33,70,10,10,10,10
10,11,0.05379809997975826,w,44.3,Limited Time,h,63.94308123836215,44.34838670066981,34.925664741484574,41.33061819030132,44.34838670066981,41.33061819030132,34.925664741484574,63.94308123836215,-10,-0.33,0.33,10,60,50,59.67,60.33,70,10,10,10,10
10,12,0.04204070003470406,w,63.2,Limited Time,h,64.80120800715608,63.20661706589109,76.81087504113947,56.334594126594446,63.20661706589109,56.334594126594446,76.81087504113947,64.80120800715608,-10,-0.33,0.33,10,60,50,59.67,60.33,70,10,10,10,10
10,13,0.05304770002840087,w,44.3,Limited Time,h,68.92871170125632,44.26782126351531,59.01339463147587,59.698370533406184,44.26782126351531,59.698370533406184,59.01339463147587,68.92871170125632,-10,-0.33,0.33,10,60,50,59.67,60.33,70,10,10,10,10
10,14,0.19192690000636503,w,53.1,Limited Time,h,69.31643571479574,53.12007945211185,81.62275422721765,44.25691580206753,53.12007945211185,44.25691580206753,81.62275422721765,69.31643571479574,-10,-0.33,0.33,10,60,50,59.67,60.33,70,10,10,10,10
10,15,0.21694750001188368,w,53.3,Limited Time,h,85.10580297276124,53.309016574983275,68.32002476975012,60.153369095430584,53.309016574983275,60.153369095430584,68.32002476975012,85.10580297276124,-10,-0.33,0.33,10,60,50,59.67,60.33,70,10,10,10,10
10,16,0.02769239997724071,w,48.1,Limited Time,h,69.82967507132453,48.07779650826004,62.240983637921886,73.12257127030023,48.07779650826004,73.12257127030023,62.240983637921886,69.82967507132453,-10,-0.33,0.33,10,60,50,59.67,60.33,70,10,10,10,10
10,17,0.19891049998113886,w,47.7,Limited Time,h,85.37574485120318,47.67483703553391,64.62009523660198,60.44297095142958,47.67483703553391,60.44297095142958,64.62009523660198,85.37574485120318,-10,-0.33,0.33,10,60,50,59.67,60.33,70,10,10,10,10
10,18,0.22338059998583049,w,41.3,Limited Time,h,71.55959093298762,41.29050643528074,73.75728205271912,54.37791631549225,41.29050643528074,54.37791631549225,73.75728205271912,71.55959093298762,-10,-0.33,0.33,10,60,50,59.67,60.33,70,10,10,10,10
10,19,0.060446000017691404,o,48.2,Limited Time,h,67.06295120049018,39.27850478877968,48.174504599409275,46.92480083252048,39.27850478877968,46.92480083252048,48.174504599409275,67.06295120049018,-10,-0.33,0.33,10,60,50,59.67,60.33,70,10,10,10,10
10,20,0.01863130001584068,o,52.7,Limited Time,h,64.33684723125889,69.30733432167821,52.703833007187754,64.71017512765182,69.30733432167821,64.71017512765182,52.703833007187754,64.33684723125889,-10,-0.33,0.33,10,60,50,59.67,60.33,70,10,10,10,10
11,1,0.11077329999534413,p,69.2,Unlimited Time,i,51.88042715241807,66.33503827703971,52.36499087977737,69.19429503703765,51.88042715241807,52.36499087977737,66.33503827703971,69.19429503703765,-10,-10,10,10,60,50,50,70,70,3.1622776601683795,10,3.1622776601683795,10
11,2,0.13319960003718734,o,45.3,Unlimited Time,i,48.07876390439139,68.45668389388064,45.285337090126504,49.48763049166484,48.07876390439139,45.285337090126504,68.45668389388064,49.48763049166484,-10,-10,10,10,60,50,50,70,70,3.1622776601683795,10,3.1622776601683795,10
11,3,0.03278369997860864,p,84.1,Unlimited Time,i,45.77538030720734,70.53496691500833,63.08649973649406,84.09076603640199,45.77538030720734,63.08649973649406,70.53496691500833,84.09076603640199,-10,-10,10,10,60,50,50,70,70,3.1622776601683795,10,3.1622776601683795,10
11,4,0.046514099987689406,p,82.8,Unlimited Time,i,47.90159739041649,58.37257537884653,58.63412760437108,82.79816459459792,47.90159739041649,58.63412760437108,58.37257537884653,82.79816459459792,-10,-10,10,10,60,50,50,70,70,3.1622776601683795,10,3.1622776601683795,10
11,5,0.10518529999535531,o,58.3,Unlimited Time,i,52.23340364217411,70.41067793275046,58.309328434935296,67.79543181252211,52.23340364217411,58.309328434935296,70.41067793275046,67.79543181252211,-10,-10,10,10,60,50,50,70,70,3.1622776601683795,10,3.1622776601683795,10
11,6,0.146100000012666,p,69.7,Unlimited Time,i,52.16177596968776,68.12444317026487,52.35776902942274,69.74814172917677,52.16177596968776,52.35776902942274,68.12444317026487,69.74814172917677,-10,-10,10,10,60,50,50,70,70,3.1622776601683795,10,3.1622776601683795,10
11,7,0.09416159999091178,o,47.5,Unlimited Time,i,47.434361209398084,73.5272623080533,47.457484118453195,85.85804319784552,47.434361209398084,47.457484118453195,73.5272623080533,85.85804319784552,-10,-10,10,10,60,50,50,70,70,3.1622776601683795,10,3.1622776601683795,10
11,8,0.007043899968266487,o,57.1,Unlimited Time,i,48.80456523749483,71.9431341916161,57.06842991052136,63.505225016140606,48.80456523749483,57.06842991052136,71.9431341916161,63.505225016140606,-10,-10,10,10,60,50,50,70,70,3.1622776601683795,10,3.1622776601683795,10
11,9,0.03885519999312237,o,52.1,Unlimited Time,i,46.24911953566042,70.87867742898322,52.12022143896735,73.62100640603988,46.24911953566042,52.12022143896735,70.87867742898322,73.62100640603988,-10,-10,10,10,60,50,50,70,70,3.1622776601683795,10,3.1622776601683795,10
11,10,0.1515781999914907,p,62.8,Unlimited Time,i,46.612433694834614,69.51994544784715,50.970407060031185,62.77864998045895,46.612433694834614,50.970407060031185,69.51994544784715,62.77864998045895,-10,-10,10,10,60,50,50,70,70,3.1622776601683795,10,3.1622776601683795,10
11,11,0.20427029998973012,p,70.0,Unlimited Time,i,47.381321529969135,73.57178324433717,45.18067197209526,70.0360039495879,47.381321529969135,45.18067197209526,73.57178324433717,70.0360039495879,-10,-10,10,10,60,50,50,70,70,3.1622776601683795,10,3.1622776601683795,10
11,12,0.0387763999751769,p,66.9,Unlimited Time,i,45.86360685253612,64.84972715583638,61.67277571192021,66.94556176007379,45.86360685253612,61.67277571192021,64.84972715583638,66.94556176007379,-10,-10,10,10,60,50,50,70,70,3.1622776601683795,10,3.1622776601683795,10
11,13,0.019537199987098575,p,79.6,Unlimited Time,i,43.541481928726874,76.83776232258406,54.05896845414164,79.64660186709239,43.541481928726874,54.05896845414164,76.83776232258406,79.64660186709239,-10,-10,10,10,60,50,50,70,70,3.1622776601683795,10,3.1622776601683795,10
11,14,0.04224929999327287,o,41.2,Unlimited Time,i,50.999768569932094,67.237983534208,41.21398149076654,69.00467911434613,50.999768569932094,41.21398149076654,67.237983534208,69.00467911434613,-10,-10,10,10,60,50,50,70,70,3.1622776601683795,10,3.1622776601683795,10
11,15,0.04120149998925626,o,46.5,Unlimited Time,i,54.20502720278458,73.42560055443175,46.50852372284322,65.50429350216349,54.20502720278458,46.50852372284322,73.42560055443175,65.50429350216349,-10,-10,10,10,60,50,50,70,70,3.1622776601683795,10,3.1622776601683795,10
11,16,0.02279139996971935,p,78.3,Unlimited Time,i,52.51900531223498,70.09019371251723,22.636797006797448,78.33278727763619,52.51900531223498,22.636797006797448,70.09019371251723,78.33278727763619,-10,-10,10,10,60,50,50,70,70,3.1622776601683795,10,3.1622776601683795,10
11,17,0.04849889996694401,p,71.0,Unlimited Time,i,54.2566183784736,68.61942438964842,46.75911346677675,71.04504240920222,54.2566183784736,46.75911346677675,68.61942438964842,71.04504240920222,-10,-10,10,10,60,50,50,70,70,3.1622776601683795,10,3.1622776601683795,10
11,18,0.010429300018586218,p,74.0,Unlimited Time,i,57.186426445312804,70.49054779030926,55.30877325675208,74.04563874389483,57.186426445312804,55.30877325675208,70.49054779030926,74.04563874389483,-10,-10,10,10,60,50,50,70,70,3.1622776601683795,10,3.1622776601683795,10
11,19,0.04749139997875318,p,71.9,Unlimited Time,i,54.65380394678751,64.93191693845066,59.91808267658239,71.93841796293522,54.65380394678751,59.91808267658239,64.93191693845066,71.93841796293522,-10,-10,10,10,60,50,50,70,70,3.1622776601683795,10,3.1622776601683795,10
11,20,0.18459860002622008,p,52.0,Unlimited Time,i,51.89160150321209,69.07704935381629,53.66006832227148,52.04631770071151,51.89160150321209,53.66006832227148,69.07704935381629,52.04631770071151,-10,-10,10,10,60,50,50,70,70,3.1622776601683795,10,3.1622776601683795,10
12,1,,,0.0,Limited Time,i,69.19429503703765,51.88042715241807,52.36499087977737,66.33503827703971,51.88042715241807,52.36499087977737,66.33503827703971,69.19429503703765,-10,-10,10,10,60,50,50,70,70,3.1622776601683795,10,3.1622776601683795,10
12,2,,,0.0,Limited Time,i,49.48763049166484,48.07876390439139,45.285337090126504,68.45668389388064,48.07876390439139,45.285337090126504,68.45668389388064,49.48763049166484,-10,-10,10,10,60,50,50,70,70,3.1622776601683795,10,3.1622776601683795,10
12,3,0.060265200037974864,o,63.1,Limited Time,i,84.09076603640199,45.77538030720734,63.08649973649406,70.53496691500833,45.77538030720734,63.08649973649406,70.53496691500833,84.09076603640199,-10,-10,10,10,60,50,50,70,70,3.1622776601683795,10,3.1622776601683795,10
12,4,0.027189399988856167,p,58.4,Limited Time,i,82.79816459459792,47.90159739041649,58.63412760437108,58.37257537884653,47.90159739041649,58.63412760437108,58.37257537884653,82.79816459459792,-10,-10,10,10,60,50,50,70,70,3.1622776601683795,10,3.1622776601683795,10
12,5,0.005238100013229996,p,70.4,Limited Time,i,67.79543181252211,52.23340364217411,58.309328434935296,70.41067793275046,52.23340364217411,58.309328434935296,70.41067793275046,67.79543181252211,-10,-10,10,10,60,50,50,70,70,3.1622776601683795,10,3.1622776601683795,10
12,6,0.04247879999456927,o,52.4,Limited Time,i,69.74814172917677,52.16177596968776,52.35776902942274,68.12444317026487,52.16177596968776,52.35776902942274,68.12444317026487,69.74814172917677,-10,-10,10,10,60,50,50,70,70,3.1622776601683795,10,3.1622776601683795,10
12,7,0.06715319998329505,o,47.5,Limited Time,i,85.85804319784552,47.434361209398084,47.457484118453195,73.5272623080533,47.434361209398084,47.457484118453195,73.5272623080533,85.85804319784552,-10,-10,10,10,60,50,50,70,70,3.1622776601683795,10,3.1622776601683795,10
12,8,0.17771049996372312,p,71.9,Limited Time,i,63.505225016140606,48.80456523749483,57.06842991052136,71.9431341916161,48.80456523749483,57.06842991052136,71.9431341916161,63.505225016140606,-10,-10,10,10,60,50,50,70,70,3.1622776601683795,10,3.1622776601683795,10
12,9,0.016360400011762977,o,52.1,Limited Time,i,73.62100640603988,46.24911953566042,52.12022143896735,70.87867742898322,46.24911953566042,52.12022143896735,70.87867742898322,73.62100640603988,-10,-10,10,10,60,50,50,70,70,3.1622776601683795,10,3.1622776601683795,10
12,10,0.010415299970190972,p,69.5,Limited Time,i,62.77864998045895,46.612433694834614,50.970407060031185,69.51994544784715,46.612433694834614,50.970407060031185,69.51994544784715,62.77864998045895,-10,-10,10,10,60,50,50,70,70,3.1622776601683795,10,3.1622776601683795,10
12,11,0.026322899968363345,o,45.2,Limited Time,i,70.0360039495879,47.381321529969135,45.18067197209526,73.57178324433717,47.381321529969135,45.18067197209526,73.57178324433717,70.0360039495879,-10,-10,10,10,60,50,50,70,70,3.1622776601683795,10,3.1622776601683795,10
12,12,0.042454700043890625,p,64.8,Limited Time,i,66.94556176007379,45.86360685253612,61.67277571192021,64.84972715583638,45.86360685253612,61.67277571192021,64.84972715583638,66.94556176007379,-10,-10,10,10,60,50,50,70,70,3.1622776601683795,10,3.1622776601683795,10
12,13,0.14888659998541698,p,76.8,Limited Time,i,79.64660186709239,43.541481928726874,54.05896845414164,76.83776232258406,43.541481928726874,54.05896845414164,76.83776232258406,79.64660186709239,-10,-10,10,10,60,50,50,70,70,3.1622776601683795,10,3.1622776601683795,10
12,14,0.08976980001898482,p,67.2,Limited Time,i,69.00467911434613,50.999768569932094,41.21398149076654,67.237983534208,50.999768569932094,41.21398149076654,67.237983534208,69.00467911434613,-10,-10,10,10,60,50,50,70,70,3.1622776601683795,10,3.1622776601683795,10
12,15,0.06780680001247674,p,73.4,Limited Time,i,65.50429350216349,54.20502720278458,46.50852372284322,73.42560055443175,54.20502720278458,46.50852372284322,73.42560055443175,65.50429350216349,-10,-10,10,10,60,50,50,70,70,3.1622776601683795,10,3.1622776601683795,10
12,16,0.12026300001889467,p,70.1,Limited Time,i,78.33278727763619,52.51900531223498,22.636797006797448,70.09019371251723,52.51900531223498,22.636797006797448,70.09019371251723,78.33278727763619,-10,-10,10,10,60,50,50,70,70,3.1622776601683795,10,3.1622776601683795,10
12,17,0.045416600012686104,o,46.8,Limited Time,i,71.04504240920222,54.2566183784736,46.75911346677675,68.61942438964842,54.2566183784736,46.75911346677675,68.61942438964842,71.04504240920222,-10,-10,10,10,60,50,50,70,70,3.1622776601683795,10,3.1622776601683795,10
12,18,0.05083209997974336,o,55.3,Limited Time,i,74.04563874389483,57.186426445312804,55.30877325675208,70.49054779030926,57.186426445312804,55.30877325675208,70.49054779030926,74.04563874389483,-10,-10,10,10,60,50,50,70,70,3.1622776601683795,10,3.1622776601683795,10
12,19,0.04831969999941066,o,59.9,Limited Time,i,71.93841796293522,54.65380394678751,59.91808267658239,64.93191693845066,54.65380394678751,59.91808267658239,64.93191693845066,71.93841796293522,-10,-10,10,10,60,50,50,70,70,3.1622776601683795,10,3.1622776601683795,10
12,20,0.02188630000455305,o,53.7,Limited Time,i,52.04631770071151,51.89160150321209,53.66006832227148,69.07704935381629,51.89160150321209,53.66006832227148,69.07704935381629,52.04631770071151,-10,-10,10,10,60,50,50,70,70,3.1622776601683795,10,3.1622776601683795,10
13,1,0.7959458999685012,w,50.6,Unlimited Time,l,57.020164451128416,50.57406600786678,66.97395169214724,51.39035030624247,50.57406600786678,57.020164451128416,51.39035030624247,66.97395169214724,-10,-0.33,0.33,10,60,50,59.67,60.33,70,3.1622776601683795,3.1622776601683795,3.1622776601683795,3.1622776601683795
13,2,0.4177586999721825,w,49.5,Unlimited Time,l,61.88366845883548,49.546755072999645,67.91673098154098,61.625989442555834,49.546755072999645,61.88366845883548,61.625989442555834,67.91673098154098,-10,-0.33,0.33,10,60,50,59.67,60.33,70,3.1622776601683795,3.1622776601683795,3.1622776601683795,3.1622776601683795
13,3,0.335738499998115,w,54.5,Unlimited Time,l,61.69422529374772,54.50366372947158,70.14825071547502,59.41560476056119,54.50366372947158,61.69422529374772,59.41560476056119,70.14825071547502,-10,-0.33,0.33,10,60,50,59.67,60.33,70,3.1622776601683795,3.1622776601683795,3.1622776601683795,3.1622776601683795
13,4,0.22344600001815706,o,66.4,Unlimited Time,l,63.40612253629473,49.3606997983136,66.38957291264462,61.965921069582954,49.3606997983136,63.40612253629473,61.965921069582954,66.38957291264462,-10,-0.33,0.33,10,60,50,59.67,60.33,70,3.1622776601683795,3.1622776601683795,3.1622776601683795,3.1622776601683795
13,5,0.21107479999773204,o,71.2,Unlimited Time,l,56.537854566274376,49.16090953103728,71.16126663773832,59.503130374148114,49.16090953103728,56.537854566274376,59.503130374148114,71.16126663773832,-10,-0.33,0.33,10,60,50,59.67,60.33,70,3.1622776601683795,3.1622776601683795,3.1622776601683795,3.1622776601683795
13,6,0.23399490001611412,o,72.7,Unlimited Time,l,63.49538359063416,55.64637932157682,72.73420136988639,57.332227549262825,55.64637932157682,63.49538359063416,57.332227549262825,72.73420136988639,-10,-0.33,0.33,10,60,50,59.67,60.33,70,3.1622776601683795,3.1622776601683795,3.1622776601683795,3.1622776601683795
13,7,0.030484699993394315,o,69.6,Unlimited Time,l,54.627460665753134,50.76446325293198,69.61072849712868,61.7976422860952,50.76446325293198,54.627460665753134,61.7976422860952,69.61072849712868,-10,-0.33,0.33,10,60,50,59.67,60.33,70,3.1622776601683795,3.1622776601683795,3.1622776601683795,3.1622776601683795
13,8,0.6307240999885835,o,70.6,Unlimited Time,l,65.04515979370608,50.65014817694421,70.59170204077105,55.661631562540265,50.65014817694421,65.04515979370608,55.661631562540265,70.59170204077105,-10,-0.33,0.33,10,60,50,59.67,60.33,70,3.1622776601683795,3.1622776601683795,3.1622776601683795,3.1622776601683795
13,9,0.26286769995931536,o,66.5,Unlimited Time,l,56.37997745638928,48.45075297502399,66.50332483238036,61.3981534545631,48.45075297502399,56.37997745638928,61.3981534545631,66.50332483238036,-10,-0.33,0.33,10,60,50,59.67,60.33,70,3.1622776601683795,3.1622776601683795,3.1622776601683795,3.1622776601683795
13,10,0.31098929996369407,p,61.2,Unlimited Time,l,56.64937538084581,49.87125436919649,72.71258990739612,61.18271778218126,49.87125436919649,56.64937538084581,61.18271778218126,72.71258990739612,-10,-0.33,0.33,10,60,50,59.67,60.33,70,3.1622776601683795,3.1622776601683795,3.1622776601683795,3.1622776601683795
13,11,0.1531087000039406,p,62.1,Unlimited Time,l,60.399542998917035,52.01292988958051,72.80868335082886,62.05589733793445,52.01292988958051,60.399542998917035,62.05589733793445,72.80868335082886,-10,-0.33,0.33,10,60,50,59.67,60.33,70,3.1622776601683795,3.1622776601683795,3.1622776601683795,3.1622776601683795
13,12,0.008605700044427067,p,65.8,Unlimited Time,l,62.60594720669024,52.25875777438841,71.51476655989696,65.77490493452339,52.25875777438841,62.60594720669024,65.77490493452339,71.51476655989696,-10,-0.33,0.33,10,60,50,59.67,60.33,70,3.1622776601683795,3.1622776601683795,3.1622776601683795,3.1622776601683795
13,13,0.024742299981880933,p,60.9,Unlimited Time,l,57.72640388177401,46.778748900590855,73.2876228869699,60.86103759858211,46.778748900590855,57.72640388177401,60.86103759858211,73.2876228869699,-10,-0.33,0.33,10,60,50,59.67,60.33,70,3.1622776601683795,3.1622776601683795,3.1622776601683795,3.1622776601683795
13,14,0.23114210000494495,p,60.9,Unlimited Time,l,56.6002114082501,52.0564181110007,69.9375936562542,60.92675549004016,52.0564181110007,56.6002114082501,60.92675549004016,69.9375936562542,-10,-0.33,0.33,10,60,50,59.67,60.33,70,3.1622776601683795,3.1622776601683795,3.1622776601683795,3.1622776601683795
13,15,0.21474900003522635,p,64.1,Unlimited Time,l,61.373097569011776,45.66697794602557,71.83932022055504,64.06715961772393,45.66697794602557,61.373097569011776,64.06715961772393,71.83932022055504,-10,-0.33,0.33,10,60,50,59.67,60.33,70,3.1622776601683795,3.1622776601683795,3.1622776601683795,3.1622776601683795
13,16,0.10521750000771135,p,61.3,Unlimited Time,l,61.191093732614455,52.87238447292374,69.83859435019595,61.318514784799234,52.87238447292374,61.191093732614455,61.318514784799234,69.83859435019595,-10,-0.33,0.33,10,60,50,59.67,60.33,70,3.1622776601683795,3.1622776601683795,3.1622776601683795,3.1622776601683795
13,17,0.07877259998349473,p,58.3,Unlimited Time,l,60.12098834107076,48.0185869596209,63.19666518611888,58.34042366827891,48.0185869596209,60.12098834107076,58.34042366827891,63.19666518611888,-10,-0.33,0.33,10,60,50,59.67,60.33,70,3.1622776601683795,3.1622776601683795,3.1622776601683795,3.1622776601683795
13,18,0.3177152000134811,p,63.5,Unlimited Time,l,62.613284507299255,53.444425844546515,74.28640706157242,63.51575212645903,53.444425844546515,62.613284507299255,63.51575212645903,74.28640706157242,-10,-0.33,0.33,10,60,50,59.67,60.33,70,3.1622776601683795,3.1622776601683795,3.1622776601683795,3.1622776601683795
13,19,0.2987287999712862,p,58.0,Unlimited Time,l,57.08317330887385,49.09988299083425,69.28572860135652,57.99944260775853,49.09988299083425,57.08317330887385,57.99944260775853,69.28572860135652,-10,-0.33,0.33,10,60,50,59.67,60.33,70,3.1622776601683795,3.1622776601683795,3.1622776601683795,3.1622776601683795
13,20,0.13236270000925288,p,63.8,Unlimited Time,l,61.01212053685551,53.328108914987,65.19461165674161,63.79910805400748,53.328108914987,61.01212053685551,63.79910805400748,65.19461165674161,-10,-0.33,0.33,10,60,50,59.67,60.33,70,3.1622776601683795,3.1622776601683795,3.1622776601683795,3.1622776601683795
14,1,,,0.0,Limited Time,i,66.33503827703971,51.88042715241807,52.36499087977737,69.19429503703765,51.88042715241807,52.36499087977737,66.33503827703971,69.19429503703765,-10,-10,10,10,60,50,50,70,70,3.1622776601683795,10,3.1622776601683795,10
14,2,0.2955091000185348,o,45.3,Limited Time,i,68.45668389388064,48.07876390439139,45.285337090126504,49.48763049166484,48.07876390439139,45.285337090126504,68.45668389388064,49.48763049166484,-10,-10,10,10,60,50,50,70,70,3.1622776601683795,10,3.1622776601683795,10
14,3,0.04796840000199154,o,63.1,Limited Time,i,70.53496691500833,45.77538030720734,63.08649973649406,84.09076603640199,45.77538030720734,63.08649973649406,70.53496691500833,84.09076603640199,-10,-10,10,10,60,50,50,70,70,3.1622776601683795,10,3.1622776601683795,10
14,4,0.10375000000931323,o,58.6,Limited Time,i,58.37257537884653,47.90159739041649,58.63412760437108,82.79816459459792,47.90159739041649,58.63412760437108,58.37257537884653,82.79816459459792,-10,-10,10,10,60,50,50,70,70,3.1622776601683795,10,3.1622776601683795,10
14,5,0.035511699970811605,o,58.3,Limited Time,i,70.41067793275046,52.23340364217411,58.309328434935296,67.79543181252211,52.23340364217411,58.309328434935296,70.41067793275046,67.79543181252211,-10,-10,10,10,60,50,50,70,70,3.1622776601683795,10,3.1622776601683795,10
14,6,0.018613099993672222,o,52.4,Limited Time,i,68.12444317026487,52.16177596968776,52.35776902942274,69.74814172917677,52.16177596968776,52.35776902942274,68.12444317026487,69.74814172917677,-10,-10,10,10,60,50,50,70,70,3.1622776601683795,10,3.1622776601683795,10
14,7,0.05587979999836534,o,47.5,Limited Time,i,73.5272623080533,47.434361209398084,47.457484118453195,85.85804319784552,47.434361209398084,47.457484118453195,73.5272623080533,85.85804319784552,-10,-10,10,10,60,50,50,70,70,3.1622776601683795,10,3.1622776601683795,10
14,8,0.07957230001920834,o,57.1,Limited Time,i,71.9431341916161,48.80456523749483,57.06842991052136,63.505225016140606,48.80456523749483,57.06842991052136,71.9431341916161,63.505225016140606,-10,-10,10,10,60,50,50,70,70,3.1622776601683795,10,3.1622776601683795,10
14,9,0.1449088000226766,o,52.1,Limited Time,i,70.87867742898322,46.24911953566042,52.12022143896735,73.62100640603988,46.24911953566042,52.12022143896735,70.87867742898322,73.62100640603988,-10,-10,10,10,60,50,50,70,70,3.1622776601683795,10,3.1622776601683795,10
14,10,0.18229710002196953,o,51.0,Limited Time,i,69.51994544784715,46.612433694834614,50.970407060031185,62.77864998045895,46.612433694834614,50.970407060031185,69.51994544784715,62.77864998045895,-10,-10,10,10,60,50,50,70,70,3.1622776601683795,10,3.1622776601683795,10
14,11,0.13390269997762516,o,45.2,Limited Time,i,73.57178324433717,47.381321529969135,45.18067197209526,70.0360039495879,47.381321529969135,45.18067197209526,73.57178324433717,70.0360039495879,-10,-10,10,10,60,50,50,70,70,3.1622776601683795,10,3.1622776601683795,10
14,12,0.1707707999739796,o,61.7,Limited Time,i,64.84972715583638,45.86360685253612,61.67277571192021,66.94556176007379,45.86360685253612,61.67277571192021,64.84972715583638,66.94556176007379,-10,-10,10,10,60,50,50,70,70,3.1622776601683795,10,3.1622776601683795,10
14,13,0.1837260999600403,o,54.1,Limited Time,i,76.83776232258406,43.541481928726874,54.05896845414164,79.64660186709239,43.541481928726874,54.05896845414164,76.83776232258406,79.64660186709239,-10,-10,10,10,60,50,50,70,70,3.1622776601683795,10,3.1622776601683795,10
14,14,0.15006729995366186,o,41.2,Limited Time,i,67.237983534208,50.999768569932094,41.21398149076654,69.00467911434613,50.999768569932094,41.21398149076654,67.237983534208,69.00467911434613,-10,-10,10,10,60,50,50,70,70,3.1622776601683795,10,3.1622776601683795,10
14,15,0.1396190000232309,o,46.5,Limited Time,i,73.42560055443175,54.20502720278458,46.50852372284322,65.50429350216349,54.20502720278458,46.50852372284322,73.42560055443175,65.50429350216349,-10,-10,10,10,60,50,50,70,70,3.1622776601683795,10,3.1622776601683795,10
14,16,0.14239850000012666,o,22.6,Limited Time,i,70.09019371251723,52.51900531223498,22.636797006797448,78.33278727763619,52.51900531223498,22.636797006797448,70.09019371251723,78.33278727763619,-10,-10,10,10,60,50,50,70,70,3.1622776601683795,10,3.1622776601683795,10
14,17,0.1467745000263676,o,46.8,Limited Time,i,68.61942438964842,54.2566183784736,46.75911346677675,71.04504240920222,54.2566183784736,46.75911346677675,68.61942438964842,71.04504240920222,-10,-10,10,10,60,50,50,70,70,3.1622776601683795,10,3.1622776601683795,10
14,18,0.17637429997557774,o,55.3,Limited Time,i,70.49054779030926,57.186426445312804,55.30877325675208,74.04563874389483,57.186426445312804,55.30877325675208,70.49054779030926,74.04563874389483,-10,-10,10,10,60,50,50,70,70,3.1622776601683795,10,3.1622776601683795,10
14,19,0.14088770002126694,o,59.9,Limited Time,i,64.93191693845066,54.65380394678751,59.91808267658239,71.93841796293522,54.65380394678751,59.91808267658239,64.93191693845066,71.93841796293522,-10,-10,10,10,60,50,50,70,70,3.1622776601683795,10,3.1622776601683795,10
14,20,0.14102270000148565,o,53.7,Limited Time,i,69.07704935381629,51.89160150321209,53.66006832227148,52.04631770071151,51.89160150321209,53.66006832227148,69.07704935381629,52.04631770071151,-10,-10,10,10,60,50,50,70,70,3.1622776601683795,10,3.1622776601683795,10
15,1,0.5342328000115231,o,50.6,Unlimited Time,l,57.020164451128416,66.97395169214724,50.57406600786678,51.39035030624247,50.57406600786678,57.020164451128416,51.39035030624247,66.97395169214724,-10,-0.33,0.33,10,60,50,59.67,60.33,70,3.1622776601683795,3.1622776601683795,3.1622776601683795,3.1622776601683795
15,2,0.016720500017981976,o,49.5,Unlimited Time,l,61.88366845883548,67.91673098154098,49.546755072999645,61.625989442555834,49.546755072999645,61.88366845883548,61.625989442555834,67.91673098154098,-10,-0.33,0.33,10,60,50,59.67,60.33,70,3.1622776601683795,3.1622776601683795,3.1622776601683795,3.1622776601683795
15,3,0.13592719996813685,o,54.5,Unlimited Time,l,61.69422529374772,70.14825071547502,54.50366372947158,59.41560476056119,54.50366372947158,61.69422529374772,59.41560476056119,70.14825071547502,-10,-0.33,0.33,10,60,50,59.67,60.33,70,3.1622776601683795,3.1622776601683795,3.1622776601683795,3.1622776601683795
15,4,0.021260400011669844,o,49.4,Unlimited Time,l,63.40612253629473,66.38957291264462,49.3606997983136,61.965921069582954,49.3606997983136,63.40612253629473,61.965921069582954,66.38957291264462,-10,-0.33,0.33,10,60,50,59.67,60.33,70,3.1622776601683795,3.1622776601683795,3.1622776601683795,3.1622776601683795
15,5,0.239494499983266,o,49.2,Unlimited Time,l,56.537854566274376,71.16126663773832,49.16090953103728,59.503130374148114,49.16090953103728,56.537854566274376,59.503130374148114,71.16126663773832,-10,-0.33,0.33,10,60,50,59.67,60.33,70,3.1622776601683795,3.1622776601683795,3.1622776601683795,3.1622776601683795
15,6,0.02457399998093024,o,55.6,Unlimited Time,l,63.49538359063416,72.73420136988639,55.64637932157682,57.332227549262825,55.64637932157682,63.49538359063416,57.332227549262825,72.73420136988639,-10,-0.33,0.33,10,60,50,59.67,60.33,70,3.1622776601683795,3.1622776601683795,3.1622776601683795,3.1622776601683795
15,7,0.005318199982866645,o,50.8,Unlimited Time,l,54.627460665753134,69.61072849712868,50.76446325293198,61.7976422860952,50.76446325293198,54.627460665753134,61.7976422860952,69.61072849712868,-10,-0.33,0.33,10,60,50,59.67,60.33,70,3.1622776601683795,3.1622776601683795,3.1622776601683795,3.1622776601683795
15,8,0.004698699980508536,o,50.7,Unlimited Time,l,65.04515979370608,70.59170204077105,50.65014817694421,55.661631562540265,50.65014817694421,65.04515979370608,55.661631562540265,70.59170204077105,-10,-0.33,0.33,10,60,50,59.67,60.33,70,3.1622776601683795,3.1622776601683795,3.1622776601683795,3.1622776601683795
15,9,0.001566199993249029,o,48.5,Unlimited Time,l,56.37997745638928,66.50332483238036,48.45075297502399,61.3981534545631,48.45075297502399,56.37997745638928,61.3981534545631,66.50332483238036,-10,-0.33,0.33,10,60,50,59.67,60.33,70,3.1622776601683795,3.1622776601683795,3.1622776601683795,3.1622776601683795
15,10,0.19494390004547313,p,61.2,Unlimited Time,l,56.64937538084581,72.71258990739612,49.87125436919649,61.18271778218126,49.87125436919649,56.64937538084581,61.18271778218126,72.71258990739612,-10,-0.33,0.33,10,60,50,59.67,60.33,70,3.1622776601683795,3.1622776601683795,3.1622776601683795,3.1622776601683795
15,11,0.02268029999686405,p,62.1,Unlimited Time,l,60.399542998917035,72.80868335082886,52.01292988958051,62.05589733793445,52.01292988958051,60.399542998917035,62.05589733793445,72.80868335082886,-10,-0.33,0.33,10,60,50,59.67,60.33,70,3.1622776601683795,3.1622776601683795,3.1622776601683795,3.1622776601683795
15,12,0.011368399951606989,p,65.8,Unlimited Time,l,62.60594720669024,71.51476655989696,52.25875777438841,65.77490493452339,52.25875777438841,62.60594720669024,65.77490493452339,71.51476655989696,-10,-0.33,0.33,10,60,50,59.67,60.33,70,3.1622776601683795,3.1622776601683795,3.1622776601683795,3.1622776601683795
15,13,0.061333500023465604,q,57.7,Unlimited Time,l,57.72640388177401,73.2876228869699,46.778748900590855,60.86103759858211,46.778748900590855,57.72640388177401,60.86103759858211,73.2876228869699,-10,-0.33,0.33,10,60,50,59.67,60.33,70,3.1622776601683795,3.1622776601683795,3.1622776601683795,3.1622776601683795
15,14,0.10321450000628829,w,69.9,Unlimited Time,l,56.6002114082501,69.9375936562542,52.0564181110007,60.92675549004016,52.0564181110007,56.6002114082501,60.92675549004016,69.9375936562542,-10,-0.33,0.33,10,60,50,59.67,60.33,70,3.1622776601683795,3.1622776601683795,3.1622776601683795,3.1622776601683795
15,15,0.013267700036522001,q,61.4,Unlimited Time,l,61.373097569011776,71.83932022055504,45.66697794602557,64.06715961772393,45.66697794602557,61.373097569011776,64.06715961772393,71.83932022055504,-10,-0.33,0.33,10,60,50,59.67,60.33,70,3.1622776601683795,3.1622776601683795,3.1622776601683795,3.1622776601683795
15,16,0.14574690000154078,q,61.2,Unlimited Time,l,61.191093732614455,69.83859435019595,52.87238447292374,61.318514784799234,52.87238447292374,61.191093732614455,61.318514784799234,69.83859435019595,-10,-0.33,0.33,10,60,50,59.67,60.33,70,3.1622776601683795,3.1622776601683795,3.1622776601683795,3.1622776601683795
15,17,0.008675399993080646,o,48.0,Unlimited Time,l,60.12098834107076,63.19666518611888,48.0185869596209,58.34042366827891,48.0185869596209,60.12098834107076,58.34042366827891,63.19666518611888,-10,-0.33,0.33,10,60,50,59.67,60.33,70,3.1622776601683795,3.1622776601683795,3.1622776601683795,3.1622776601683795
15,18,0.005782900028862059,o,53.4,Unlimited Time,l,62.613284507299255,74.28640706157242,53.444425844546515,63.51575212645903,53.444425844546515,62.613284507299255,63.51575212645903,74.28640706157242,-10,-0.33,0.33,10,60,50,59.67,60.33,70,3.1622776601683795,3.1622776601683795,3.1622776601683795,3.1622776601683795
15,19,0.020338600035756826,w,69.3,Unlimited Time,l,57.08317330887385,69.28572860135652,49.09988299083425,57.99944260775853,49.09988299083425,57.08317330887385,57.99944260775853,69.28572860135652,-10,-0.33,0.33,10,60,50,59.67,60.33,70,3.1622776601683795,3.1622776601683795,3.1622776601683795,3.1622776601683795
15,20,0.014058600005228072,q,61.0,Unlimited Time,l,61.01212053685551,65.19461165674161,53.328108914987,63.79910805400748,53.328108914987,61.01212053685551,63.79910805400748,65.19461165674161,-10,-0.33,0.33,10,60,50,59.67,60.33,70,3.1622776601683795,3.1622776601683795,3.1622776601683795,3.1622776601683795
16,1,,,0.0,Limited Time,h,65.0312913750342,78.56808097687448,57.48483094653699,48.82795737934828,48.82795737934828,65.0312913750342,78.56808097687448,57.48483094653699,-10,-0.33,0.33,10,60,50,59.67,60.33,70,10,10,10,10
16,2,0.023810099984984845,p,60.8,Limited Time,h,62.35875863893125,58.62582335342112,76.97326117957195,60.77126571379797,60.77126571379797,62.35875863893125,58.62582335342112,76.97326117957195,-10,-0.33,0.33,10,60,50,59.67,60.33,70,10,10,10,10
16,3,0.010144300002139062,p,39.1,Limited Time,h,54.19009491679192,73.44281101619532,71.90561514282052,39.063241868220935,39.063241868220935,54.19009491679192,73.44281101619532,71.90561514282052,-10,-0.33,0.33,10,60,50,59.67,60.33,70,10,10,10,10
16,4,0.08132699999259785,q,62.3,Limited Time,h,62.29294008719422,59.83300683077001,100.54200235386337,57.75230643912487,57.75230643912487,62.29294008719422,59.83300683077001,100.54200235386337,-10,-0.33,0.33,10,60,50,59.67,60.33,70,10,10,10,10
16,5,0.10739919997286052,q,71.5,Limited Time,h,71.51197561066908,40.89869841341975,85.19615880404982,53.098687477292245,53.098687477292245,71.51197561066908,40.89869841341975,85.19615880404982,-10,-0.33,0.33,10,60,50,59.67,60.33,70,10,10,10,10
16,6,0.16898620000574738,p,46.7,Limited Time,h,71.04425794399933,45.20016013448963,65.39597300904678,46.68251177882756,46.68251177882756,71.04425794399933,45.20016013448963,65.39597300904678,-10,-0.33,0.33,10,60,50,59.67,60.33,70,10,10,10,10
16,7,0.08378769998671487,w,57.1,Limited Time,h,48.22272095968795,57.054800706527665,66.7885979259589,53.771456608572095,53.771456608572095,48.22272095968795,57.054800706527665,66.7885979259589,-10,-0.33,0.33,10,60,50,59.67,60.33,70,10,10,10,10
16,8,0.051704399986192584,q,73.5,Limited Time,h,73.51063134255318,63.365370491814424,44.02094572725098,74.874474586464,74.874474586464,73.51063134255318,63.365370491814424,44.02094572725098,-10,-0.33,0.33,10,60,50,59.67,60.33,70,10,10,10,10
16,9,0.007092599989846349,w,71.1,Limited Time,h,61.321809202464294,71.08890834477108,61.794884238675664,53.51158551698196,53.51158551698196,61.321809202464294,71.08890834477108,61.794884238675664,-10,-0.33,0.33,10,60,50,59.67,60.33,70,10,10,10,10
16,10,0.04135889996541664,o,75.1,Limited Time,h,73.63042822360872,63.03043598386958,75.08525081262711,56.39593249697329,56.39593249697329,73.63042822360872,63.03043598386958,75.08525081262711,-10,-0.33,0.33,10,60,50,59.67,60.33,70,10,10,10,10
16,11,0.00034529995173215866,o,63.9,Limited Time,h,41.33061819030132,34.925664741484574,63.94308123836215,44.34838670066981,44.34838670066981,41.33061819030132,34.925664741484574,63.94308123836215,-10,-0.33,0.33,10,60,50,59.67,60.33,70,10,10,10,10
16,12,0.003381500020623207,p,63.2,Limited Time,h,56.334594126594446,76.81087504113947,64.80120800715608,63.20661706589109,63.20661706589109,56.334594126594446,76.81087504113947,64.80120800715608,-10,-0.33,0.33,10,60,50,59.67,60.33,70,10,10,10,10
16,13,0.019983500009402633,q,59.7,Limited Time,h,59.698370533406184,59.01339463147587,68.92871170125632,44.26782126351531,44.26782126351531,59.698370533406184,59.01339463147587,68.92871170125632,-10,-0.33,0.33,10,60,50,59.67,60.33,70,10,10,10,10
16,14,0.002282499975990504,q,44.3,Limited Time,h,44.25691580206753,81.62275422721765,69.31643571479574,53.12007945211185,53.12007945211185,44.25691580206753,81.62275422721765,69.31643571479574,-10,-0.33,0.33,10,60,50,59.67,60.33,70,10,10,10,10
16,15,0.03974679997190833,q,60.2,Limited Time,h,60.153369095430584,68.32002476975012,85.10580297276124,53.309016574983275,53.309016574983275,60.153369095430584,68.32002476975012,85.10580297276124,-10,-0.33,0.33,10,60,50,59.67,60.33,70,10,10,10,10
16,16,0.07587479997891933,q,73.1,Limited Time,h,73.12257127030023,62.240983637921886,69.82967507132453,48.07779650826004,48.07779650826004,73.12257127030023,62.240983637921886,69.82967507132453,-10,-0.33,0.33,10,60,50,59.67,60.33,70,10,10,10,10
16,17,0.022208300011698157,w,64.6,Limited Time,h,60.44297095142958,64.62009523660198,85.37574485120318,47.67483703553391,47.67483703553391,60.44297095142958,64.62009523660198,85.37574485120318,-10,-0.33,0.33,10,60,50,59.67,60.33,70,10,10,10,10
16,18,0.030785199953243136,q,54.4,Limited Time,h,54.37791631549225,73.75728205271912,71.55959093298762,41.29050643528074,41.29050643528074,54.37791631549225,73.75728205271912,71.55959093298762,-10,-0.33,0.33,10,60,50,59.67,60.33,70,10,10,10,10
16,19,0.021525399992242455,w,48.2,Limited Time,h,46.92480083252048,48.174504599409275,67.06295120049018,39.27850478877968,39.27850478877968,46.92480083252048,48.174504599409275,67.06295120049018,-10,-0.33,0.33,10,60,50,59.67,60.33,70,10,10,10,10
16,20,0.05457630002638325,q,64.7,Limited Time,h,64.71017512765182,52.703833007187754,64.33684723125889,69.30733432167821,69.30733432167821,64.71017512765182,52.703833007187754,64.33684723125889,-10,-0.33,0.33,10,60,50,59.67,60.33,70,10,10,10,10
