trials.thisRepN,trials.thisTrialN,trials.thisN,trials.thisIndex,trials_2.thisRepN,trials_2.thisTrialN,trials_2.thisN,trials_2.thisIndex,trials_5.thisRepN,trials_5.thisTrialN,trials_5.thisN,trials_5.thisIndex,trials_3.thisRepN,trials_3.thisTrialN,trials_3.thisN,trials_3.thisIndex,trials_4.thisRepN,trials_4.thisTrialN,trials_4.thisN,trials_4.thisIndex,text_12.started,key_resp_6.started,key_resp_6.keys,key_resp_6.rt,textbox_2.started,textbox_3.started,textbox_4.started,key_resp_7.started,key_resp_7.keys,key_resp_7.rt,textbox_5.started,key_resp_8.started,key_resp_8.keys,key_resp_8.rt,textbox_6.started,key_resp_9.started,key_resp_9.keys,key_resp_9.rt,textbox_7.started,key_resp_10.started,key_resp_10.keys,key_resp_10.rt,text_5.started,key_resp_4.started,key_resp_4.keys,key_resp_4.rt,text.started,key_resp.started,key_resp.keys,key_resp.rt,text_2.started,image.started,text_2.stopped,image.stopped,text_3.started,key_resp_2.started,key_resp_2.keys,key_resp_2.rt,text_6.started,key_resp_5.started,key_resp_5.keys,key_resp_5.rt,text_4.started,key_resp_3.started,key_resp_3.keys,key_resp_3.rt,text_7.started,image_2.started,text_10.started,key_resp_14.started,key_resp_14.keys,key_resp_14.rt,text_8.started,key_resp_12.started,key_resp_12.keys,key_resp_12.rt,text_9.started,key_resp_13.started,key_resp_13.keys,key_resp_13.rt,text_4.stopped,key_resp_3.stopped,textbox_8.started,key_resp_11.started,text_11.started,key_resp_11.keys,key_resp_11.rt,participant,session,date,expName,psychopyVersion,frameRate,
,,,,,,,,,,,,,,,,,,,,12.52154950000022,12.52154950000022,space,1.6606719000001249,,,,,,,,,,,,,,,,,,,,,,,,,,,,,,,,,,,,,,,,,,,,,,,,,,,,,,,,,,,,,,,,2,001,2023-04-06_23h27.33.816,game,2022.2.5,59.994408520891696,
,,,,,,,,,,,,,,,,,,,,,,,,14.218471999999565,14.218471999999565,14.218471999999565,14.218471999999565,space,26.032930500000475,,,,,,,,,,,,,,,,,,,,,,,,,,,,,,,,,,,,,,,,,,,,,,,,,,,,,,,,,,2,001,2023-04-06_23h27.33.816,game,2022.2.5,59.994408520891696,
,,,,,,,,,,,,,,,,,,,,,,,,,,,,,,40.28307020000011,40.28307020000011,b,2.6369297000001097,,,,,,,,,,,,,,,,,,,,,,,,,,,,,,,,,,,,,,,,,,,,,,,,,,,,,,2,001,2023-04-06_23h27.33.816,game,2022.2.5,59.994408520891696,
,,,,,,,,,,,,,,,,,,,,,,,,,,,,,,,,,,42.94974699999966,42.94974699999966,b,2.5325971000011123,,,,,,,,,,,,,,,,,,,,,,,,,,,,,,,,,,,,,,,,,,,,,,,,,,2,001,2023-04-06_23h27.33.816,game,2022.2.5,59.994408520891696,
,,,,,,,,,,,,,,,,,,,,,,,,,,,,,,,,,,,,,,45.49971329999971,45.49971329999971,b,1.783891100000801,,,,,,,,,,,,,,,,,,,,,,,,,,,,,,,,,,,,,,,,,,,,,,2,001,2023-04-06_23h27.33.816,game,2022.2.5,59.994408520891696,
,,,,,,,,,,,,,,,,,,,,,,,,,,,,,,,,,,,,,,,,,,47.29977520000011,47.29977520000011,space,1.6493598000006386,,,,,,,,,,,,,,,,,,,,,,,,,,,,,,,,,,,,,,,,,,2,001,2023-04-06_23h27.33.816,game,2022.2.5,59.994408520891696,
0,0,0,0,,,,,,,,,,,,,,,,,,,,,,,,,,,,,,,,,,,,,,,,,,,48.9665144999999,48.9665144999999,q,0.5668906000000788,49.57972729999983,49.57972729999983,,,,,,,,,,,,,,,,,,,,,,,,,,,,,,,,,,,,2,001,2023-04-06_23h27.33.816,game,2022.2.5,59.994408520891696,
1,0,1,0,,,,,,,,,,,,,,,,,,,,,,,,,,,,,,,,,,,,,,,,,,,49.96661949999998,49.96661949999998,w,0.5251618000002054,50.5189977,50.5189977,,,,,,,,,,,,,,,,,,,,,,,,,,,,,,,,,,,,2,001,2023-04-06_23h27.33.816,game,2022.2.5,59.994408520891696,
2,0,2,0,,,,,,,,,,,,,,,,,,,,,,,,,,,,,,,,,,,,,,,,,,,50.93315519999942,50.93315519999942,o,0.38031670000054874,51.33339890000025,51.33339890000025,51.733006899999964,51.733006899999964,,,,,,,,,,,,,,,,,,,,,,,,,,,,,,,,,,2,001,2023-04-06_23h27.33.816,game,2022.2.5,59.994408520891696,
3,0,3,0,,,,,,,,,,,,,,,,,,,,,,,,,,,,,,,,,,,,,,,,,,,51.733006899999964,51.733006899999964,p,0.3483046999999715,52.09975209999993,52.09975209999993,52.49976109999989,52.49976109999989,,,,,,,,,,,,,,,,,,,,,,,,,,,,,,,,,,2,001,2023-04-06_23h27.33.816,game,2022.2.5,59.994408520891696,
4,0,4,0,,,,,,,,,,,,,,,,,,,,,,,,,,,,,,,,,,,,,,,,,,,52.49976109999989,52.49976109999989,o,0.26164220000009664,52.783535599999595,52.783535599999595,53.19131610000022,53.19131610000022,,,,,,,,,,,,,,,,,,,,,,,,,,,,,,,,,,2,001,2023-04-06_23h27.33.816,game,2022.2.5,59.994408520891696,
,,,,,,,,,,,,,,,,,,,,,,,,,,,,,,,,,,,,,,,,,,,,,,,,,,,,,,53.19131610000022,53.19131610000022,space,2.464144900000065,,,,,,,,,,,,,,,,,,,,,,,,,,,,,,2,001,2023-04-06_23h27.33.816,game,2022.2.5,59.994408520891696,
,,,,,,,,,,,,,,,,,,,,,,,,,,,,,,,,,,,,,,,,,,,,,,,,,,,,,,,,,,55.68339190000006,55.68339190000006,space,1.1885904999999184,,,,,,,,,,,,,,,,,,,,,,,,,,2,001,2023-04-06_23h27.33.816,game,2022.2.5,59.994408520891696,
,,,,0,0,0,0,,,,,,,,,,,,,,,,,,,,,,,,,,,,,,,,,,,,,,,,,,,,,,,,,,,,,,,56.89953340000011,56.89953340000011,q,0.2226064000005863,57.18261299999995,57.18261299999995,,,,,,,,,,,,,,,,,,,,2,001,2023-04-06_23h27.33.816,game,2022.2.5,59.994408520891696,
,,,,1,0,1,0,,,,,,,,,,,,,,,,,,,,,,,,,,,,,,,,,,,,,,,,,,,,,,,,,,,,,,,57.566191299999446,57.566191299999446,w,0.2892727000007653,57.89848139999958,57.89848139999958,,,,,,,,,,,,,,,,,,,,2,001,2023-04-06_23h27.33.816,game,2022.2.5,59.994408520891696,
,,,,2,0,2,0,,,,,,,,,,,,,,,,,,,,,,,,,,,,,,,,,,,,,,,,,,,,,,,,,,,,,,,58.29951429999983,58.29951429999983,q,0.1331915000000663,58.46580780000022,58.46580780000022,,,,,,,,,,,,,,,,,,,,2,001,2023-04-06_23h27.33.816,game,2022.2.5,59.994408520891696,
,,,,3,0,3,0,,,,,,,,,,,,,,,,,,,,,,,,,,,,,,,,,,,,,,,,,,,,,,,,,,,,,,,58.86664449999989,58.86664449999989,q,0.15209890000096493,59.07674709999992,59.07674709999992,,,,,,,,,,,,,,,,,,,,2,001,2023-04-06_23h27.33.816,game,2022.2.5,59.994408520891696,
,,,,4,0,4,0,,,,,,,,,,,,,,,,,,,,,,,,,,,,,,,,,,,,,,,,,,,,,,,,,,,,,,,59.46633789999942,59.46633789999942,q,0.1791495000006762,59.695079299999634,59.695079299999634,,,,,,,,,,,,,,,,,,,,2,001,2023-04-06_23h27.33.816,game,2022.2.5,59.994408520891696,
,,,,,,,,,,,,,,,,,,,,,,,,,,,,,,,,,,,,,,,,,,,,,,,,,,,,,,60.093631699999605,60.093631699999605,space,1.0656849000006332,,,,,,,,,,,,,,,,,,,,,,,,,,,,,,2,001,2023-04-06_23h27.33.816,game,2022.2.5,59.994408520891696,
,,,,,,,,,,,,,,,,,,,,,,,,,,,,,,,,,,,,,,,,,,,,,,,,,,,,,,,,,,,,,,,,,,,,61.18304850000004,61.18304850000004,space,1.0920660000010685,,,,,,,,,,,,,,,,2,001,2023-04-06_23h27.33.816,game,2022.2.5,59.994408520891696,
,,,,,,,,0,0,0,0,0,0,0,0,,,,,,,,,,,,,,,,,,,,,,,,,,,,,,,63.349676400000135,63.349676400000135,q,1.0587427000009484,64.43382130000009,64.43382130000009,64.83301449999999,64.83301449999999,,,,,,,,,,,,,,,,,,,62.30016239999986,62.30016239999986,space,1.032489500000338,,,,,,,,,,,,2,001,2023-04-06_23h27.33.816,game,2022.2.5,59.994408520891696,
,,,,,,,,0,0,0,0,1,0,1,0,,,,,,,,,,,,,,,,,,,,,,,,,,,,,,,64.83301449999999,64.83301449999999,w,0.32934300000033545,65.18332339999961,65.18332339999961,65.58323109999947,65.58323109999947,,,,,,,,,,,,,,,,,,,,,,,,,,,,,,,,,,2,001,2023-04-06_23h27.33.816,game,2022.2.5,59.994408520891696,
,,,,,,,,0,0,0,0,2,0,2,0,,,,,,,,,,,,,,,,,,,,,,,,,,,,,,,65.58323109999947,65.58323109999947,o,0.7553348000001279,66.36703949999992,66.36703949999992,66.76664660000006,66.76664660000006,,,,,,,,,,,,,,,,,,,,,,,,,,,,,,,,,,2,001,2023-04-06_23h27.33.816,game,2022.2.5,59.994408520891696,
,,,,,,,,0,0,0,0,3,0,3,0,,,,,,,,,,,,,,,,,,,,,,,,,,,,,,,66.76664660000006,66.76664660000006,p,0.3091677000011259,67.10012310000002,67.10012310000002,67.49966510000013,67.49966510000013,,,,,,,,,,,,,,,,,,,,,,,,,,,,,,,,,,2,001,2023-04-06_23h27.33.816,game,2022.2.5,59.994408520891696,
,,,,,,,,0,0,0,0,4,0,4,0,,,,,,,,,,,,,,,,,,,,,,,,,,,,,,,67.49966510000013,67.49966510000013,p,0.5423295000000508,68.06674339999972,68.06674339999972,68.46668260000024,68.46668260000024,,,,,,,,,,,,,,,,,,,,,,,,,,,,,,,,,,2,001,2023-04-06_23h27.33.816,game,2022.2.5,59.994408520891696,
,,,,,,,,0,0,0,0,5,0,5,0,,,,,,,,,,,,,,,,,,,,,,,,,,,,,,,68.46668260000024,68.46668260000024,o,0.22970380000060686,68.71688189999986,68.71688189999986,69.11655530000007,69.11655530000007,,,,,,,,,,,,,,,,,,,,,,,,,,,,,,,,,,2,001,2023-04-06_23h27.33.816,game,2022.2.5,59.994408520891696,
,,,,,,,,0,0,0,0,6,0,6,0,,,,,,,,,,,,,,,,,,,,,,,,,,,,,,,69.11655530000007,69.11655530000007,w,0.20704070000010688,69.35010489999968,69.35010489999968,69.74969770000007,69.74969770000007,,,,,,,,,,,,,,,,,,,,,,,,,,,,,,,,,,2,001,2023-04-06_23h27.33.816,game,2022.2.5,59.994408520891696,
,,,,,,,,0,0,0,0,7,0,7,0,,,,,,,,,,,,,,,,,,,,,,,,,,,,,,,69.74969770000007,69.74969770000007,w,0.21159940000052302,69.98349270000017,69.98349270000017,70.38314660000015,70.38314660000015,,,,,,,,,,,,,,,,,,,,,,,,,,,,,,,,,,2,001,2023-04-06_23h27.33.816,game,2022.2.5,59.994408520891696,
,,,,,,,,0,0,0,0,8,0,8,0,,,,,,,,,,,,,,,,,,,,,,,,,,,,,,,70.38314660000015,70.38314660000015,q,0.3352936999999656,70.75008359999993,70.75008359999993,71.15044190000026,71.15044190000026,,,,,,,,,,,,,,,,,,,,,,,,,,,,,,,,,,2,001,2023-04-06_23h27.33.816,game,2022.2.5,59.994408520891696,
,,,,,,,,0,0,0,0,9,0,9,0,,,,,,,,,,,,,,,,,,,,,,,,,,,,,,,71.15044190000026,71.15044190000026,w,0.21118699999988166,71.38372869999966,71.38372869999966,71.78312720000031,71.78312720000031,,,,,,,,,,,,,,,,,,,,,,,,,,,,,,,,,,2,001,2023-04-06_23h27.33.816,game,2022.2.5,59.994408520891696,
,,,,,,,,0,0,0,0,10,0,10,0,,,,,,,,,,,,,,,,,,,,,,,,,,,,,,,71.78312720000031,71.78312720000031,w,0.1889855000008538,72.00009779999982,72.00009779999982,72.40002689999983,72.40002689999983,,,,,,,,,,,,,,,,,,,,,,,,,,,,,,,,,,2,001,2023-04-06_23h27.33.816,game,2022.2.5,59.994408520891696,
,,,,,,,,0,0,0,0,11,0,11,0,,,,,,,,,,,,,,,,,,,,,,,,,,,,,,,72.40002689999983,72.40002689999983,o,0.18781320000016422,72.61694569999963,72.61694569999963,73.01653220000026,73.01653220000026,,,,,,,,,,,,,,,,,,,,,,,,,,,,,,,,,,2,001,2023-04-06_23h27.33.816,game,2022.2.5,59.994408520891696,
,,,,,,,,0,0,0,0,12,0,12,0,,,,,,,,,,,,,,,,,,,,,,,,,,,,,,,73.01653220000026,73.01653220000026,p,0.17299420000017562,73.21692619999976,73.21692619999976,73.61650060000011,73.61650060000011,,,,,,,,,,,,,,,,,,,,,,,,,,,,,,,,,,2,001,2023-04-06_23h27.33.816,game,2022.2.5,59.994408520891696,
,,,,,,,,0,0,0,0,13,0,13,0,,,,,,,,,,,,,,,,,,,,,,,,,,,,,,,73.61650060000011,73.61650060000011,p,0.17885350000051403,73.81668209999953,73.81668209999953,74.21655569999984,74.21655569999984,,,,,,,,,,,,,,,,,,,,,,,,,,,,,,,,,,2,001,2023-04-06_23h27.33.816,game,2022.2.5,59.994408520891696,
,,,,,,,,0,0,0,0,14,0,14,0,,,,,,,,,,,,,,,,,,,,,,,,,,,,,,,74.21655569999984,74.21655569999984,o,0.16585529999974824,74.40000710000004,74.40000710000004,74.7999178,74.7999178,,,,,,,,,,,,,,,,,,,,,,,,,,,,,,,,,,2,001,2023-04-06_23h27.33.816,game,2022.2.5,59.994408520891696,
,,,,,,,,0,0,0,0,15,0,15,0,,,,,,,,,,,,,,,,,,,,,,,,,,,,,,,74.7999178,74.7999178,p,0.08967350000057195,74.91688280000017,74.91688280000017,75.31633489999967,75.31633489999967,,,,,,,,,,,,,,,,,,,,,,,,,,,,,,,,,,2,001,2023-04-06_23h27.33.816,game,2022.2.5,59.994408520891696,
,,,,,,,,0,0,0,0,16,0,16,0,,,,,,,,,,,,,,,,,,,,,,,,,,,,,,,75.31633489999967,75.31633489999967,o,0.12079660000017611,75.46675929999947,75.46675929999947,75.8665261999995,75.8665261999995,,,,,,,,,,,,,,,,,,,,,,,,,,,,,,,,,,2,001,2023-04-06_23h27.33.816,game,2022.2.5,59.994408520891696,
,,,,,,,,0,0,0,0,17,0,17,0,,,,,,,,,,,,,,,,,,,,,,,,,,,,,,,75.8665261999995,75.8665261999995,o,0.06863810000049853,75.96679500000027,75.96679500000027,76.36652460000005,76.36652460000005,,,,,,,,,,,,,,,,,,,,,,,,,,,,,,,,,,2,001,2023-04-06_23h27.33.816,game,2022.2.5,59.994408520891696,
,,,,,,,,0,0,0,0,18,0,18,0,,,,,,,,,,,,,,,,,,,,,,,,,,,,,,,76.36652460000005,76.36652460000005,o,0.11310060000050726,76.50039060000017,76.50039060000017,76.8999203000003,76.8999203000003,,,,,,,,,,,,,,,,,,,,,,,,,,,,,,,,,,2,001,2023-04-06_23h27.33.816,game,2022.2.5,59.994408520891696,
,,,,,,,,0,0,0,0,19,0,19,0,,,,,,,,,,,,,,,,,,,,,,,,,,,,,,,76.8999203000003,76.8999203000003,o,0.05116050000106043,76.98355429999992,76.98355429999992,77.38646739999967,77.38646739999967,,,,,,,,,,,,,,,,,,,,,,,,,,,,,,,,,,2,001,2023-04-06_23h27.33.816,game,2022.2.5,59.994408520891696,
,,,,,,,,0,0,0,0,,,,,0,0,0,0,,,,,,,,,,,,,,,,,,,,,,,,,,,,,,,,,,,77.38646739999967,77.38646739999967,space,0.8054819999997562,,,,,78.83339590000014,78.83339590000014,q,0.3230466000004526,79.21189439999944,79.21189439999944,,,,,,,,,78.21676169999955,78.21676169999955,space,0.592616500000986,,,,,,,,2,001,2023-04-06_23h27.33.816,game,2022.2.5,59.994408520891696,
,,,,,,,,0,0,0,0,,,,,1,0,1,0,,,,,,,,,,,,,,,,,,,,,,,,,,,,,,,,,,,,,,,,,,,79.59985439999946,79.59985439999946,w,0.26233140000113053,79.90431249999983,79.90431249999983,,,,,,,,,,,,,,,,,,,,2,001,2023-04-06_23h27.33.816,game,2022.2.5,59.994408520891696,
,,,,,,,,0,0,0,0,,,,,2,0,2,0,,,,,,,,,,,,,,,,,,,,,,,,,,,,,,,,,,,,,,,,,,,80.29989370000021,80.29989370000021,q,0.1671057000003202,80.5135178999999,80.5135178999999,,,,,,,,,,,,,,,,,,,,2,001,2023-04-06_23h27.33.816,game,2022.2.5,59.994408520891696,
,,,,,,,,0,0,0,0,,,,,3,0,3,0,,,,,,,,,,,,,,,,,,,,,,,,,,,,,,,,,,,,,,,,,,,80.90007499999956,80.90007499999956,q,0.12446810000074038,81.08140839999942,81.08140839999942,,,,,,,,,,,,,,,,,,,,2,001,2023-04-06_23h27.33.816,game,2022.2.5,59.994408520891696,
,,,,,,,,0,0,0,0,,,,,4,0,4,0,,,,,,,,,,,,,,,,,,,,,,,,,,,,,,,,,,,,,,,,,,,81.46659799999998,81.46659799999998,q,0.12421220000032918,81.63812570000027,81.63812570000027,,,,,,,,,,,,,,,,,,,,2,001,2023-04-06_23h27.33.816,game,2022.2.5,59.994408520891696,
,,,,,,,,0,0,0,0,,,,,5,0,5,0,,,,,,,,,,,,,,,,,,,,,,,,,,,,,,,,,,,,,,,,,,,82.0334241999999,82.0334241999999,q,0.16262730000016745,82.2413618999999,82.2413618999999,,,,,,,,,,,,,,,,,,,,2,001,2023-04-06_23h27.33.816,game,2022.2.5,59.994408520891696,
,,,,,,,,0,0,0,0,,,,,6,0,6,0,,,,,,,,,,,,,,,,,,,,,,,,,,,,,,,,,,,,,,,,,,,82.63323589999982,82.63323589999982,q,0.1270516000004136,82.81163310000011,82.81163310000011,,,,,,,,,,,,,,,,,,,,2,001,2023-04-06_23h27.33.816,game,2022.2.5,59.994408520891696,
,,,,,,,,0,0,0,0,,,,,7,0,7,0,,,,,,,,,,,,,,,,,,,,,,,,,,,,,,,,,,,,,,,,,,,83.19993720000002,83.19993720000002,q,0.11762370000087685,83.3810327000001,83.3810327000001,,,,,,,,,,,,,,,,,,,,2,001,2023-04-06_23h27.33.816,game,2022.2.5,59.994408520891696,
,,,,,,,,0,0,0,0,,,,,8,0,8,0,,,,,,,,,,,,,,,,,,,,,,,,,,,,,,,,,,,,,,,,,,,83.7663580999997,83.7663580999997,q,0.06242330000077345,83.86952719999954,83.86952719999954,,,,,,,,,,,,,,,,,,,,2,001,2023-04-06_23h27.33.816,game,2022.2.5,59.994408520891696,
,,,,,,,,0,0,0,0,,,,,9,0,9,0,,,,,,,,,,,,,,,,,,,,,,,,,,,,,,,,,,,,,,,,,,,84.2667234999999,84.2667234999999,q,0.07987349999984872,84.4048573,84.4048573,,,,,,,,,,,,,,,,,,,,2,001,2023-04-06_23h27.33.816,game,2022.2.5,59.994408520891696,
,,,,,,,,0,0,0,0,,,,,10,0,10,0,,,,,,,,,,,,,,,,,,,,,,,,,,,,,,,,,,,,,,,,,,,84.78303549999964,84.78303549999964,q,0.13524530000086088,84.9733755999996,84.9733755999996,,,,,,,,,,,,,,,,,,,,2,001,2023-04-06_23h27.33.816,game,2022.2.5,59.994408520891696,
,,,,,,,,0,0,0,0,,,,,11,0,11,0,,,,,,,,,,,,,,,,,,,,,,,,,,,,,,,,,,,,,,,,,,,85.36688369999956,85.36688369999956,q,0.06142950000048586,85.48135110000021,85.48135110000021,,,,,,,,,,,,,,,,,,,,2,001,2023-04-06_23h27.33.816,game,2022.2.5,59.994408520891696,
,,,,,,,,0,0,0,0,,,,,12,0,12,0,,,,,,,,,,,,,,,,,,,,,,,,,,,,,,,,,,,,,,,,,,,85.86668949999967,85.86668949999967,q,0.18272160000105941,86.09363849999954,86.09363849999954,,,,,,,,,,,,,,,,,,,,2,001,2023-04-06_23h27.33.816,game,2022.2.5,59.994408520891696,
,,,,,,,,0,0,0,0,,,,,13,0,13,0,,,,,,,,,,,,,,,,,,,,,,,,,,,,,,,,,,,,,,,,,,,86.48351639999964,86.48351639999964,q,0.02202090000082535,86.56893289999971,86.56893289999971,,,,,,,,,,,,,,,,,,,,2,001,2023-04-06_23h27.33.816,game,2022.2.5,59.994408520891696,
,,,,,,,,0,0,0,0,,,,,14,0,14,0,,,,,,,,,,,,,,,,,,,,,,,,,,,,,,,,,,,,,,,,,,,86.94972749999943,86.94972749999943,q,0.04431620000013936,87.03777509999964,87.03777509999964,,,,,,,,,,,,,,,,,,,,2,001,2023-04-06_23h27.33.816,game,2022.2.5,59.994408520891696,
,,,,,,,,0,0,0,0,,,,,15,0,15,0,,,,,,,,,,,,,,,,,,,,,,,,,,,,,,,,,,,,,,,,,,,87.43348689999948,87.43348689999948,q,0.09208320000016101,87.58902979999948,87.58902979999948,,,,,,,,,,,,,,,,,,,,2,001,2023-04-06_23h27.33.816,game,2022.2.5,59.994408520891696,
,,,,,,,,0,0,0,0,,,,,16,0,16,0,,,,,,,,,,,,,,,,,,,,,,,,,,,,,,,,,,,,,,,,,,,87.96663119999994,87.96663119999994,q,0.07718840000052296,88.09687659999963,88.09687659999963,,,,,,,,,,,,,,,,,,,,2,001,2023-04-06_23h27.33.816,game,2022.2.5,59.994408520891696,
,,,,,,,,0,0,0,0,,,,,17,0,17,0,,,,,,,,,,,,,,,,,,,,,,,,,,,,,,,,,,,,,,,,,,,88.48318909999944,88.48318909999944,q,0.04045470000073692,88.57748050000009,88.57748050000009,,,,,,,,,,,,,,,,,,,,2,001,2023-04-06_23h27.33.816,game,2022.2.5,59.994408520891696,
,,,,,,,,0,0,0,0,,,,,18,0,18,0,,,,,,,,,,,,,,,,,,,,,,,,,,,,,,,,,,,,,,,,,,,88.96685660000003,88.96685660000003,q,0.049900500000148895,89.05155959999956,89.05155959999956,,,,,,,,,,,,,,,,,,,,2,001,2023-04-06_23h27.33.816,game,2022.2.5,59.994408520891696,
,,,,,,,,0,0,0,0,,,,,19,0,19,0,,,,,,,,,,,,,,,,,,,,,,,,,,,,,,,,,,,,,,,,,,,89.45010660000025,89.45010660000025,q,0.06202640000083193,89.55857749999996,89.55857749999996,,,,,,,,,,,,,,,,,,,,2,001,2023-04-06_23h27.33.816,game,2022.2.5,59.994408520891696,
,,,,,,,,0,0,0,0,,,,,,,,,,,,,,,,,,,,,,,,,,,,,,,,,,,,,,,,,,,89.95593629999985,89.95593629999985,space,0.8451383000010537,,,,,,,,,,,,,,,,,,,,,,,,,,,,,,2,001,2023-04-06_23h27.33.816,game,2022.2.5,59.994408520891696,
,,,,,,,,1,0,1,0,0,0,0,0,,,,,,,,,,,,,,,,,,,,,,,,,,,,,,,91.71682349999992,91.71682349999992,q,0.2828419000006761,92.01676409999982,92.01676409999982,92.4167507000002,92.4167507000002,,,,,,,,,,,,,,,,,,,90.8336876000003,90.8336876000003,space,0.8615599000004295,,,,,,,,,,,,2,001,2023-04-06_23h27.33.816,game,2022.2.5,59.994408520891696,
,,,,,,,,1,0,1,0,1,0,1,0,,,,,,,,,,,,,,,,,,,,,,,,,,,,,,,92.4167507000002,92.4167507000002,w,0.2946910000000571,92.73361099999966,92.73361099999966,93.1336167999998,93.1336167999998,,,,,,,,,,,,,,,,,,,,,,,,,,,,,,,,,,2,001,2023-04-06_23h27.33.816,game,2022.2.5,59.994408520891696,
,,,,,,,,1,0,1,0,2,0,2,0,,,,,,,,,,,,,,,,,,,,,,,,,,,,,,,93.1336167999998,93.1336167999998,o,0.2179602000005616,93.3838023999997,93.3838023999997,93.7833668000003,93.7833668000003,,,,,,,,,,,,,,,,,,,,,,,,,,,,,,,,,,2,001,2023-04-06_23h27.33.816,game,2022.2.5,59.994408520891696,
,,,,,,,,1,0,1,0,3,0,3,0,,,,,,,,,,,,,,,,,,,,,,,,,,,,,,,93.7833668000003,93.7833668000003,p,0.10312980000071548,93.91698649999944,93.91698649999944,94.3167598,94.3167598,,,,,,,,,,,,,,,,,,,,,,,,,,,,,,,,,,2,001,2023-04-06_23h27.33.816,game,2022.2.5,59.994408520891696,
,,,,,,,,1,0,1,0,4,0,4,0,,,,,,,,,,,,,,,,,,,,,,,,,,,,,,,94.3167598,94.3167598,q,0.09669959999973798,94.43347240000003,94.43347240000003,94.83320959999946,94.83320959999946,,,,,,,,,,,,,,,,,,,,,,,,,,,,,,,,,,2,001,2023-04-06_23h27.33.816,game,2022.2.5,59.994408520891696,
,,,,,,,,1,0,1,0,5,0,5,0,,,,,,,,,,,,,,,,,,,,,,,,,,,,,,,94.83320959999946,94.83320959999946,w,0.19774250000045868,95.05011869999998,95.05011869999998,95.44999550000011,95.44999550000011,,,,,,,,,,,,,,,,,,,,,,,,,,,,,,,,,,2,001,2023-04-06_23h27.33.816,game,2022.2.5,59.994408520891696,
,,,,,,,,1,0,1,0,6,0,6,0,,,,,,,,,,,,,,,,,,,,,,,,,,,,,,,95.44999550000011,95.44999550000011,o,0.579182899999978,96.05026679999992,96.05026679999992,96.4503480000003,96.4503480000003,,,,,,,,,,,,,,,,,,,,,,,,,,,,,,,,,,2,001,2023-04-06_23h27.33.816,game,2022.2.5,59.994408520891696,
,,,,,,,,1,0,1,0,7,0,7,0,,,,,,,,,,,,,,,,,,,,,,,,,,,,,,,96.4503480000003,96.4503480000003,p,0.6849153000002843,97.16761119999956,97.16761119999956,97.56657889999951,97.56657889999951,,,,,,,,,,,,,,,,,,,,,,,,,,,,,,,,,,2,001,2023-04-06_23h27.33.816,game,2022.2.5,59.994408520891696,
,,,,,,,,1,0,1,0,8,0,8,0,,,,,,,,,,,,,,,,,,,,,,,,,,,,,,,97.56657889999951,97.56657889999951,o,0.6314613000004101,98.21695989999989,98.21695989999989,98.61677770000006,98.61677770000006,,,,,,,,,,,,,,,,,,,,,,,,,,,,,,,,,,2,001,2023-04-06_23h27.33.816,game,2022.2.5,59.994408520891696,
,,,,,,,,1,0,1,0,9,0,9,0,,,,,,,,,,,,,,,,,,,,,,,,,,,,,,,98.61677770000006,98.61677770000006,p,0.726100700000643,99.3672434,99.3672434,99.76670409999952,99.76670409999952,,,,,,,,,,,,,,,,,,,,,,,,,,,,,,,,,,2,001,2023-04-06_23h27.33.816,game,2022.2.5,59.994408520891696,
,,,,,,,,1,0,1,0,10,0,10,0,,,,,,,,,,,,,,,,,,,,,,,,,,,,,,,99.76670409999952,99.76670409999952,q,0.9771342000003642,100.76710209999965,100.76710209999965,101.16686130000016,101.16686130000016,,,,,,,,,,,,,,,,,,,,,,,,,,,,,,,,,,2,001,2023-04-06_23h27.33.816,game,2022.2.5,59.994408520891696,
,,,,,,,,1,0,1,0,11,0,11,0,,,,,,,,,,,,,,,,,,,,,,,,,,,,,,,101.16686130000016,101.16686130000016,w,0.5331659000003128,101.71689700000024,101.71689700000024,102.11648760000026,102.11648760000026,,,,,,,,,,,,,,,,,,,,,,,,,,,,,,,,,,2,001,2023-04-06_23h27.33.816,game,2022.2.5,59.994408520891696,
,,,,,,,,1,0,1,0,12,0,12,0,,,,,,,,,,,,,,,,,,,,,,,,,,,,,,,102.11648760000026,102.11648760000026,o,0.9365075000005163,103.08344870000019,103.08344870000019,103.48356289999992,103.48356289999992,,,,,,,,,,,,,,,,,,,,,,,,,,,,,,,,,,2,001,2023-04-06_23h27.33.816,game,2022.2.5,59.994408520891696,
,,,,,,,,1,0,1,0,13,0,13,0,,,,,,,,,,,,,,,,,,,,,,,,,,,,,,,103.48356289999992,103.48356289999992,p,0.3391466000002765,103.85226009999951,103.85226009999951,,,,,,,,,,,,,,,,,,,,,,,,,,,,,,,,,,,,2,001,2023-04-06_23h27.33.816,game,2022.2.5,59.994408520891696,
,,,,,,,,1,0,1,0,14,0,14,0,,,,,,,,,,,,,,,,,,,,,,,,,,,,,,,104.26681430000008,104.26681430000008,w,0.18862160000026051,104.48601119999967,104.48601119999967,,,,,,,,,,,,,,,,,,,,,,,,,,,,,,,,,,,,2,001,2023-04-06_23h27.33.816,game,2022.2.5,59.994408520891696,
,,,,,,,,1,0,1,0,15,0,15,0,,,,,,,,,,,,,,,,,,,,,,,,,,,,,,,104.90008930000022,104.90008930000022,q,0.22592860000077053,105.1501704000002,105.1501704000002,105.55018969999946,105.55018969999946,,,,,,,,,,,,,,,,,,,,,,,,,,,,,,,,,,2,001,2023-04-06_23h27.33.816,game,2022.2.5,59.994408520891696,
,,,,,,,,1,0,1,0,16,0,16,0,,,,,,,,,,,,,,,,,,,,,,,,,,,,,,,105.55018969999946,105.55018969999946,q,0.567535900000621,106.15045719999944,106.15045719999944,106.55028849999962,106.55028849999962,,,,,,,,,,,,,,,,,,,,,,,,,,,,,,,,,,2,001,2023-04-06_23h27.33.816,game,2022.2.5,59.994408520891696,
,,,,,,,,1,0,1,0,17,0,17,0,,,,,,,,,,,,,,,,,,,,,,,,,,,,,,,106.55028849999962,106.55028849999962,o,0.19622909999998228,106.7672590000002,106.7672590000002,107.16708860000017,107.16708860000017,,,,,,,,,,,,,,,,,,,,,,,,,,,,,,,,,,2,001,2023-04-06_23h27.33.816,game,2022.2.5,59.994408520891696,
,,,,,,,,1,0,1,0,18,0,18,0,,,,,,,,,,,,,,,,,,,,,,,,,,,,,,,107.16708860000017,107.16708860000017,p,0.24633500000072672,107.4338459999999,107.4338459999999,107.83356980000008,107.83356980000008,,,,,,,,,,,,,,,,,,,,,,,,,,,,,,,,,,2,001,2023-04-06_23h27.33.816,game,2022.2.5,59.994408520891696,
,,,,,,,,1,0,1,0,19,0,19,0,,,,,,,,,,,,,,,,,,,,,,,,,,,,,,,107.83356980000008,107.83356980000008,o,0.17975270000079036,108.03360710000015,108.03360710000015,108.43412230000013,108.43412230000013,,,,,,,,,,,,,,,,,,,,,,,,,,,,,,,,,,2,001,2023-04-06_23h27.33.816,game,2022.2.5,59.994408520891696,
,,,,,,,,1,0,1,0,,,,,0,0,0,0,,,,,,,,,,,,,,,,,,,,,,,,,,,,,,,,,,,108.43412230000013,108.43412230000013,space,0.9525202000013451,,,,,110.36670219999996,110.36670219999996,None,,110.7741476000001,110.7741476000001,,,,,,,,,109.43372529999942,109.43372529999942,space,0.9166769000003114,110.7741476000001,110.7741476000001,,,,,,2,001,2023-04-06_23h27.33.816,game,2022.2.5,59.994408520891696,
,,,,,,,,1,0,1,0,,,,,1,0,1,0,,,,,,,,,,,,,,,,,,,,,,,,,,,,,,,,,,,,,,,,,,,111.18320709999989,111.18320709999989,q,0.27794750000066415,111.5072769999997,111.5072769999997,,,,,,,,,,,,,,,,,,,,2,001,2023-04-06_23h27.33.816,game,2022.2.5,59.994408520891696,
,,,,,,,,1,0,1,0,,,,,2,0,2,0,,,,,,,,,,,,,,,,,,,,,,,,,,,,,,,,,,,,,,,,,,,111.89994829999978,111.89994829999978,w,0.19963020000068354,112.13136190000023,112.13136190000023,,,,,,,,,,,,,,,,,,,,2,001,2023-04-06_23h27.33.816,game,2022.2.5,59.994408520891696,
,,,,,,,,1,0,1,0,,,,,3,0,3,0,,,,,,,,,,,,,,,,,,,,,,,,,,,,,,,,,,,,,,,,,,,112.53384629999982,112.53384629999982,o,0.21131460000106017,112.80430840000008,112.80430840000008,,,,,,,,,,,,,,,,,,,,2,001,2023-04-06_23h27.33.816,game,2022.2.5,59.994408520891696,
,,,,,,,,1,0,1,0,,,,,4,0,4,0,,,,,,,,,,,,,,,,,,,,,,,,,,,,,,,,,,,,,,,,,,,113.18333809999967,113.18333809999967,w,0.07397650000075373,113.31563989999995,113.31563989999995,,,,,,,,,,,,,,,,,,,,2,001,2023-04-06_23h27.33.816,game,2022.2.5,59.994408520891696,
,,,,,,,,1,0,1,0,,,,,5,0,5,0,,,,,,,,,,,,,,,,,,,,,,,,,,,,,,,,,,,,,,,,,,,113.69998399999986,113.69998399999986,w,0.15584560000024794,113.89870989999963,113.89870989999963,,,,,,,,,,,,,,,,,,,,2,001,2023-04-06_23h27.33.816,game,2022.2.5,59.994408520891696,
,,,,,,,,1,0,1,0,,,,,6,0,6,0,,,,,,,,,,,,,,,,,,,,,,,,,,,,,,,,,,,,,,,,,,,114.30000300000029,114.30000300000029,w,0.03654030000052444,114.38320079999994,114.38320079999994,,,,,,,,,,,,,,,,,,,,2,001,2023-04-06_23h27.33.816,game,2022.2.5,59.994408520891696,
,,,,,,,,1,0,1,0,,,,,7,0,7,0,,,,,,,,,,,,,,,,,,,,,,,,,,,,,,,,,,,,,,,,,,,114.7836041999999,114.7836041999999,w,0.21057230000042182,115.03945120000026,115.03945120000026,,,,,,,,,,,,,,,,,,,,2,001,2023-04-06_23h27.33.816,game,2022.2.5,59.994408520891696,
,,,,,,,,1,0,1,0,,,,,8,0,8,0,,,,,,,,,,,,,,,,,,,,,,,,,,,,,,,,,,,,,,,,,,,115.43356190000031,115.43356190000031,w,0.07351960000050894,115.55816279999999,115.55816279999999,,,,,,,,,,,,,,,,,,,,2,001,2023-04-06_23h27.33.816,game,2022.2.5,59.994408520891696,
,,,,,,,,1,0,1,0,,,,,9,0,9,0,,,,,,,,,,,,,,,,,,,,,,,,,,,,,,,,,,,,,,,,,,,115.95019030000003,115.95019030000003,w,0.008921300000110932,116.00932199999988,116.00932199999988,,,,,,,,,,,,,,,,,,,,2,001,2023-04-06_23h27.33.816,game,2022.2.5,59.994408520891696,
,,,,,,,,1,0,1,0,,,,,10,0,10,0,,,,,,,,,,,,,,,,,,,,,,,,,,,,,,,,,,,,,,,,,,,116.4002032999997,116.4002032999997,None,,116.80395779999981,116.80395779999981,,,,,,,,,,,,,,,,,,,,2,001,2023-04-06_23h27.33.816,game,2022.2.5,59.994408520891696,
,,,,,,,,1,0,1,0,,,,,11,0,11,0,,,,,,,,,,,,,,,,,,,,,,,,,,,,,,,,,,,,,,,,,,,117.2002781000001,117.2002781000001,w,0.02339650000067195,117.28475199999957,117.28475199999957,,,,,,,,,,,,,,,,,,,,2,001,2023-04-06_23h27.33.816,game,2022.2.5,59.994408520891696,
,,,,,,,,1,0,1,0,,,,,12,0,12,0,,,,,,,,,,,,,,,,,,,,,,,,,,,,,,,,,,,,,,,,,,,117.66691119999996,117.66691119999996,w,0.07282980000036332,117.79671510000026,117.79671510000026,,,,,,,,,,,,,,,,,,,,2,001,2023-04-06_23h27.33.816,game,2022.2.5,59.994408520891696,
,,,,,,,,1,0,1,0,,,,,13,0,13,0,,,,,,,,,,,,,,,,,,,,,,,,,,,,,,,,,,,,,,,,,,,118.18387530000018,118.18387530000018,None,,118.58711080000012,118.58711080000012,,,,,,,,,,,,,,,,,,,,2,001,2023-04-06_23h27.33.816,game,2022.2.5,59.994408520891696,
,,,,,,,,1,0,1,0,,,,,14,0,14,0,,,,,,,,,,,,,,,,,,,,,,,,,,,,,,,,,,,,,,,,,,,118.98343010000008,118.98343010000008,w,0.14141710000058083,119.17911099999947,119.17911099999947,,,,,,,,,,,,,,,,,,,,2,001,2023-04-06_23h27.33.816,game,2022.2.5,59.994408520891696,
,,,,,,,,1,0,1,0,,,,,15,0,15,0,,,,,,,,,,,,,,,,,,,,,,,,,,,,,,,,,,,,,,,,,,,119.56671339999957,119.56671339999957,w,0.049785399999564106,119.66543120000006,119.66543120000006,,,,,,,,,,,,,,,,,,,,2,001,2023-04-06_23h27.33.816,game,2022.2.5,59.994408520891696,
,,,,,,,,1,0,1,0,,,,,16,0,16,0,,,,,,,,,,,,,,,,,,,,,,,,,,,,,,,,,,,,,,,,,,,120.0504160999999,120.0504160999999,None,,120.45146999999997,120.45146999999997,,,,,,,,,,,,,,,,,,,,2,001,2023-04-06_23h27.33.816,game,2022.2.5,59.994408520891696,
,,,,,,,,1,0,1,0,,,,,17,0,17,0,,,,,,,,,,,,,,,,,,,,,,,,,,,,,,,,,,,,,,,,,,,120.85018709999986,120.85018709999986,w,0.18144019999999728,121.07983669999976,121.07983669999976,,,,,,,,,,,,,,,,,,,,2,001,2023-04-06_23h27.33.816,game,2022.2.5,59.994408520891696,
,,,,,,,,1,0,1,0,,,,,18,0,18,0,,,,,,,,,,,,,,,,,,,,,,,,,,,,,,,,,,,,,,,,,,,121.46698620000006,121.46698620000006,w,0.01820620000034978,121.5498719999996,121.5498719999996,,,,,,,,,,,,,,,,,,,,2,001,2023-04-06_23h27.33.816,game,2022.2.5,59.994408520891696,
,,,,,,,,1,0,1,0,,,,,19,0,19,0,,,,,,,,,,,,,,,,,,,,,,,,,,,,,,,,,,,,,,,,,,,121.9334902999999,121.9334902999999,None,,122.34044069999982,122.34044069999982,,,,,,,,,,,,,,,,,,,,2,001,2023-04-06_23h27.33.816,game,2022.2.5,59.994408520891696,
,,,,,,,,1,0,1,0,,,,,,,,,,,,,,,,,,,,,,,,,,,,,,,,,,,,,,,,,,,122.74047599999994,122.74047599999994,space,0.8767919000010806,,,,,,,,,,,,,,,,,,,,,,,,,,,,,,2,001,2023-04-06_23h27.33.816,game,2022.2.5,59.994408520891696,
,,,,,,,,2,0,2,0,0,0,0,0,,,,,,,,,,,,,,,,,,,,,,,,,,,,,,,124.90012539999952,124.90012539999952,q,1.4516911000009713,126.38368439999977,126.38368439999977,126.78366449999976,126.78366449999976,,,,,,,,,,,,,,,,,,,123.63400420000016,123.63400420000016,space,1.2433199000006425,,,,,,,,,,,,2,001,2023-04-06_23h27.33.816,game,2022.2.5,59.994408520891696,
,,,,,,,,2,0,2,0,1,0,1,0,,,,,,,,,,,,,,,,,,,,,,,,,,,,,,,126.78366449999976,126.78366449999976,w,0.4440766000006988,127.25041469999996,127.25041469999996,127.65002449999974,127.65002449999974,,,,,,,,,,,,,,,,,,,,,,,,,,,,,,,,,,2,001,2023-04-06_23h27.33.816,game,2022.2.5,59.994408520891696,
,,,,,,,,2,0,2,0,2,0,2,0,,,,,,,,,,,,,,,,,,,,,,,,,,,,,,,127.65002449999974,127.65002449999974,o,0.4189804000006916,128.1004286999996,128.1004286999996,128.50002500000028,128.50002500000028,,,,,,,,,,,,,,,,,,,,,,,,,,,,,,,,,,2,001,2023-04-06_23h27.33.816,game,2022.2.5,59.994408520891696,
,,,,,,,,2,0,2,0,3,0,3,0,,,,,,,,,,,,,,,,,,,,,,,,,,,,,,,128.50002500000028,128.50002500000028,p,0.22656499999993684,128.75034499999947,128.75034499999947,129.15048109999952,129.15048109999952,,,,,,,,,,,,,,,,,,,,,,,,,,,,,,,,,,2,001,2023-04-06_23h27.33.816,game,2022.2.5,59.994408520891696,
,,,,,,,,2,0,2,0,4,0,4,0,,,,,,,,,,,,,,,,,,,,,,,,,,,,,,,129.15048109999952,129.15048109999952,p,0.24073260000022856,129.41737379999995,129.41737379999995,129.81705859999965,129.81705859999965,,,,,,,,,,,,,,,,,,,,,,,,,,,,,,,,,,2,001,2023-04-06_23h27.33.816,game,2022.2.5,59.994408520891696,
,,,,,,,,2,0,2,0,5,0,5,0,,,,,,,,,,,,,,,,,,,,,,,,,,,,,,,129.81705859999965,129.81705859999965,o,0.501404900000125,130.35041759999967,130.35041759999967,130.7501099000001,130.7501099000001,,,,,,,,,,,,,,,,,,,,,,,,,,,,,,,,,,2,001,2023-04-06_23h27.33.816,game,2022.2.5,59.994408520891696,
,,,,,,,,2,0,2,0,6,0,6,0,,,,,,,,,,,,,,,,,,,,,,,,,,,,,,,130.7501099000001,130.7501099000001,p,0.23135559999991528,131.0005412999999,131.0005412999999,131.4005373,131.4005373,,,,,,,,,,,,,,,,,,,,,,,,,,,,,,,,,,2,001,2023-04-06_23h27.33.816,game,2022.2.5,59.994408520891696,
,,,,,,,,2,0,2,0,7,0,7,0,,,,,,,,,,,,,,,,,,,,,,,,,,,,,,,131.4005373,131.4005373,p,0.20586260000072798,131.63383329999942,131.63383329999942,132.03343919999952,132.03343919999952,,,,,,,,,,,,,,,,,,,,,,,,,,,,,,,,,,2,001,2023-04-06_23h27.33.816,game,2022.2.5,59.994408520891696,
,,,,,,,,2,0,2,0,8,0,8,0,,,,,,,,,,,,,,,,,,,,,,,,,,,,,,,132.03343919999952,132.03343919999952,p,0.186171800000011,132.2503428,132.2503428,132.65038189999996,132.65038189999996,,,,,,,,,,,,,,,,,,,,,,,,,,,,,,,,,,2,001,2023-04-06_23h27.33.816,game,2022.2.5,59.994408520891696,
,,,,,,,,2,0,2,0,9,0,9,0,,,,,,,,,,,,,,,,,,,,,,,,,,,,,,,132.65038189999996,132.65038189999996,q,0.9301955000000817,133.60614089999945,133.60614089999945,,,,,,,,,,,,,,,,,,,,,,,,,,,,,,,,,,,,2,001,2023-04-06_23h27.33.816,game,2022.2.5,59.994408520891696,
,,,,,,,,2,0,2,0,10,0,10,0,,,,,,,,,,,,,,,,,,,,,,,,,,,,,,,134.01715979999972,134.01715979999972,w,0.4173270000001139,134.46746280000025,134.46746280000025,134.85534629999984,134.85534629999984,,,,,,,,,,,,,,,,,,,,,,,,,,,,,,,,,,2,001,2023-04-06_23h27.33.816,game,2022.2.5,59.994408520891696,
,,,,,,,,2,0,2,0,11,0,11,0,,,,,,,,,,,,,,,,,,,,,,,,,,,,,,,134.85534629999984,134.85534629999984,q,0.33493800000087504,135.21717220000028,135.21717220000028,135.61700349999956,135.61700349999956,,,,,,,,,,,,,,,,,,,,,,,,,,,,,,,,,,2,001,2023-04-06_23h27.33.816,game,2022.2.5,59.994408520891696,
,,,,,,,,2,0,2,0,12,0,12,0,,,,,,,,,,,,,,,,,,,,,,,,,,,,,,,135.61700349999956,135.61700349999956,q,0.13017880000097648,135.76727690000007,135.76727690000007,136.1668297999995,136.1668297999995,,,,,,,,,,,,,,,,,,,,,,,,,,,,,,,,,,2,001,2023-04-06_23h27.33.816,game,2022.2.5,59.994408520891696,
,,,,,,,,2,0,2,0,13,0,13,0,,,,,,,,,,,,,,,,,,,,,,,,,,,,,,,136.1668297999995,136.1668297999995,w,0.320317900000191,136.51698839999972,136.51698839999972,136.9168153999999,136.9168153999999,,,,,,,,,,,,,,,,,,,,,,,,,,,,,,,,,,2,001,2023-04-06_23h27.33.816,game,2022.2.5,59.994408520891696,
,,,,,,,,2,0,2,0,14,0,14,0,,,,,,,,,,,,,,,,,,,,,,,,,,,,,,,136.9168153999999,136.9168153999999,w,0.5271207000005234,137.46707009999955,137.46707009999955,,,,,,,,,,,,,,,,,,,,,,,,,,,,,,,,,,,,2,001,2023-04-06_23h27.33.816,game,2022.2.5,59.994408520891696,
,,,,,,,,2,0,2,0,15,0,15,0,,,,,,,,,,,,,,,,,,,,,,,,,,,,,,,137.86705559999973,137.86705559999973,o,0.5677961000010328,138.46730639999987,138.46730639999987,138.8668878999997,138.8668878999997,,,,,,,,,,,,,,,,,,,,,,,,,,,,,,,,,,2,001,2023-04-06_23h27.33.816,game,2022.2.5,59.994408520891696,
,,,,,,,,2,0,2,0,16,0,16,0,,,,,,,,,,,,,,,,,,,,,,,,,,,,,,,138.8668878999997,138.8668878999997,p,0.34443520000058925,139.23380759999964,139.23380759999964,139.6334767999997,139.6334767999997,,,,,,,,,,,,,,,,,,,,,,,,,,,,,,,,,,2,001,2023-04-06_23h27.33.816,game,2022.2.5,59.994408520891696,
,,,,,,,,2,0,2,0,17,0,17,0,,,,,,,,,,,,,,,,,,,,,,,,,,,,,,,139.6334767999997,139.6334767999997,p,0.48853520000102435,140.15067439999984,140.15067439999984,140.55040689999987,140.55040689999987,,,,,,,,,,,,,,,,,,,,,,,,,,,,,,,,,,2,001,2023-04-06_23h27.33.816,game,2022.2.5,59.994408520891696,
,,,,,,,,2,0,2,0,18,0,18,0,,,,,,,,,,,,,,,,,,,,,,,,,,,,,,,140.55040689999987,140.55040689999987,o,0.36413120000088384,140.9341475000001,140.9341475000001,141.33372749999944,141.33372749999944,,,,,,,,,,,,,,,,,,,,,,,,,,,,,,,,,,2,001,2023-04-06_23h27.33.816,game,2022.2.5,59.994408520891696,
,,,,,,,,2,0,2,0,19,0,19,0,,,,,,,,,,,,,,,,,,,,,,,,,,,,,,,141.33372749999944,141.33372749999944,w,0.37027280000074825,141.73388400000022,141.73388400000022,142.13410320000003,142.13410320000003,,,,,,,,,,,,,,,,,,,,,,,,,,,,,,,,,,2,001,2023-04-06_23h27.33.816,game,2022.2.5,59.994408520891696,
,,,,,,,,2,0,2,0,,,,,0,0,0,0,,,,,,,,,,,,,,,,,,,,,,,,,,,,,,,,,,,142.13410320000003,142.13410320000003,space,0.903448600000047,,,,,147.28394239999943,147.28394239999943,q,0.311782900000253,147.65420470000026,147.65420470000026,,,,,,,,,143.0670584999998,143.0670584999998,space,4.192232600000352,,,,,,,,2,001,2023-04-06_23h27.33.816,game,2022.2.5,59.994408520891696,
,,,,,,,,2,0,2,0,,,,,1,0,1,0,,,,,,,,,,,,,,,,,,,,,,,,,,,,,,,,,,,,,,,,,,,148.0338253,148.0338253,None,,148.44336029999977,148.44336029999977,,,,,,,,,,,,,,,,,,,,2,001,2023-04-06_23h27.33.816,game,2022.2.5,59.994408520891696,
,,,,,,,,2,0,2,0,,,,,2,0,2,0,,,,,,,,,,,,,,,,,,,,,,,,,,,,,,,,,,,,,,,,,,,148.83394549999957,148.83394549999957,w,0.1588409000005413,149.05877940000028,149.05877940000028,,,,,,,,,,,,,,,,,,,,2,001,2023-04-06_23h27.33.816,game,2022.2.5,59.994408520891696,
,,,,,,,,2,0,2,0,,,,,3,0,3,0,,,,,,,,,,,,,,,,,,,,,,,,,,,,,,,,,,,,,,,,,,,149.43378500000017,149.43378500000017,o,0.18458540000028734,149.67439939999986,149.67439939999986,,,,,,,,,,,,,,,,,,,,2,001,2023-04-06_23h27.33.816,game,2022.2.5,59.994408520891696,
,,,,,,,,2,0,2,0,,,,,4,0,4,0,,,,,,,,,,,,,,,,,,,,,,,,,,,,,,,,,,,,,,,,,,,150.06720849999965,150.06720849999965,p,0.14498330000060378,150.26006179999968,150.26006179999968,,,,,,,,,,,,,,,,,,,,2,001,2023-04-06_23h27.33.816,game,2022.2.5,59.994408520891696,
,,,,,,,,2,0,2,0,,,,,5,0,5,0,,,,,,,,,,,,,,,,,,,,,,,,,,,,,,,,,,,,,,,,,,,150.65061069999956,150.65061069999956,o,0.056222900000648224,150.76085909999983,150.76085909999983,,,,,,,,,,,,,,,,,,,,2,001,2023-04-06_23h27.33.816,game,2022.2.5,59.994408520891696,
,,,,,,,,2,0,2,0,,,,,6,0,6,0,,,,,,,,,,,,,,,,,,,,,,,,,,,,,,,,,,,,,,,,,,,151.1506830999997,151.1506830999997,p,0.15171310000096128,151.35506189999978,151.35506189999978,,,,,,,,,,,,,,,,,,,,2,001,2023-04-06_23h27.33.816,game,2022.2.5,59.994408520891696,
,,,,,,,,2,0,2,0,,,,,7,0,7,0,,,,,,,,,,,,,,,,,,,,,,,,,,,,,,,,,,,,,,,,,,,151.75048609999976,151.75048609999976,p,0.12110590000065713,151.93005579999954,151.93005579999954,,,,,,,,,,,,,,,,,,,,2,001,2023-04-06_23h27.33.816,game,2022.2.5,59.994408520891696,
,,,,,,,,2,0,2,0,,,,,8,0,8,0,,,,,,,,,,,,,,,,,,,,,,,,,,,,,,,,,,,,,,,,,,,152.3177915999995,152.3177915999995,p,0.09095859999979439,152.46111349999956,152.46111349999956,,,,,,,,,,,,,,,,,,,,2,001,2023-04-06_23h27.33.816,game,2022.2.5,59.994408520891696,
,,,,,,,,2,0,2,0,,,,,9,0,9,0,,,,,,,,,,,,,,,,,,,,,,,,,,,,,,,,,,,,,,,,,,,152.85068779999983,152.85068779999983,p,0.0840516000007483,152.98317339999994,152.98317339999994,,,,,,,,,,,,,,,,,,,,2,001,2023-04-06_23h27.33.816,game,2022.2.5,59.994408520891696,
,,,,,,,,2,0,2,0,,,,,10,0,10,0,,,,,,,,,,,,,,,,,,,,,,,,,,,,,,,,,,,,,,,,,,,153.3839108000002,153.3839108000002,p,0.03393930000038381,153.46253969999998,153.46253969999998,,,,,,,,,,,,,,,,,,,,2,001,2023-04-06_23h27.33.816,game,2022.2.5,59.994408520891696,
,,,,,,,,2,0,2,0,,,,,11,0,11,0,,,,,,,,,,,,,,,,,,,,,,,,,,,,,,,,,,,,,,,,,,,153.85064239999974,153.85064239999974,p,0.08451030000014725,153.99070130000018,153.99070130000018,,,,,,,,,,,,,,,,,,,,2,001,2023-04-06_23h27.33.816,game,2022.2.5,59.994408520891696,
,,,,,,,,2,0,2,0,,,,,12,0,12,0,,,,,,,,,,,,,,,,,,,,,,,,,,,,,,,,,,,,,,,,,,,154.3838928999994,154.3838928999994,p,0.051890499999899475,154.50532380000004,154.50532380000004,,,,,,,,,,,,,,,,,,,,2,001,2023-04-06_23h27.33.816,game,2022.2.5,59.994408520891696,
,,,,,,,,2,0,2,0,,,,,13,0,13,0,,,,,,,,,,,,,,,,,,,,,,,,,,,,,,,,,,,,,,,,,,,154.88384760000008,154.88384760000008,p,0.0069723000005978975,154.93891230000008,154.93891230000008,,,,,,,,,,,,,,,,,,,,2,001,2023-04-06_23h27.33.816,game,2022.2.5,59.994408520891696,
,,,,,,,,2,0,2,0,,,,,14,0,14,0,,,,,,,,,,,,,,,,,,,,,,,,,,,,,,,,,,,,,,,,,,,155.33413070000006,155.33413070000006,p,0.026163600000472798,155.42140159999963,155.42140159999963,,,,,,,,,,,,,,,,,,,,2,001,2023-04-06_23h27.33.816,game,2022.2.5,59.994408520891696,
,,,,,,,,2,0,2,0,,,,,15,0,15,0,,,,,,,,,,,,,,,,,,,,,,,,,,,,,,,,,,,,,,,,,,,155.80054550000023,155.80054550000023,p,0.028471300000092015,155.87618500000008,155.87618500000008,,,,,,,,,,,,,,,,,,,,2,001,2023-04-06_23h27.33.816,game,2022.2.5,59.994408520891696,
,,,,,,,,2,0,2,0,,,,,16,0,16,0,,,,,,,,,,,,,,,,,,,,,,,,,,,,,,,,,,,,,,,,,,,156.2672947000001,156.2672947000001,p,0.008686300000590563,156.32688400000006,156.32688400000006,,,,,,,,,,,,,,,,,,,,2,001,2023-04-06_23h27.33.816,game,2022.2.5,59.994408520891696,
,,,,,,,,2,0,2,0,,,,,17,0,17,0,,,,,,,,,,,,,,,,,,,,,,,,,,,,,,,,,,,,,,,,,,,156.71716300000026,156.71716300000026,p,0.05315770000015618,156.81779860000006,156.81779860000006,,,,,,,,,,,,,,,,,,,,2,001,2023-04-06_23h27.33.816,game,2022.2.5,59.994408520891696,
,,,,,,,,2,0,2,0,,,,,18,0,18,0,,,,,,,,,,,,,,,,,,,,,,,,,,,,,,,,,,,,,,,,,,,157.21725999999944,157.21725999999944,p,0.049770100000387174,157.31832349999968,157.31832349999968,,,,,,,,,,,,,,,,,,,,2,001,2023-04-06_23h27.33.816,game,2022.2.5,59.994408520891696,
,,,,,,,,2,0,2,0,,,,,19,0,19,0,,,,,,,,,,,,,,,,,,,,,,,,,,,,,,,,,,,,,,,,,,,157.70032319999973,157.70032319999973,p,0.028210400000716618,157.77000729999963,157.77000729999963,,,,,,,,,,,,,,,,,,,,2,001,2023-04-06_23h27.33.816,game,2022.2.5,59.994408520891696,
,,,,,,,,2,0,2,0,,,,,,,,,,,,,,,,,,,,,,,,,,,,,,,,,,,,,,,,,,,158.17985169999974,158.17985169999974,space,1.1295476000004783,,,,,,,,,,,,,,,,,,,,,,,,,,,,,,2,001,2023-04-06_23h27.33.816,game,2022.2.5,59.994408520891696,
,,,,,,,,3,0,3,0,0,0,0,0,,,,,,,,,,,,,,,,,,,,,,,,,,,,,,,160.2005121000002,160.2005121000002,q,0.4158517000005304,160.63414379999995,160.63414379999995,161.03397320000022,161.03397320000022,,,,,,,,,,,,,,,,,,,159.3341479999999,159.3341479999999,space,0.8418013000000428,,,,,,,,,,,,2,001,2023-04-06_23h27.33.816,game,2022.2.5,59.994408520891696,
,,,,,,,,3,0,3,0,1,0,1,0,,,,,,,,,,,,,,,,,,,,,,,,,,,,,,,161.03397320000022,161.03397320000022,w,0.45134779999989405,161.51755380000031,161.51755380000031,161.9172765000003,161.9172765000003,,,,,,,,,,,,,,,,,,,,,,,,,,,,,,,,,,2,001,2023-04-06_23h27.33.816,game,2022.2.5,59.994408520891696,
,,,,,,,,3,0,3,0,2,0,2,0,,,,,,,,,,,,,,,,,,,,,,,,,,,,,,,161.9172765000003,161.9172765000003,o,0.4745152000004964,162.41747810000015,162.41747810000015,162.81732420000026,162.81732420000026,,,,,,,,,,,,,,,,,,,,,,,,,,,,,,,,,,2,001,2023-04-06_23h27.33.816,game,2022.2.5,59.994408520891696,
,,,,,,,,3,0,3,0,3,0,3,0,,,,,,,,,,,,,,,,,,,,,,,,,,,,,,,162.81732420000026,162.81732420000026,p,0.582436400000006,163.41754839999976,163.41754839999976,163.8173237000001,163.8173237000001,,,,,,,,,,,,,,,,,,,,,,,,,,,,,,,,,,2,001,2023-04-06_23h27.33.816,game,2022.2.5,59.994408520891696,
,,,,,,,,3,0,3,0,4,0,4,0,,,,,,,,,,,,,,,,,,,,,,,,,,,,,,,163.8173237000001,163.8173237000001,o,0.6622820000002321,164.5006473000003,164.5006473000003,164.9009430999995,164.9009430999995,,,,,,,,,,,,,,,,,,,,,,,,,,,,,,,,,,2,001,2023-04-06_23h27.33.816,game,2022.2.5,59.994408520891696,
,,,,,,,,3,0,3,0,5,0,5,0,,,,,,,,,,,,,,,,,,,,,,,,,,,,,,,164.9009430999995,164.9009430999995,q,0.6122375000004467,165.53422359999968,165.53422359999968,165.93386740000005,165.93386740000005,,,,,,,,,,,,,,,,,,,,,,,,,,,,,,,,,,2,001,2023-04-06_23h27.33.816,game,2022.2.5,59.994408520891696,
,,,,,,,,3,0,3,0,6,0,6,0,,,,,,,,,,,,,,,,,,,,,,,,,,,,,,,165.93386740000005,165.93386740000005,w,0.4705613000005542,166.43414870000015,166.43414870000015,166.8338536000001,166.8338536000001,,,,,,,,,,,,,,,,,,,,,,,,,,,,,,,,,,2,001,2023-04-06_23h27.33.816,game,2022.2.5,59.994408520891696,
,,,,,,,,3,0,3,0,7,0,7,0,,,,,,,,,,,,,,,,,,,,,,,,,,,,,,,166.8338536000001,166.8338536000001,o,0.42321410000022297,167.28427370000009,167.28427370000009,167.6840358999998,167.6840358999998,,,,,,,,,,,,,,,,,,,,,,,,,,,,,,,,,,2,001,2023-04-06_23h27.33.816,game,2022.2.5,59.994408520891696,
,,,,,,,,3,0,3,0,8,0,8,0,,,,,,,,,,,,,,,,,,,,,,,,,,,,,,,167.6840358999998,167.6840358999998,p,0.4942633000000569,168.20103980000022,168.20103980000022,168.60066639999968,168.60066639999968,,,,,,,,,,,,,,,,,,,,,,,,,,,,,,,,,,2,001,2023-04-06_23h27.33.816,game,2022.2.5,59.994408520891696,
,,,,,,,,3,0,3,0,9,0,9,0,,,,,,,,,,,,,,,,,,,,,,,,,,,,,,,168.60066639999968,168.60066639999968,w,0.4724043000005622,169.10134629999993,169.10134629999993,169.50055499999962,169.50055499999962,,,,,,,,,,,,,,,,,,,,,,,,,,,,,,,,,,2,001,2023-04-06_23h27.33.816,game,2022.2.5,59.994408520891696,
,,,,,,,,3,0,3,0,10,0,10,0,,,,,,,,,,,,,,,,,,,,,,,,,,,,,,,169.50055499999962,169.50055499999962,o,0.4205918000006932,169.95103999999992,169.95103999999992,170.35080709999966,170.35080709999966,,,,,,,,,,,,,,,,,,,,,,,,,,,,,,,,,,2,001,2023-04-06_23h27.33.816,game,2022.2.5,59.994408520891696,
,,,,,,,,3,0,3,0,11,0,11,0,,,,,,,,,,,,,,,,,,,,,,,,,,,,,,,170.35080709999966,170.35080709999966,p,0.3406401000002006,170.71777920000022,170.71777920000022,171.11756869999954,171.11756869999954,,,,,,,,,,,,,,,,,,,,,,,,,,,,,,,,,,2,001,2023-04-06_23h27.33.816,game,2022.2.5,59.994408520891696,
,,,,,,,,3,0,3,0,12,0,12,0,,,,,,,,,,,,,,,,,,,,,,,,,,,,,,,171.11756869999954,171.11756869999954,q,0.5772359000002325,171.7174775000003,171.7174775000003,172.11743599999954,172.11743599999954,,,,,,,,,,,,,,,,,,,,,,,,,,,,,,,,,,2,001,2023-04-06_23h27.33.816,game,2022.2.5,59.994408520891696,
,,,,,,,,3,0,3,0,13,0,13,0,,,,,,,,,,,,,,,,,,,,,,,,,,,,,,,172.11743599999954,172.11743599999954,w,0.6399000000001251,172.78413069999988,172.78413069999988,173.18381549999958,173.18381549999958,,,,,,,,,,,,,,,,,,,,,,,,,,,,,,,,,,2,001,2023-04-06_23h27.33.816,game,2022.2.5,59.994408520891696,
,,,,,,,,3,0,3,0,14,0,14,0,,,,,,,,,,,,,,,,,,,,,,,,,,,,,,,173.18381549999958,173.18381549999958,q,0.8245126000010714,174.0352557999995,174.0352557999995,174.43396779999966,174.43396779999966,,,,,,,,,,,,,,,,,,,,,,,,,,,,,,,,,,2,001,2023-04-06_23h27.33.816,game,2022.2.5,59.994408520891696,
,,,,,,,,3,0,3,0,15,0,15,0,,,,,,,,,,,,,,,,,,,,,,,,,,,,,,,174.43396779999966,174.43396779999966,w,0.35140060000048834,174.81762909999998,174.81762909999998,175.21745499999997,175.21745499999997,,,,,,,,,,,,,,,,,,,,,,,,,,,,,,,,,,2,001,2023-04-06_23h27.33.816,game,2022.2.5,59.994408520891696,
,,,,,,,,3,0,3,0,16,0,16,0,,,,,,,,,,,,,,,,,,,,,,,,,,,,,,,175.21745499999997,175.21745499999997,o,0.35842200000024604,175.60078350000003,175.60078350000003,176.00078029999986,176.00078029999986,,,,,,,,,,,,,,,,,,,,,,,,,,,,,,,,,,2,001,2023-04-06_23h27.33.816,game,2022.2.5,59.994408520891696,
,,,,,,,,3,0,3,0,17,0,17,0,,,,,,,,,,,,,,,,,,,,,,,,,,,,,,,176.00078029999986,176.00078029999986,p,0.3272746000002371,176.35151609999957,176.35151609999957,176.7506440999996,176.7506440999996,,,,,,,,,,,,,,,,,,,,,,,,,,,,,,,,,,2,001,2023-04-06_23h27.33.816,game,2022.2.5,59.994408520891696,
,,,,,,,,3,0,3,0,18,0,18,0,,,,,,,,,,,,,,,,,,,,,,,,,,,,,,,176.7506440999996,176.7506440999996,p,0.2761365000005753,177.05085950000012,177.05085950000012,177.45059109999966,177.45059109999966,,,,,,,,,,,,,,,,,,,,,,,,,,,,,,,,,,2,001,2023-04-06_23h27.33.816,game,2022.2.5,59.994408520891696,
,,,,,,,,3,0,3,0,19,0,19,0,,,,,,,,,,,,,,,,,,,,,,,,,,,,,,,177.45059109999966,177.45059109999966,p,0.25461470000027475,177.73469690000002,177.73469690000002,,,,,,,,,,,,,,,,,,,,,,,,,,,,,,,,,,,,2,001,2023-04-06_23h27.33.816,game,2022.2.5,59.994408520891696,
,,,,,,,,3,0,3,0,,,,,0,0,0,0,,,,,,,,,,,,,,,,,,,,,,,,,,,,,,,,,,,178.13840329999948,178.13840329999948,space,0.8853441000010207,,,,,179.90069849999963,179.90069849999963,q,0.3436024000011457,180.3077856,180.3077856,,,,,,,,,179.0508448999999,179.0508448999999,space,0.8294566000004124,,,,,,,,2,001,2023-04-06_23h27.33.816,game,2022.2.5,59.994408520891696,
,,,,,,,,3,0,3,0,,,,,1,0,1,0,,,,,,,,,,,,,,,,,,,,,,,,,,,,,,,,,,,,,,,,,,,180.68421990000024,180.68421990000024,w,0.29385310000088793,181.02598649999982,181.02598649999982,,,,,,,,,,,,,,,,,,,,2,001,2023-04-06_23h27.33.816,game,2022.2.5,59.994408520891696,
,,,,,,,,3,0,3,0,,,,,2,0,2,0,,,,,,,,,,,,,,,,,,,,,,,,,,,,,,,,,,,,,,,,,,,181.41769959999965,181.41769959999965,w,0.28145840000070166,181.7515596000003,181.7515596000003,,,,,,,,,,,,,,,,,,,,2,001,2023-04-06_23h27.33.816,game,2022.2.5,59.994408520891696,
,,,,,,,,3,0,3,0,,,,,3,0,3,0,,,,,,,,,,,,,,,,,,,,,,,,,,,,,,,,,,,,,,,,,,,182.13421769999968,182.13421769999968,w,0.2704817000003459,182.4695316999996,182.4695316999996,,,,,,,,,,,,,,,,,,,,2,001,2023-04-06_23h27.33.816,game,2022.2.5,59.994408520891696,
,,,,,,,,3,0,3,0,,,,,4,0,4,0,,,,,,,,,,,,,,,,,,,,,,,,,,,,,,,,,,,,,,,,,,,182.8509183999995,182.8509183999995,w,0.23454420000052778,183.14460520000011,183.14460520000011,,,,,,,,,,,,,,,,,,,,2,001,2023-04-06_23h27.33.816,game,2022.2.5,59.994408520891696,
,,,,,,,,3,0,3,0,,,,,5,0,5,0,,,,,,,,,,,,,,,,,,,,,,,,,,,,,,,,,,,,,,,,,,,183.53386460000002,183.53386460000002,w,0.11803710000003775,183.70375299999978,183.70375299999978,,,,,,,,,,,,,,,,,,,,2,001,2023-04-06_23h27.33.816,game,2022.2.5,59.994408520891696,
,,,,,,,,3,0,3,0,,,,,6,0,6,0,,,,,,,,,,,,,,,,,,,,,,,,,,,,,,,,,,,,,,,,,,,184.10100650000004,184.10100650000004,w,0.2557793000005404,184.41379940000024,184.41379940000024,,,,,,,,,,,,,,,,,,,,2,001,2023-04-06_23h27.33.816,game,2022.2.5,59.994408520891696,
,,,,,,,,3,0,3,0,,,,,7,0,7,0,,,,,,,,,,,,,,,,,,,,,,,,,,,,,,,,,,,,,,,,,,,184.80071409999982,184.80071409999982,w,0.11019930000020395,184.96322950000012,184.96322950000012,,,,,,,,,,,,,,,,,,,,2,001,2023-04-06_23h27.33.816,game,2022.2.5,59.994408520891696,
,,,,,,,,3,0,3,0,,,,,8,0,8,0,,,,,,,,,,,,,,,,,,,,,,,,,,,,,,,,,,,,,,,,,,,185.35081730000002,185.35081730000002,w,0.14014590000078897,185.54823359999955,185.54823359999955,,,,,,,,,,,,,,,,,,,,2,001,2023-04-06_23h27.33.816,game,2022.2.5,59.994408520891696,
,,,,,,,,3,0,3,0,,,,,9,0,9,0,,,,,,,,,,,,,,,,,,,,,,,,,,,,,,,,,,,,,,,,,,,185.93416499999967,185.93416499999967,w,0.12839880000046833,186.11915669999962,186.11915669999962,,,,,,,,,,,,,,,,,,,,2,001,2023-04-06_23h27.33.816,game,2022.2.5,59.994408520891696,
,,,,,,,,3,0,3,0,,,,,10,0,10,0,,,,,,,,,,,,,,,,,,,,,,,,,,,,,,,,,,,,,,,,,,,186.5008183,186.5008183,o,0.09063650000007328,186.64486919999945,186.64486919999945,,,,,,,,,,,,,,,,,,,,2,001,2023-04-06_23h27.33.816,game,2022.2.5,59.994408520891696,
,,,,,,,,3,0,3,0,,,,,11,0,11,0,,,,,,,,,,,,,,,,,,,,,,,,,,,,,,,,,,,,,,,,,,,187.03432489999977,187.03432489999977,o,0.11095680000016728,187.19428079999943,187.19428079999943,,,,,,,,,,,,,,,,,,,,2,001,2023-04-06_23h27.33.816,game,2022.2.5,59.994408520891696,
,,,,,,,,3,0,3,0,,,,,12,0,12,0,,,,,,,,,,,,,,,,,,,,,,,,,,,,,,,,,,,,,,,,,,,187.58415830000013,187.58415830000013,o,0.09842420000131824,187.7304137000001,187.7304137000001,,,,,,,,,,,,,,,,,,,,2,001,2023-04-06_23h27.33.816,game,2022.2.5,59.994408520891696,
,,,,,,,,3,0,3,0,,,,,13,0,13,0,,,,,,,,,,,,,,,,,,,,,,,,,,,,,,,,,,,,,,,,,,,188.11770290000004,188.11770290000004,o,0.14019660000030854,188.3239069000001,188.3239069000001,,,,,,,,,,,,,,,,,,,,2,001,2023-04-06_23h27.33.816,game,2022.2.5,59.994408520891696,
,,,,,,,,3,0,3,0,,,,,14,0,14,0,,,,,,,,,,,,,,,,,,,,,,,,,,,,,,,,,,,,,,,,,,,188.70117329999994,188.70117329999994,o,0.16453499999988708,188.91947830000026,188.91947830000026,,,,,,,,,,,,,,,,,,,,2,001,2023-04-06_23h27.33.816,game,2022.2.5,59.994408520891696,
,,,,,,,,3,0,3,0,,,,,15,0,15,0,,,,,,,,,,,,,,,,,,,,,,,,,,,,,,,,,,,,,,,,,,,189.30083009999998,189.30083009999998,o,0.04085540000050969,189.40554499999962,189.40554499999962,,,,,,,,,,,,,,,,,,,,2,001,2023-04-06_23h27.33.816,game,2022.2.5,59.994408520891696,
,,,,,,,,3,0,3,0,,,,,16,0,16,0,,,,,,,,,,,,,,,,,,,,,,,,,,,,,,,,,,,,,,,,,,,189.7840495999999,189.7840495999999,o,0.1351810000005571,189.97992470000008,189.97992470000008,,,,,,,,,,,,,,,,,,,,2,001,2023-04-06_23h27.33.816,game,2022.2.5,59.994408520891696,
,,,,,,,,3,0,3,0,,,,,17,0,17,0,,,,,,,,,,,,,,,,,,,,,,,,,,,,,,,,,,,,,,,,,,,190.36726679999992,190.36726679999992,o,0.08106560000032914,190.48612279999998,190.48612279999998,,,,,,,,,,,,,,,,,,,,2,001,2023-04-06_23h27.33.816,game,2022.2.5,59.994408520891696,
,,,,,,,,3,0,3,0,,,,,18,0,18,0,,,,,,,,,,,,,,,,,,,,,,,,,,,,,,,,,,,,,,,,,,,190.8840670999998,190.8840670999998,o,0.09067830000094546,191.02995699999974,191.02995699999974,,,,,,,,,,,,,,,,,,,,2,001,2023-04-06_23h27.33.816,game,2022.2.5,59.994408520891696,
,,,,,,,,3,0,3,0,,,,,19,0,19,0,,,,,,,,,,,,,,,,,,,,,,,,,,,,,,,,,,,,,,,,,,,191.4175435999996,191.4175435999996,o,0.07968350000010105,191.54231579999941,191.54231579999941,,,,,,,,,,,,,,,,,,,,2,001,2023-04-06_23h27.33.816,game,2022.2.5,59.994408520891696,
,,,,,,,,3,0,3,0,,,,,,,,,,,,,,,,,,,,,,,,,,,,,,,,,,,,,,,,,,,191.9341029999996,191.9341029999996,space,0.6971376000010423,,,,,,,,,,,,,,,,,,,,,,,,,,,,,,2,001,2023-04-06_23h27.33.816,game,2022.2.5,59.994408520891696,
,,,,,,,,4,0,4,0,0,0,0,0,,,,,,,,,,,,,,,,,,,,,,,,,,,,,,,193.71734969999943,193.71734969999943,q,0.37257430000045133,194.11794439999994,194.11794439999994,194.51744099999996,194.51744099999996,,,,,,,,,,,,,,,,,,,192.65085589999944,192.65085589999944,space,1.0446517000009408,,,,,,,,,,,,2,001,2023-04-06_23h27.33.816,game,2022.2.5,59.994408520891696,
,,,,,,,,4,0,4,0,1,0,1,0,,,,,,,,,,,,,,,,,,,,,,,,,,,,,,,194.51744099999996,194.51744099999996,w,0.2695790000007037,194.81781669999964,194.81781669999964,195.21737440000015,195.21737440000015,,,,,,,,,,,,,,,,,,,,,,,,,,,,,,,,,,2,001,2023-04-06_23h27.33.816,game,2022.2.5,59.994408520891696,
,,,,,,,,4,0,4,0,2,0,2,0,,,,,,,,,,,,,,,,,,,,,,,,,,,,,,,195.21737440000015,195.21737440000015,o,0.29596140000012383,195.5343839999996,195.5343839999996,195.9345069000001,195.9345069000001,,,,,,,,,,,,,,,,,,,,,,,,,,,,,,,,,,2,001,2023-04-06_23h27.33.816,game,2022.2.5,59.994408520891696,
,,,,,,,,4,0,4,0,3,0,3,0,,,,,,,,,,,,,,,,,,,,,,,,,,,,,,,195.9345069000001,195.9345069000001,p,0.28613529999984166,196.2515284000001,196.2515284000001,196.65076619999945,196.65076619999945,,,,,,,,,,,,,,,,,,,,,,,,,,,,,,,,,,2,001,2023-04-06_23h27.33.816,game,2022.2.5,59.994408520891696,
,,,,,,,,4,0,4,0,4,0,4,0,,,,,,,,,,,,,,,,,,,,,,,,,,,,,,,196.65076619999945,196.65076619999945,q,0.3122598999998445,196.9844425000001,196.9844425000001,197.38428039999962,197.38428039999962,,,,,,,,,,,,,,,,,,,,,,,,,,,,,,,,,,2,001,2023-04-06_23h27.33.816,game,2022.2.5,59.994408520891696,
,,,,,,,,4,0,4,0,5,0,5,0,,,,,,,,,,,,,,,,,,,,,,,,,,,,,,,197.38428039999962,197.38428039999962,w,0.24613180000051216,197.6509471999998,197.6509471999998,198.05097839999962,198.05097839999962,,,,,,,,,,,,,,,,,,,,,,,,,,,,,,,,,,2,001,2023-04-06_23h27.33.816,game,2022.2.5,59.994408520891696,
,,,,,,,,4,0,4,0,6,0,6,0,,,,,,,,,,,,,,,,,,,,,,,,,,,,,,,198.05097839999962,198.05097839999962,o,0.42946800000026997,198.5009140000002,198.5009140000002,198.90098949999992,198.90098949999992,,,,,,,,,,,,,,,,,,,,,,,,,,,,,,,,,,2,001,2023-04-06_23h27.33.816,game,2022.2.5,59.994408520891696,
,,,,,,,,4,0,4,0,7,0,7,0,,,,,,,,,,,,,,,,,,,,,,,,,,,,,,,198.90098949999992,198.90098949999992,o,0.5466654000010749,199.46815789999982,199.46815789999982,199.8675744000002,199.8675744000002,,,,,,,,,,,,,,,,,,,,,,,,,,,,,,,,,,2,001,2023-04-06_23h27.33.816,game,2022.2.5,59.994408520891696,
,,,,,,,,4,0,4,0,8,0,8,0,,,,,,,,,,,,,,,,,,,,,,,,,,,,,,,199.8675744000002,199.8675744000002,o,0.49117430000114837,200.38424810000015,200.38424810000015,200.7843624999996,200.7843624999996,,,,,,,,,,,,,,,,,,,,,,,,,,,,,,,,,,2,001,2023-04-06_23h27.33.816,game,2022.2.5,59.994408520891696,
,,,,,,,,4,0,4,0,9,0,9,0,,,,,,,,,,,,,,,,,,,,,,,,,,,,,,,200.7843624999996,200.7843624999996,p,0.3604813000010836,201.16773039999953,201.16773039999953,201.56754480000018,201.56754480000018,,,,,,,,,,,,,,,,,,,,,,,,,,,,,,,,,,2,001,2023-04-06_23h27.33.816,game,2022.2.5,59.994408520891696,
,,,,,,,,4,0,4,0,10,0,10,0,,,,,,,,,,,,,,,,,,,,,,,,,,,,,,,201.56754480000018,201.56754480000018,w,0.3148676999999225,201.90101009999944,201.90101009999944,202.30098350000026,202.30098350000026,,,,,,,,,,,,,,,,,,,,,,,,,,,,,,,,,,2,001,2023-04-06_23h27.33.816,game,2022.2.5,59.994408520891696,
,,,,,,,,4,0,4,0,11,0,11,0,,,,,,,,,,,,,,,,,,,,,,,,,,,,,,,202.30098350000026,202.30098350000026,o,0.1793070000003354,202.50126029999956,202.50126029999956,202.9008563999996,202.9008563999996,,,,,,,,,,,,,,,,,,,,,,,,,,,,,,,,,,2,001,2023-04-06_23h27.33.816,game,2022.2.5,59.994408520891696,
,,,,,,,,4,0,4,0,12,0,12,0,,,,,,,,,,,,,,,,,,,,,,,,,,,,,,,202.9008563999996,202.9008563999996,p,0.3955210000003717,203.31793180000022,203.31793180000022,203.7177228999999,203.7177228999999,,,,,,,,,,,,,,,,,,,,,,,,,,,,,,,,,,2,001,2023-04-06_23h27.33.816,game,2022.2.5,59.994408520891696,
,,,,,,,,4,0,4,0,13,0,13,0,,,,,,,,,,,,,,,,,,,,,,,,,,,,,,,203.7177228999999,203.7177228999999,o,0.2626084000003175,204.00431669999944,204.00431669999944,,,,,,,,,,,,,,,,,,,,,,,,,,,,,,,,,,,,2,001,2023-04-06_23h27.33.816,game,2022.2.5,59.994408520891696,
,,,,,,,,4,0,4,0,14,0,14,0,,,,,,,,,,,,,,,,,,,,,,,,,,,,,,,204.41767030000028,204.41767030000028,q,0.2010123999998541,204.65121309999995,204.65121309999995,205.05090990000008,205.05090990000008,,,,,,,,,,,,,,,,,,,,,,,,,,,,,,,,,,2,001,2023-04-06_23h27.33.816,game,2022.2.5,59.994408520891696,
,,,,,,,,4,0,4,0,15,0,15,0,,,,,,,,,,,,,,,,,,,,,,,,,,,,,,,205.05090990000008,205.05090990000008,w,0.4492201000002751,205.51778240000021,205.51778240000021,205.91765469999973,205.91765469999973,,,,,,,,,,,,,,,,,,,,,,,,,,,,,,,,,,2,001,2023-04-06_23h27.33.816,game,2022.2.5,59.994408520891696,
,,,,,,,,4,0,4,0,16,0,16,0,,,,,,,,,,,,,,,,,,,,,,,,,,,,,,,205.91765469999973,205.91765469999973,o,0.24257820000093488,206.18447860000015,206.18447860000015,206.58452409999973,206.58452409999973,,,,,,,,,,,,,,,,,,,,,,,,,,,,,,,,,,2,001,2023-04-06_23h27.33.816,game,2022.2.5,59.994408520891696,
,,,,,,,,4,0,4,0,17,0,17,0,,,,,,,,,,,,,,,,,,,,,,,,,,,,,,,206.58452409999973,206.58452409999973,o,0.24692830000003596,206.8513442000003,206.8513442000003,207.25104349999947,207.25104349999947,,,,,,,,,,,,,,,,,,,,,,,,,,,,,,,,,,2,001,2023-04-06_23h27.33.816,game,2022.2.5,59.994408520891696,
,,,,,,,,4,0,4,0,18,0,18,0,,,,,,,,,,,,,,,,,,,,,,,,,,,,,,,207.25104349999947,207.25104349999947,o,0.16089110000029905,207.4345169999997,207.4345169999997,207.83438879999994,207.83438879999994,,,,,,,,,,,,,,,,,,,,,,,,,,,,,,,,,,2,001,2023-04-06_23h27.33.816,game,2022.2.5,59.994408520891696,
,,,,,,,,4,0,4,0,19,0,19,0,,,,,,,,,,,,,,,,,,,,,,,,,,,,,,,207.83438879999994,207.83438879999994,o,0.17455840000093303,208.0343802999996,208.0343802999996,208.43441939999957,208.43441939999957,,,,,,,,,,,,,,,,,,,,,,,,,,,,,,,,,,2,001,2023-04-06_23h27.33.816,game,2022.2.5,59.994408520891696,
,,,,,,,,4,0,4,0,,,,,0,0,0,0,,,,,,,,,,,,,,,,,,,,,,,,,,,,,,,,,,,208.43441939999957,208.43441939999957,space,0.7285773000003246,,,,,209.6510228999996,209.6510228999996,None,,210.0568916000002,210.0568916000002,,,,,,,,,209.1846945999996,209.1846945999996,space,0.44397680000020046,210.0568916000002,210.0568916000002,,,,,,2,001,2023-04-06_23h27.33.816,game,2022.2.5,59.994408520891696,
,,,,,,,,4,0,4,0,,,,,1,0,1,0,,,,,,,,,,,,,,,,,,,,,,,,,,,,,,,,,,,,,,,,,,,210.4677383999997,210.4677383999997,q,0.18006040000000212,210.70089559999997,210.70089559999997,,,,,,,,,,,,,,,,,,,,2,001,2023-04-06_23h27.33.816,game,2022.2.5,59.994408520891696,
,,,,,,,,4,0,4,0,,,,,2,0,2,0,,,,,,,,,,,,,,,,,,,,,,,,,,,,,,,,,,,,,,,,,,,211.0843686999997,211.0843686999997,w,0.24527950000083365,211.37245410000014,211.37245410000014,,,,,,,,,,,,,,,,,,,,2,001,2023-04-06_23h27.33.816,game,2022.2.5,59.994408520891696,
,,,,,,,,4,0,4,0,,,,,3,0,3,0,,,,,,,,,,,,,,,,,,,,,,,,,,,,,,,,,,,,,,,,,,,211.76788450000004,211.76788450000004,o,0.18726560000050085,212.01404099999945,212.01404099999945,,,,,,,,,,,,,,,,,,,,2,001,2023-04-06_23h27.33.816,game,2022.2.5,59.994408520891696,
,,,,,,,,4,0,4,0,,,,,4,0,4,0,,,,,,,,,,,,,,,,,,,,,,,,,,,,,,,,,,,,,,,,,,,212.40117029999965,212.40117029999965,p,0.1929792000009911,212.63486319999993,212.63486319999993,,,,,,,,,,,,,,,,,,,,2,001,2023-04-06_23h27.33.816,game,2022.2.5,59.994408520891696,
,,,,,,,,4,0,4,0,,,,,5,0,5,0,,,,,,,,,,,,,,,,,,,,,,,,,,,,,,,,,,,,,,,,,,,213.03435160000026,213.03435160000026,w,0.2887916000008772,213.38107489999948,213.38107489999948,,,,,,,,,,,,,,,,,,,,2,001,2023-04-06_23h27.33.816,game,2022.2.5,59.994408520891696,
,,,,,,,,4,0,4,0,,,,,6,0,6,0,,,,,,,,,,,,,,,,,,,,,,,,,,,,,,,,,,,,,,,,,,,213.76768720000018,213.76768720000018,q,0.13008930000069086,213.94541389999995,213.94541389999995,,,,,,,,,,,,,,,,,,,,2,001,2023-04-06_23h27.33.816,game,2022.2.5,59.994408520891696,
,,,,,,,,4,0,4,0,,,,,7,0,7,0,,,,,,,,,,,,,,,,,,,,,,,,,,,,,,,,,,,,,,,,,,,214.33427389999997,214.33427389999997,w,0.15940890000001673,214.54337190000024,214.54337190000024,,,,,,,,,,,,,,,,,,,,2,001,2023-04-06_23h27.33.816,game,2022.2.5,59.994408520891696,
,,,,,,,,4,0,4,0,,,,,8,0,8,0,,,,,,,,,,,,,,,,,,,,,,,,,,,,,,,,,,,,,,,,,,,214.93416439999964,214.93416439999964,o,0.16955390000020998,215.17211059999954,215.17211059999954,,,,,,,,,,,,,,,,,,,,2,001,2023-04-06_23h27.33.816,game,2022.2.5,59.994408520891696,
,,,,,,,,4,0,4,0,,,,,9,0,9,0,,,,,,,,,,,,,,,,,,,,,,,,,,,,,,,,,,,,,,,,,,,215.55101159999958,215.55101159999958,p,0.10923360000015236,215.70936840000013,215.70936840000013,,,,,,,,,,,,,,,,,,,,2,001,2023-04-06_23h27.33.816,game,2022.2.5,59.994408520891696,
,,,,,,,,4,0,4,0,,,,,10,0,10,0,,,,,,,,,,,,,,,,,,,,,,,,,,,,,,,,,,,,,,,,,,,216.10128290000011,216.10128290000011,q,0.12083670000083657,216.28560149999976,216.28560149999976,,,,,,,,,,,,,,,,,,,,2,001,2023-04-06_23h27.33.816,game,2022.2.5,59.994408520891696,
,,,,,,,,4,0,4,0,,,,,11,0,11,0,,,,,,,,,,,,,,,,,,,,,,,,,,,,,,,,,,,,,,,,,,,216.6676841999997,216.6676841999997,w,0.14017280000007304,216.8755801999996,216.8755801999996,,,,,,,,,,,,,,,,,,,,2,001,2023-04-06_23h27.33.816,game,2022.2.5,59.994408520891696,
,,,,,,,,4,0,4,0,,,,,12,0,12,0,,,,,,,,,,,,,,,,,,,,,,,,,,,,,,,,,,,,,,,,,,,217.2509554999997,217.2509554999997,o,0.10392550000051415,217.4002129999999,217.4002129999999,,,,,,,,,,,,,,,,,,,,2,001,2023-04-06_23h27.33.816,game,2022.2.5,59.994408520891696,
,,,,,,,,4,0,4,0,,,,,13,0,13,0,,,,,,,,,,,,,,,,,,,,,,,,,,,,,,,,,,,,,,,,,,,217.80099719999998,217.80099719999998,p,0.08650660000057542,217.9570291,217.9570291,,,,,,,,,,,,,,,,,,,,2,001,2023-04-06_23h27.33.816,game,2022.2.5,59.994408520891696,
,,,,,,,,4,0,4,0,,,,,14,0,14,0,,,,,,,,,,,,,,,,,,,,,,,,,,,,,,,,,,,,,,,,,,,218.3344102000001,218.3344102000001,q,0.08271180000065215,218.4638219999997,218.4638219999997,,,,,,,,,,,,,,,,,,,,2,001,2023-04-06_23h27.33.816,game,2022.2.5,59.994408520891696,
,,,,,,,,4,0,4,0,,,,,15,0,15,0,,,,,,,,,,,,,,,,,,,,,,,,,,,,,,,,,,,,,,,,,,,218.8509266000001,218.8509266000001,w,0.07185610000033194,218.97268429999986,218.97268429999986,,,,,,,,,,,,,,,,,,,,2,001,2023-04-06_23h27.33.816,game,2022.2.5,59.994408520891696,
,,,,,,,,4,0,4,0,,,,,16,0,16,0,,,,,,,,,,,,,,,,,,,,,,,,,,,,,,,,,,,,,,,,,,,219.36757930000022,219.36757930000022,o,0.15657420000025013,219.59005259999958,219.59005259999958,,,,,,,,,,,,,,,,,,,,2,001,2023-04-06_23h27.33.816,game,2022.2.5,59.994408520891696,
,,,,,,,,4,0,4,0,,,,,17,0,17,0,,,,,,,,,,,,,,,,,,,,,,,,,,,,,,,,,,,,,,,,,,,219.9676198999996,219.9676198999996,o,0.1447502999999415,220.1694050999995,220.1694050999995,,,,,,,,,,,,,,,,,,,,2,001,2023-04-06_23h27.33.816,game,2022.2.5,59.994408520891696,
,,,,,,,,4,0,4,0,,,,,18,0,18,0,,,,,,,,,,,,,,,,,,,,,,,,,,,,,,,,,,,,,,,,,,,220.55130779999945,220.55130779999945,o,0.08497220000026573,220.70548409999992,220.70548409999992,,,,,,,,,,,,,,,,,,,,2,001,2023-04-06_23h27.33.816,game,2022.2.5,59.994408520891696,
,,,,,,,,4,0,4,0,,,,,19,0,19,0,,,,,,,,,,,,,,,,,,,,,,,,,,,,,,,,,,,,,,,,,,,221.08423200000016,221.08423200000016,o,0.07630260000041744,221.21562129999984,221.21562129999984,,,,,,,,,,,,,,,,,,,,2,001,2023-04-06_23h27.33.816,game,2022.2.5,59.994408520891696,
,,,,,,,,4,0,4,0,,,,,,,,,,,,,,,,,,,,,,,,,,,,,,,,,,,,,,,,,,,221.6010495999999,221.6010495999999,space,0.656255400000191,,,,,,,,,,,,,,,,,,,,,,,,,,,,,,2,001,2023-04-06_23h27.33.816,game,2022.2.5,59.994408520891696,
,,,,,,,,5,0,5,0,0,0,0,0,,,,,,,,,,,,,,,,,,,,,,,,,,,,,,,222.98426740000014,222.98426740000014,q,1.667041400000926,224.66807470000003,224.66807470000003,225.06799369999953,225.06799369999953,,,,,,,,,,,,,,,,,,,222.2847714999998,222.2847714999998,space,0.6771686000001864,,,,,,,,,,,,2,001,2023-04-06_23h27.33.816,game,2022.2.5,59.994408520891696,
,,,,,,,,5,0,5,0,1,0,1,0,,,,,,,,,,,,,,,,,,,,,,,,,,,,,,,225.06799369999953,225.06799369999953,w,0.389080500000091,225.48477379999986,225.48477379999986,225.8845242999996,225.8845242999996,,,,,,,,,,,,,,,,,,,,,,,,,,,,,,,,,,2,001,2023-04-06_23h27.33.816,game,2022.2.5,59.994408520891696,
,,,,,,,,5,0,5,0,2,0,2,0,,,,,,,,,,,,,,,,,,,,,,,,,,,,,,,225.8845242999996,225.8845242999996,p,0.3882113000008758,226.3017020999996,226.3017020999996,226.70130879999942,226.70130879999942,,,,,,,,,,,,,,,,,,,,,,,,,,,,,,,,,,2,001,2023-04-06_23h27.33.816,game,2022.2.5,59.994408520891696,
,,,,,,,,5,0,5,0,3,0,3,0,,,,,,,,,,,,,,,,,,,,,,,,,,,,,,,226.70130879999942,226.70130879999942,o,0.4033378000003722,227.13474399999996,227.13474399999996,227.53444519999994,227.53444519999994,,,,,,,,,,,,,,,,,,,,,,,,,,,,,,,,,,2,001,2023-04-06_23h27.33.816,game,2022.2.5,59.994408520891696,
,,,,,,,,5,0,5,0,4,0,4,0,,,,,,,,,,,,,,,,,,,,,,,,,,,,,,,227.53444519999994,227.53444519999994,q,0.6508328999998412,228.2179159999996,228.2179159999996,228.61773300000004,228.61773300000004,,,,,,,,,,,,,,,,,,,,,,,,,,,,,,,,,,2,001,2023-04-06_23h27.33.816,game,2022.2.5,59.994408520891696,
,,,,,,,,5,0,5,0,5,0,5,0,,,,,,,,,,,,,,,,,,,,,,,,,,,,,,,228.61773300000004,228.61773300000004,w,0.7191944000005606,229.36797690000003,229.36797690000003,229.76756750000004,229.76756750000004,,,,,,,,,,,,,,,,,,,,,,,,,,,,,,,,,,2,001,2023-04-06_23h27.33.816,game,2022.2.5,59.994408520891696,
,,,,,,,,5,0,5,0,6,0,6,0,,,,,,,,,,,,,,,,,,,,,,,,,,,,,,,229.76756750000004,229.76756750000004,o,0.5440747000002375,230.33458679999967,230.33458679999967,230.7346623000003,230.7346623000003,,,,,,,,,,,,,,,,,,,,,,,,,,,,,,,,,,2,001,2023-04-06_23h27.33.816,game,2022.2.5,59.994408520891696,
,,,,,,,,5,0,5,0,7,0,7,0,,,,,,,,,,,,,,,,,,,,,,,,,,,,,,,230.7346623000003,230.7346623000003,p,0.494584400000349,231.25163319999956,231.25163319999956,231.65110469999945,231.65110469999945,,,,,,,,,,,,,,,,,,,,,,,,,,,,,,,,,,2,001,2023-04-06_23h27.33.816,game,2022.2.5,59.994408520891696,
,,,,,,,,5,0,5,0,8,0,8,0,,,,,,,,,,,,,,,,,,,,,,,,,,,,,,,231.65110469999945,231.65110469999945,w,0.28133010000055947,231.95121689999996,231.95121689999996,232.35107340000013,232.35107340000013,,,,,,,,,,,,,,,,,,,,,,,,,,,,,,,,,,2,001,2023-04-06_23h27.33.816,game,2022.2.5,59.994408520891696,
,,,,,,,,5,0,5,0,9,0,9,0,,,,,,,,,,,,,,,,,,,,,,,,,,,,,,,232.35107340000013,232.35107340000013,q,0.4647837000002255,232.8346300000003,232.8346300000003,233.23460539999996,233.23460539999996,,,,,,,,,,,,,,,,,,,,,,,,,,,,,,,,,,2,001,2023-04-06_23h27.33.816,game,2022.2.5,59.994408520891696,
,,,,,,,,5,0,5,0,10,0,10,0,,,,,,,,,,,,,,,,,,,,,,,,,,,,,,,233.23460539999996,233.23460539999996,w,0.5763142000005246,233.83460379999997,233.83460379999997,234.23454409999977,234.23454409999977,,,,,,,,,,,,,,,,,,,,,,,,,,,,,,,,,,2,001,2023-04-06_23h27.33.816,game,2022.2.5,59.994408520891696,
,,,,,,,,5,0,5,0,11,0,11,0,,,,,,,,,,,,,,,,,,,,,,,,,,,,,,,234.23454409999977,234.23454409999977,o,0.4475772000005236,234.7013178999996,234.7013178999996,235.10123229999954,235.10123229999954,,,,,,,,,,,,,,,,,,,,,,,,,,,,,,,,,,2,001,2023-04-06_23h27.33.816,game,2022.2.5,59.994408520891696,
,,,,,,,,5,0,5,0,12,0,12,0,,,,,,,,,,,,,,,,,,,,,,,,,,,,,,,235.10123229999954,235.10123229999954,w,0.45019150000098307,235.56798999999955,235.56798999999955,235.96780630000012,235.96780630000012,,,,,,,,,,,,,,,,,,,,,,,,,,,,,,,,,,2,001,2023-04-06_23h27.33.816,game,2022.2.5,59.994408520891696,
,,,,,,,,5,0,5,0,13,0,13,0,,,,,,,,,,,,,,,,,,,,,,,,,,,,,,,235.96780630000012,235.96780630000012,q,0.45724239999981364,236.45174489999954,236.45174489999954,236.85120039999947,236.85120039999947,,,,,,,,,,,,,,,,,,,,,,,,,,,,,,,,,,2,001,2023-04-06_23h27.33.816,game,2022.2.5,59.994408520891696,
,,,,,,,,5,0,5,0,14,0,14,0,,,,,,,,,,,,,,,,,,,,,,,,,,,,,,,236.85120039999947,236.85120039999947,q,0.3274001000008866,237.20126710000022,237.20126710000022,237.60134670000025,237.60134670000025,,,,,,,,,,,,,,,,,,,,,,,,,,,,,,,,,,2,001,2023-04-06_23h27.33.816,game,2022.2.5,59.994408520891696,
,,,,,,,,5,0,5,0,15,0,15,0,,,,,,,,,,,,,,,,,,,,,,,,,,,,,,,237.60134670000025,237.60134670000025,q,0.49932840000019496,238.1182401999995,238.1182401999995,238.51768149999953,238.51768149999953,,,,,,,,,,,,,,,,,,,,,,,,,,,,,,,,,,2,001,2023-04-06_23h27.33.816,game,2022.2.5,59.994408520891696,
,,,,,,,,5,0,5,0,16,0,16,0,,,,,,,,,,,,,,,,,,,,,,,,,,,,,,,238.51768149999953,238.51768149999953,w,0.10108880000007048,238.65146209999966,238.65146209999966,239.05143520000001,239.05143520000001,,,,,,,,,,,,,,,,,,,,,,,,,,,,,,,,,,2,001,2023-04-06_23h27.33.816,game,2022.2.5,59.994408520891696,
,,,,,,,,5,0,5,0,17,0,17,0,,,,,,,,,,,,,,,,,,,,,,,,,,,,,,,239.05143520000001,239.05143520000001,p,0.3607685000006313,239.43480670000008,239.43480670000008,239.83444689999942,239.83444689999942,,,,,,,,,,,,,,,,,,,,,,,,,,,,,,,,,,2,001,2023-04-06_23h27.33.816,game,2022.2.5,59.994408520891696,
,,,,,,,,5,0,5,0,18,0,18,0,,,,,,,,,,,,,,,,,,,,,,,,,,,,,,,239.83444689999942,239.83444689999942,w,0.12036669999997684,239.98490399999991,239.98490399999991,240.38437109999995,240.38437109999995,,,,,,,,,,,,,,,,,,,,,,,,,,,,,,,,,,2,001,2023-04-06_23h27.33.816,game,2022.2.5,59.994408520891696,
,,,,,,,,5,0,5,0,19,0,19,0,,,,,,,,,,,,,,,,,,,,,,,,,,,,,,,240.38437109999995,240.38437109999995,w,0.45571770000060496,240.8680607999995,240.8680607999995,241.26785779999955,241.26785779999955,,,,,,,,,,,,,,,,,,,,,,,,,,,,,,,,,,2,001,2023-04-06_23h27.33.816,game,2022.2.5,59.994408520891696,
,,,,,,,,5,0,5,0,,,,,0,0,0,0,,,,,,,,,,,,,,,,,,,,,,,,,,,,,,,,,,,241.26785779999955,241.26785779999955,space,1.5798581999997623,,,,,243.66766159999952,243.66766159999952,q,0.2746906000011222,244.00158060000012,244.00158060000012,,,,,,,,,242.86821919999966,242.86821919999966,space,0.7799673999998049,,,,,,,,2,001,2023-04-06_23h27.33.816,game,2022.2.5,59.994408520891696,
,,,,,,,,5,0,5,0,,,,,1,0,1,0,,,,,,,,,,,,,,,,,,,,,,,,,,,,,,,,,,,,,,,,,,,244.38492760000008,244.38492760000008,w,0.17386100000021543,244.61142029999974,244.61142029999974,,,,,,,,,,,,,,,,,,,,2,001,2023-04-06_23h27.33.816,game,2022.2.5,59.994408520891696,
,,,,,,,,5,0,5,0,,,,,2,0,2,0,,,,,,,,,,,,,,,,,,,,,,,,,,,,,,,,,,,,,,,,,,,245.0014474999998,245.0014474999998,o,0.11304050000035204,245.16205720000016,245.16205720000016,,,,,,,,,,,,,,,,,,,,2,001,2023-04-06_23h27.33.816,game,2022.2.5,59.994408520891696,
,,,,,,,,5,0,5,0,,,,,3,0,3,0,,,,,,,,,,,,,,,,,,,,,,,,,,,,,,,,,,,,,,,,,,,245.5513805999999,245.5513805999999,p,0.0909628999997949,245.69934560000002,245.69934560000002,,,,,,,,,,,,,,,,,,,,2,001,2023-04-06_23h27.33.816,game,2022.2.5,59.994408520891696,
,,,,,,,,5,0,5,0,,,,,4,0,4,0,,,,,,,,,,,,,,,,,,,,,,,,,,,,,,,,,,,,,,,,,,,246.08434229999966,246.08434229999966,q,0.019643300000097952,246.15581070000007,246.15581070000007,,,,,,,,,,,,,,,,,,,,2,001,2023-04-06_23h27.33.816,game,2022.2.5,59.994408520891696,
,,,,,,,,5,0,5,0,,,,,5,0,5,0,,,,,,,,,,,,,,,,,,,,,,,,,,,,,,,,,,,,,,,,,,,246.55134689999977,246.55134689999977,w,0.08238930000061373,246.68609779999952,246.68609779999952,,,,,,,,,,,,,,,,,,,,2,001,2023-04-06_23h27.33.816,game,2022.2.5,59.994408520891696,
,,,,,,,,5,0,5,0,,,,,6,0,6,0,,,,,,,,,,,,,,,,,,,,,,,,,,,,,,,,,,,,,,,,,,,247.0679124999997,247.0679124999997,o,0.05163369999991119,247.1803756999998,247.1803756999998,,,,,,,,,,,,,,,,,,,,2,001,2023-04-06_23h27.33.816,game,2022.2.5,59.994408520891696,
,,,,,,,,5,0,5,0,,,,,7,0,7,0,,,,,,,,,,,,,,,,,,,,,,,,,,,,,,,,,,,,,,,,,,,247.56789430000026,247.56789430000026,p,0.03585220000059053,247.6590841999996,247.6590841999996,,,,,,,,,,,,,,,,,,,,2,001,2023-04-06_23h27.33.816,game,2022.2.5,59.994408520891696,
,,,,,,,,5,0,5,0,,,,,8,0,8,0,,,,,,,,,,,,,,,,,,,,,,,,,,,,,,,,,,,,,,,,,,,248.05124479999995,248.05124479999995,None,,248.46274059999996,248.46274059999996,,,,,,,,,,,,,,,,,,,,2,001,2023-04-06_23h27.33.816,game,2022.2.5,59.994408520891696,
,,,,,,,,5,0,5,0,,,,,9,0,9,0,,,,,,,,,,,,,,,,,,,,,,,,,,,,,,,,,,,,,,,,,,,248.85119759999998,248.85119759999998,q,0.08517660000052274,248.9993002000001,248.9993002000001,,,,,,,,,,,,,,,,,,,,2,001,2023-04-06_23h27.33.816,game,2022.2.5,59.994408520891696,
,,,,,,,,5,0,5,0,,,,,10,0,10,0,,,,,,,,,,,,,,,,,,,,,,,,,,,,,,,,,,,,,,,,,,,249.3845277999999,249.3845277999999,w,0.053256000001056236,249.50017190000017,249.50017190000017,,,,,,,,,,,,,,,,,,,,2,001,2023-04-06_23h27.33.816,game,2022.2.5,59.994408520891696,
,,,,,,,,5,0,5,0,,,,,11,0,11,0,,,,,,,,,,,,,,,,,,,,,,,,,,,,,,,,,,,,,,,,,,,249.8848453999999,249.8848453999999,o,0.1492331000008562,250.0751212999994,250.0751212999994,,,,,,,,,,,,,,,,,,,,2,001,2023-04-06_23h27.33.816,game,2022.2.5,59.994408520891696,
,,,,,,,,5,0,5,0,,,,,12,0,12,0,,,,,,,,,,,,,,,,,,,,,,,,,,,,,,,,,,,,,,,,,,,250.46810939999978,250.46810939999978,p,0.03449189999992086,250.5566429999999,250.5566429999999,,,,,,,,,,,,,,,,,,,,2,001,2023-04-06_23h27.33.816,game,2022.2.5,59.994408520891696,
,,,,,,,,5,0,5,0,,,,,13,0,13,0,,,,,,,,,,,,,,,,,,,,,,,,,,,,,,,,,,,,,,,,,,,250.95143569999982,250.95143569999982,q,0.02234839999982796,251.03627619999952,251.03627619999952,,,,,,,,,,,,,,,,,,,,2,001,2023-04-06_23h27.33.816,game,2022.2.5,59.994408520891696,
,,,,,,,,5,0,5,0,,,,,14,0,14,0,,,,,,,,,,,,,,,,,,,,,,,,,,,,,,,,,,,,,,,,,,,251.41808870000023,251.41808870000023,w,0.07220270000016171,251.53842819999954,251.53842819999954,,,,,,,,,,,,,,,,,,,,2,001,2023-04-06_23h27.33.816,game,2022.2.5,59.994408520891696,
,,,,,,,,5,0,5,0,,,,,15,0,15,0,,,,,,,,,,,,,,,,,,,,,,,,,,,,,,,,,,,,,,,,,,,251.93482349999977,251.93482349999977,o,0.0781886000004306,252.0581271000001,252.0581271000001,,,,,,,,,,,,,,,,,,,,2,001,2023-04-06_23h27.33.816,game,2022.2.5,59.994408520891696,
,,,,,,,,5,0,5,0,,,,,16,0,16,0,,,,,,,,,,,,,,,,,,,,,,,,,,,,,,,,,,,,,,,,,,,252.45130400000016,252.45130400000016,p,0.04441750000023603,252.55411139999978,252.55411139999978,,,,,,,,,,,,,,,,,,,,2,001,2023-04-06_23h27.33.816,game,2022.2.5,59.994408520891696,
,,,,,,,,5,0,5,0,,,,,17,0,17,0,,,,,,,,,,,,,,,,,,,,,,,,,,,,,,,,,,,,,,,,,,,252.9346317999998,252.9346317999998,q,0.016439200000604615,252.99203020000004,252.99203020000004,,,,,,,,,,,,,,,,,,,,2,001,2023-04-06_23h27.33.816,game,2022.2.5,59.994408520891696,
,,,,,,,,5,0,5,0,,,,,18,0,18,0,,,,,,,,,,,,,,,,,,,,,,,,,,,,,,,,,,,,,,,,,,,253.3849295,253.3849295,w,0.2424620000001596,253.69125280000026,253.69125280000026,,,,,,,,,,,,,,,,,,,,2,001,2023-04-06_23h27.33.816,game,2022.2.5,59.994408520891696,
,,,,,,,,5,0,5,0,,,,,19,0,19,0,,,,,,,,,,,,,,,,,,,,,,,,,,,,,,,,,,,,,,,,,,,254.06781859999955,254.06781859999955,w,0.22787400000106572,254.34330679999948,254.34330679999948,,,,,,,,,,,,,,,,,,,,2,001,2023-04-06_23h27.33.816,game,2022.2.5,59.994408520891696,
,,,,,,,,5,0,5,0,,,,,,,,,,,,,,,,,,,,,,,,,,,,,,,,,,,,,,,,,,,254.73477439999988,254.73477439999988,space,1.6122611000009783,,,,,,,,,,,,,,,,,,,,,,,,,,,,,,2,001,2023-04-06_23h27.33.816,game,2022.2.5,59.994408520891696,
,,,,,,,,6,0,6,0,0,0,0,0,,,,,,,,,,,,,,,,,,,,,,,,,,,,,,,257.5180413999997,257.5180413999997,q,0.33710880000035104,257.8851976999995,257.8851976999995,258.2845231000001,258.2845231000001,,,,,,,,,,,,,,,,,,,256.36807839999983,256.36807839999983,space,1.1263659000005646,,,,,,,,,,,,2,001,2023-04-06_23h27.33.816,game,2022.2.5,59.994408520891696,
,,,,,,,,6,0,6,0,1,0,1,0,,,,,,,,,,,,,,,,,,,,,,,,,,,,,,,258.2845231000001,258.2845231000001,w,0.3082352000001265,258.62019299999974,258.62019299999974,,,,,,,,,,,,,,,,,,,,,,,,,,,,,,,,,,,,2,001,2023-04-06_23h27.33.816,game,2022.2.5,59.994408520891696,
,,,,,,,,6,0,6,0,2,0,2,0,,,,,,,,,,,,,,,,,,,,,,,,,,,,,,,259.0347173,259.0347173,o,0.062079000000267115,259.11841490000006,259.11841490000006,259.51821479999944,259.51821479999944,,,,,,,,,,,,,,,,,,,,,,,,,,,,,,,,,,2,001,2023-04-06_23h27.33.816,game,2022.2.5,59.994408520891696,
,,,,,,,,6,0,6,0,3,0,3,0,,,,,,,,,,,,,,,,,,,,,,,,,,,,,,,259.51821479999944,259.51821479999944,p,0.14089140000032785,259.68651599999976,259.68651599999976,,,,,,,,,,,,,,,,,,,,,,,,,,,,,,,,,,,,2,001,2023-04-06_23h27.33.816,game,2022.2.5,59.994408520891696,
,,,,,,,,6,0,6,0,4,0,4,0,,,,,,,,,,,,,,,,,,,,,,,,,,,,,,,260.1010895999998,260.1010895999998,q,0.40752900000006775,260.53494219999993,260.53494219999993,260.93477749999965,260.93477749999965,,,,,,,,,,,,,,,,,,,,,,,,,,,,,,,,,,2,001,2023-04-06_23h27.33.816,game,2022.2.5,59.994408520891696,
,,,,,,,,6,0,6,0,5,0,5,0,,,,,,,,,,,,,,,,,,,,,,,,,,,,,,,260.93477749999965,260.93477749999965,w,0.24594909999996162,261.2015156999996,261.2015156999996,261.6014269999996,261.6014269999996,,,,,,,,,,,,,,,,,,,,,,,,,,,,,,,,,,2,001,2023-04-06_23h27.33.816,game,2022.2.5,59.994408520891696,
,,,,,,,,6,0,6,0,6,0,6,0,,,,,,,,,,,,,,,,,,,,,,,,,,,,,,,261.6014269999996,261.6014269999996,o,0.16866730000037933,261.80167859999983,261.80167859999983,262.2013076000003,262.2013076000003,,,,,,,,,,,,,,,,,,,,,,,,,,,,,,,,,,2,001,2023-04-06_23h27.33.816,game,2022.2.5,59.994408520891696,
,,,,,,,,6,0,6,0,7,0,7,0,,,,,,,,,,,,,,,,,,,,,,,,,,,,,,,262.2013076000003,262.2013076000003,w,0.2039468000002671,262.4349231999995,262.4349231999995,262.8348734000001,262.8348734000001,,,,,,,,,,,,,,,,,,,,,,,,,,,,,,,,,,2,001,2023-04-06_23h27.33.816,game,2022.2.5,59.994408520891696,
,,,,,,,,6,0,6,0,8,0,8,0,,,,,,,,,,,,,,,,,,,,,,,,,,,,,,,262.8348734000001,262.8348734000001,w,0.0853491000007125,262.95165149999957,262.95165149999957,263.3513885000002,263.3513885000002,,,,,,,,,,,,,,,,,,,,,,,,,,,,,,,,,,2,001,2023-04-06_23h27.33.816,game,2022.2.5,59.994408520891696,
,,,,,,,,6,0,6,0,9,0,9,0,,,,,,,,,,,,,,,,,,,,,,,,,,,,,,,263.3513885000002,263.3513885000002,w,0.13183010000011564,263.5059355000003,263.5059355000003,,,,,,,,,,,,,,,,,,,,,,,,,,,,,,,,,,,,2,001,2023-04-06_23h27.33.816,game,2022.2.5,59.994408520891696,
,,,,,,,,6,0,6,0,10,0,10,0,,,,,,,,,,,,,,,,,,,,,,,,,,,,,,,263.9180719999995,263.9180719999995,q,0.14028980000057345,264.0850343000002,264.0850343000002,264.48483599999963,264.48483599999963,,,,,,,,,,,,,,,,,,,,,,,,,,,,,,,,,,2,001,2023-04-06_23h27.33.816,game,2022.2.5,59.994408520891696,
,,,,,,,,6,0,6,0,11,0,11,0,,,,,,,,,,,,,,,,,,,,,,,,,,,,,,,264.48483599999963,264.48483599999963,w,0.04886930000066059,264.55156350000016,264.55156350000016,264.95133220000025,264.95133220000025,,,,,,,,,,,,,,,,,,,,,,,,,,,,,,,,,,2,001,2023-04-06_23h27.33.816,game,2022.2.5,59.994408520891696,
,,,,,,,,6,0,6,0,12,0,12,0,,,,,,,,,,,,,,,,,,,,,,,,,,,,,,,264.95133220000025,264.95133220000025,p,0.24366460000055667,265.21831959999963,265.21831959999963,265.61800200000016,265.61800200000016,,,,,,,,,,,,,,,,,,,,,,,,,,,,,,,,,,2,001,2023-04-06_23h27.33.816,game,2022.2.5,59.994408520891696,
,,,,,,,,6,0,6,0,13,0,13,0,,,,,,,,,,,,,,,,,,,,,,,,,,,,,,,265.61800200000016,265.61800200000016,w,0.0686029000007693,265.71833849999985,265.71833849999985,266.1181551999998,266.1181551999998,,,,,,,,,,,,,,,,,,,,,,,,,,,,,,,,,,2,001,2023-04-06_23h27.33.816,game,2022.2.5,59.994408520891696,
,,,,,,,,6,0,6,0,14,0,14,0,,,,,,,,,,,,,,,,,,,,,,,,,,,,,,,266.1181551999998,266.1181551999998,w,0.7473742000001948,266.8850943999996,266.8850943999996,267.2848495999997,267.2848495999997,,,,,,,,,,,,,,,,,,,,,,,,,,,,,,,,,,2,001,2023-04-06_23h27.33.816,game,2022.2.5,59.994408520891696,
,,,,,,,,6,0,6,0,15,0,15,0,,,,,,,,,,,,,,,,,,,,,,,,,,,,,,,267.2848495999997,267.2848495999997,w,0.6396766999996544,267.9518608999997,267.9518608999997,268.35129789999974,268.35129789999974,,,,,,,,,,,,,,,,,,,,,,,,,,,,,,,,,,2,001,2023-04-06_23h27.33.816,game,2022.2.5,59.994408520891696,
,,,,,,,,6,0,6,0,16,0,16,0,,,,,,,,,,,,,,,,,,,,,,,,,,,,,,,268.35129789999974,268.35129789999974,w,0.9710529000003589,269.3517677,269.3517677,269.7514560999998,269.7514560999998,,,,,,,,,,,,,,,,,,,,,,,,,,,,,,,,,,2,001,2023-04-06_23h27.33.816,game,2022.2.5,59.994408520891696,
,,,,,,,,6,0,6,0,17,0,17,0,,,,,,,,,,,,,,,,,,,,,,,,,,,,,,,269.7514560999998,269.7514560999998,q,1.179803200000606,270.95186399999966,270.95186399999966,271.3514967000001,271.3514967000001,,,,,,,,,,,,,,,,,,,,,,,,,,,,,,,,,,2,001,2023-04-06_23h27.33.816,game,2022.2.5,59.994408520891696,
,,,,,,,,6,0,6,0,18,0,18,0,,,,,,,,,,,,,,,,,,,,,,,,,,,,,,,271.3514967000001,271.3514967000001,w,0.4085374000005686,271.7848392999995,271.7848392999995,272.18470479999996,272.18470479999996,,,,,,,,,,,,,,,,,,,,,,,,,,,,,,,,,,2,001,2023-04-06_23h27.33.816,game,2022.2.5,59.994408520891696,
,,,,,,,,6,0,6,0,19,0,19,0,,,,,,,,,,,,,,,,,,,,,,,,,,,,,,,272.18470479999996,272.18470479999996,w,0.2081324000009772,272.41835100000026,272.41835100000026,272.8180805000002,272.8180805000002,,,,,,,,,,,,,,,,,,,,,,,,,,,,,,,,,,2,001,2023-04-06_23h27.33.816,game,2022.2.5,59.994408520891696,
,,,,,,,,6,0,6,0,,,,,0,0,0,0,,,,,,,,,,,,,,,,,,,,,,,,,,,,,,,,,,,272.8180805000002,272.8180805000002,space,0.7861603999999716,,,,,274.6347360999998,274.6347360999998,None,,275.0453054999998,275.0453054999998,,,,,,,,,273.63492570000017,273.63492570000017,space,0.9694350000008853,275.0453054999998,275.0453054999998,,,,,,2,001,2023-04-06_23h27.33.816,game,2022.2.5,59.994408520891696,
,,,,,,,,6,0,6,0,,,,,1,0,1,0,,,,,,,,,,,,,,,,,,,,,,,,,,,,,,,,,,,,,,,,,,,275.45164099999965,275.45164099999965,q,0.23165640000024723,275.7353301000003,275.7353301000003,,,,,,,,,,,,,,,,,,,,2,001,2023-04-06_23h27.33.816,game,2022.2.5,59.994408520891696,
,,,,,,,,6,0,6,0,,,,,2,0,2,0,,,,,,,,,,,,,,,,,,,,,,,,,,,,,,,,,,,,,,,,,,,276.11810929999956,276.11810929999956,w,0.3616812000009304,276.52715739999985,276.52715739999985,,,,,,,,,,,,,,,,,,,,2,001,2023-04-06_23h27.33.816,game,2022.2.5,59.994408520891696,
,,,,,,,,6,0,6,0,,,,,3,0,3,0,,,,,,,,,,,,,,,,,,,,,,,,,,,,,,,,,,,,,,,,,,,276.91830389999996,276.91830389999996,q,0.2554401000006692,277.22754499999974,277.22754499999974,,,,,,,,,,,,,,,,,,,,2,001,2023-04-06_23h27.33.816,game,2022.2.5,59.994408520891696,
,,,,,,,,6,0,6,0,,,,,4,0,4,0,,,,,,,,,,,,,,,,,,,,,,,,,,,,,,,,,,,,,,,,,,,277.6181711999998,277.6181711999998,q,0.16994420000082755,277.8381651999998,277.8381651999998,,,,,,,,,,,,,,,,,,,,2,001,2023-04-06_23h27.33.816,game,2022.2.5,59.994408520891696,
,,,,,,,,6,0,6,0,,,,,5,0,5,0,,,,,,,,,,,,,,,,,,,,,,,,,,,,,,,,,,,,,,,,,,,278.23478650000015,278.23478650000015,q,0.2235303000006752,278.51617410000017,278.51617410000017,,,,,,,,,,,,,,,,,,,,2,001,2023-04-06_23h27.33.816,game,2022.2.5,59.994408520891696,
,,,,,,,,6,0,6,0,,,,,6,0,6,0,,,,,,,,,,,,,,,,,,,,,,,,,,,,,,,,,,,,,,,,,,,278.9015254999995,278.9015254999995,o,0.09118740000030812,279.04311719999987,279.04311719999987,,,,,,,,,,,,,,,,,,,,2,001,2023-04-06_23h27.33.816,game,2022.2.5,59.994408520891696,
,,,,,,,,6,0,6,0,,,,,7,0,7,0,,,,,,,,,,,,,,,,,,,,,,,,,,,,,,,,,,,,,,,,,,,279.43485619999956,279.43485619999956,p,0.09923320000052627,279.5914025000002,279.5914025000002,,,,,,,,,,,,,,,,,,,,2,001,2023-04-06_23h27.33.816,game,2022.2.5,59.994408520891696,
,,,,,,,,6,0,6,0,,,,,8,0,8,0,,,,,,,,,,,,,,,,,,,,,,,,,,,,,,,,,,,,,,,,,,,279.96862919999967,279.96862919999967,q,0.20590660000107164,280.22533659999954,280.22533659999954,,,,,,,,,,,,,,,,,,,,2,001,2023-04-06_23h27.33.816,game,2022.2.5,59.994408520891696,
,,,,,,,,6,0,6,0,,,,,9,0,9,0,,,,,,,,,,,,,,,,,,,,,,,,,,,,,,,,,,,,,,,,,,,280.6183210999998,280.6183210999998,q,0.14510170000085054,280.8080691999994,280.8080691999994,,,,,,,,,,,,,,,,,,,,2,001,2023-04-06_23h27.33.816,game,2022.2.5,59.994408520891696,
,,,,,,,,6,0,6,0,,,,,10,0,10,0,,,,,,,,,,,,,,,,,,,,,,,,,,,,,,,,,,,,,,,,,,,281.2013614999996,281.2013614999996,q,0.07204270000056567,281.3324746999997,281.3324746999997,,,,,,,,,,,,,,,,,,,,2,001,2023-04-06_23h27.33.816,game,2022.2.5,59.994408520891696,
,,,,,,,,6,0,6,0,,,,,11,0,11,0,,,,,,,,,,,,,,,,,,,,,,,,,,,,,,,,,,,,,,,,,,,281.7181310999995,281.7181310999995,q,0.08907739999995101,281.86430870000004,281.86430870000004,,,,,,,,,,,,,,,,,,,,2,001,2023-04-06_23h27.33.816,game,2022.2.5,59.994408520891696,
,,,,,,,,6,0,6,0,,,,,12,0,12,0,,,,,,,,,,,,,,,,,,,,,,,,,,,,,,,,,,,,,,,,,,,282.2516859999996,282.2516859999996,None,,282.6608176,282.6608176,,,,,,,,,,,,,,,,,,,,2,001,2023-04-06_23h27.33.816,game,2022.2.5,59.994408520891696,
,,,,,,,,6,0,6,0,,,,,13,0,13,0,,,,,,,,,,,,,,,,,,,,,,,,,,,,,,,,,,,,,,,,,,,283.0513441000003,283.0513441000003,q,0.17834200000015699,283.28051439999945,283.28051439999945,,,,,,,,,,,,,,,,,,,,2,001,2023-04-06_23h27.33.816,game,2022.2.5,59.994408520891696,
,,,,,,,,6,0,6,0,,,,,14,0,14,0,,,,,,,,,,,,,,,,,,,,,,,,,,,,,,,,,,,,,,,,,,,283.66813980000006,283.66813980000006,q,0.3645652000004702,284.08530809999957,284.08530809999957,,,,,,,,,,,,,,,,,,,,2,001,2023-04-06_23h27.33.816,game,2022.2.5,59.994408520891696,
,,,,,,,,6,0,6,0,,,,,15,0,15,0,,,,,,,,,,,,,,,,,,,,,,,,,,,,,,,,,,,,,,,,,,,284.4682708,284.4682708,None,,284.8752144,284.8752144,,,,,,,,,,,,,,,,,,,,2,001,2023-04-06_23h27.33.816,game,2022.2.5,59.994408520891696,
,,,,,,,,6,0,6,0,,,,,16,0,16,0,,,,,,,,,,,,,,,,,,,,,,,,,,,,,,,,,,,,,,,,,,,285.2680922999998,285.2680922999998,q,0.0596547000004648,285.38491449999947,285.38491449999947,,,,,,,,,,,,,,,,,,,,2,001,2023-04-06_23h27.33.816,game,2022.2.5,59.994408520891696,
,,,,,,,,6,0,6,0,,,,,17,0,17,0,,,,,,,,,,,,,,,,,,,,,,,,,,,,,,,,,,,,,,,,,,,285.7681511999999,285.7681511999999,q,0.014299300000857329,285.82743260000007,285.82743260000007,,,,,,,,,,,,,,,,,,,,2,001,2023-04-06_23h27.33.816,game,2022.2.5,59.994408520891696,
,,,,,,,,6,0,6,0,,,,,18,0,18,0,,,,,,,,,,,,,,,,,,,,,,,,,,,,,,,,,,,,,,,,,,,286.2183556,286.2183556,q,0.05124650000107067,286.33510939999996,286.33510939999996,,,,,,,,,,,,,,,,,,,,2,001,2023-04-06_23h27.33.816,game,2022.2.5,59.994408520891696,
,,,,,,,,6,0,6,0,,,,,19,0,19,0,,,,,,,,,,,,,,,,,,,,,,,,,,,,,,,,,,,,,,,,,,,286.71812359999967,286.71812359999967,q,0.06390530000044237,286.8251709999995,286.8251709999995,,,,,,,,,,,,,,,,,,,,2,001,2023-04-06_23h27.33.816,game,2022.2.5,59.994408520891696,
,,,,,,,,6,0,6,0,,,,,,,,,,,,,,,,,,,,,,,,,,,,,,,,,,,,,,,,,,,287.2186056999999,287.2186056999999,space,1.0194651000001613,,,,,,,,,,,,,,,,,,,,,,,,,,,,,,2,001,2023-04-06_23h27.33.816,game,2022.2.5,59.994408520891696,
,,,,,,,,7,0,7,0,0,0,0,0,,,,,,,,,,,,,,,,,,,,,,,,,,,,,,,291.4020651999999,291.4020651999999,q,0.7922395000005054,292.21824259999994,292.21824259999994,292.6184086000003,292.6184086000003,,,,,,,,,,,,,,,,,,,288.2683970999997,288.2683970999997,space,3.1117909000004147,,,,,,,,,,,,2,001,2023-04-06_23h27.33.816,game,2022.2.5,59.994408520891696,
,,,,,,,,7,0,7,0,1,0,1,0,,,,,,,,,,,,,,,,,,,,,,,,,,,,,,,292.6184086000003,292.6184086000003,w,0.40870260000065173,293.0517995,293.0517995,293.4516474000002,293.4516474000002,,,,,,,,,,,,,,,,,,,,,,,,,,,,,,,,,,2,001,2023-04-06_23h27.33.816,game,2022.2.5,59.994408520891696,
,,,,,,,,7,0,7,0,2,0,2,0,,,,,,,,,,,,,,,,,,,,,,,,,,,,,,,293.4516474000002,293.4516474000002,o,0.4205219000004945,293.9018980000001,293.9018980000001,294.30171749999954,294.30171749999954,,,,,,,,,,,,,,,,,,,,,,,,,,,,,,,,,,2,001,2023-04-06_23h27.33.816,game,2022.2.5,59.994408520891696,
,,,,,,,,7,0,7,0,3,0,3,0,,,,,,,,,,,,,,,,,,,,,,,,,,,,,,,294.30171749999954,294.30171749999954,p,0.4475836999999956,294.7687270999995,294.7687270999995,295.1684580000001,295.1684580000001,,,,,,,,,,,,,,,,,,,,,,,,,,,,,,,,,,2,001,2023-04-06_23h27.33.816,game,2022.2.5,59.994408520891696,
,,,,,,,,7,0,7,0,4,0,4,0,,,,,,,,,,,,,,,,,,,,,,,,,,,,,,,295.1684580000001,295.1684580000001,q,0.5053104000007806,295.7018425999995,295.7018425999995,296.10184669999944,296.10184669999944,,,,,,,,,,,,,,,,,,,,,,,,,,,,,,,,,,2,001,2023-04-06_23h27.33.816,game,2022.2.5,59.994408520891696,
,,,,,,,,7,0,7,0,5,0,5,0,,,,,,,,,,,,,,,,,,,,,,,,,,,,,,,296.10184669999944,296.10184669999944,w,0.5350769000006039,296.6685031999996,296.6685031999996,297.0685235000001,297.0685235000001,,,,,,,,,,,,,,,,,,,,,,,,,,,,,,,,,,2,001,2023-04-06_23h27.33.816,game,2022.2.5,59.994408520891696,
,,,,,,,,7,0,7,0,6,0,6,0,,,,,,,,,,,,,,,,,,,,,,,,,,,,,,,297.0685235000001,297.0685235000001,w,0.5573117000012644,297.6520155999997,297.6520155999997,298.0517093999997,298.0517093999997,,,,,,,,,,,,,,,,,,,,,,,,,,,,,,,,,,2,001,2023-04-06_23h27.33.816,game,2022.2.5,59.994408520891696,
,,,,,,,,7,0,7,0,7,0,7,0,,,,,,,,,,,,,,,,,,,,,,,,,,,,,,,298.0517093999997,298.0517093999997,w,0.5505388000010498,298.63517349999984,298.63517349999984,299.0351386000002,299.0351386000002,,,,,,,,,,,,,,,,,,,,,,,,,,,,,,,,,,2,001,2023-04-06_23h27.33.816,game,2022.2.5,59.994408520891696,
,,,,,,,,7,0,7,0,8,0,8,0,,,,,,,,,,,,,,,,,,,,,,,,,,,,,,,299.0351386000002,299.0351386000002,w,0.7994988000009471,299.85191119999945,299.85191119999945,300.2515427999997,300.2515427999997,,,,,,,,,,,,,,,,,,,,,,,,,,,,,,,,,,2,001,2023-04-06_23h27.33.816,game,2022.2.5,59.994408520891696,
,,,,,,,,7,0,7,0,9,0,9,0,,,,,,,,,,,,,,,,,,,,,,,,,,,,,,,300.2515427999997,300.2515427999997,w,0.5581017000004067,300.83523609999975,300.83523609999975,301.2351560999996,301.2351560999996,,,,,,,,,,,,,,,,,,,,,,,,,,,,,,,,,,2,001,2023-04-06_23h27.33.816,game,2022.2.5,59.994408520891696,
,,,,,,,,7,0,7,0,10,0,10,0,,,,,,,,,,,,,,,,,,,,,,,,,,,,,,,301.2351560999996,301.2351560999996,w,0.6609424000007493,301.9183654999997,301.9183654999997,302.31830809999974,302.31830809999974,,,,,,,,,,,,,,,,,,,,,,,,,,,,,,,,,,2,001,2023-04-06_23h27.33.816,game,2022.2.5,59.994408520891696,
,,,,,,,,7,0,7,0,11,0,11,0,,,,,,,,,,,,,,,,,,,,,,,,,,,,,,,302.31830809999974,302.31830809999974,w,0.8330146000007517,303.1684771,303.1684771,303.56835090000004,303.56835090000004,,,,,,,,,,,,,,,,,,,,,,,,,,,,,,,,,,2,001,2023-04-06_23h27.33.816,game,2022.2.5,59.994408520891696,
,,,,,,,,7,0,7,0,12,0,12,0,,,,,,,,,,,,,,,,,,,,,,,,,,,,,,,303.56835090000004,303.56835090000004,w,0.5241102999998475,304.1184979999998,304.1184979999998,304.51846829999977,304.51846829999977,,,,,,,,,,,,,,,,,,,,,,,,,,,,,,,,,,2,001,2023-04-06_23h27.33.816,game,2022.2.5,59.994408520891696,
,,,,,,,,7,0,7,0,13,0,13,0,,,,,,,,,,,,,,,,,,,,,,,,,,,,,,,304.51846829999977,304.51846829999977,o,0.27717440000105853,304.8185950999996,304.8185950999996,305.2183230999999,305.2183230999999,,,,,,,,,,,,,,,,,,,,,,,,,,,,,,,,,,2,001,2023-04-06_23h27.33.816,game,2022.2.5,59.994408520891696,
,,,,,,,,7,0,7,0,14,0,14,0,,,,,,,,,,,,,,,,,,,,,,,,,,,,,,,305.2183230999999,305.2183230999999,p,0.6619270999999571,305.90204709999944,305.90204709999944,306.3017095999994,306.3017095999994,,,,,,,,,,,,,,,,,,,,,,,,,,,,,,,,,,2,001,2023-04-06_23h27.33.816,game,2022.2.5,59.994408520891696,
,,,,,,,,7,0,7,0,15,0,15,0,,,,,,,,,,,,,,,,,,,,,,,,,,,,,,,306.3017095999994,306.3017095999994,q,0.6778236000009201,307.0055309999998,307.0055309999998,,,,,,,,,,,,,,,,,,,,,,,,,,,,,,,,,,,,2,001,2023-04-06_23h27.33.816,game,2022.2.5,59.994408520891696,
,,,,,,,,7,0,7,0,16,0,16,0,,,,,,,,,,,,,,,,,,,,,,,,,,,,,,,307.41828129999976,307.41828129999976,o,0.19083349999982602,307.6371769999996,307.6371769999996,,,,,,,,,,,,,,,,,,,,,,,,,,,,,,,,,,,,2,001,2023-04-06_23h27.33.816,game,2022.2.5,59.994408520891696,
,,,,,,,,7,0,7,0,17,0,17,0,,,,,,,,,,,,,,,,,,,,,,,,,,,,,,,308.0516539,308.0516539,o,0.3322591000005559,308.40189180000016,308.40189180000016,308.8018909000002,308.8018909000002,,,,,,,,,,,,,,,,,,,,,,,,,,,,,,,,,,2,001,2023-04-06_23h27.33.816,game,2022.2.5,59.994408520891696,
,,,,,,,,7,0,7,0,18,0,18,0,,,,,,,,,,,,,,,,,,,,,,,,,,,,,,,308.8018909000002,308.8018909000002,o,0.5321198000010554,309.3521592999996,309.3521592999996,309.7516171999996,309.7516171999996,,,,,,,,,,,,,,,,,,,,,,,,,,,,,,,,,,2,001,2023-04-06_23h27.33.816,game,2022.2.5,59.994408520891696,
,,,,,,,,7,0,7,0,19,0,19,0,,,,,,,,,,,,,,,,,,,,,,,,,,,,,,,309.7516171999996,309.7516171999996,q,0.4731863000006342,310.25214439999945,310.25214439999945,310.65190149999944,310.65190149999944,,,,,,,,,,,,,,,,,,,,,,,,,,,,,,,,,,2,001,2023-04-06_23h27.33.816,game,2022.2.5,59.994408520891696,
,,,,,,,,7,0,7,0,,,,,0,0,0,0,,,,,,,,,,,,,,,,,,,,,,,,,,,,,,,,,,,310.65190149999944,310.65190149999944,space,2.341681200000494,,,,,313.8684143999999,313.8684143999999,q,0.24113690000103816,314.17123769999944,314.17123769999944,,,,,,,,,313.01869089999946,313.01869089999946,space,0.8317118000004484,,,,,,,,2,001,2023-04-06_23h27.33.816,game,2022.2.5,59.994408520891696,
,,,,,,,,7,0,7,0,,,,,1,0,1,0,,,,,,,,,,,,,,,,,,,,,,,,,,,,,,,,,,,,,,,,,,,314.5518100999998,314.5518100999998,w,0.34469350000017585,314.94594570000027,314.94594570000027,,,,,,,,,,,,,,,,,,,,2,001,2023-04-06_23h27.33.816,game,2022.2.5,59.994408520891696,
,,,,,,,,7,0,7,0,,,,,2,0,2,0,,,,,,,,,,,,,,,,,,,,,,,,,,,,,,,,,,,,,,,,,,,315.3349810999998,315.3349810999998,q,0.27271790000031615,315.67607469999984,315.67607469999984,,,,,,,,,,,,,,,,,,,,2,001,2023-04-06_23h27.33.816,game,2022.2.5,59.994408520891696,
,,,,,,,,7,0,7,0,,,,,3,0,3,0,,,,,,,,,,,,,,,,,,,,,,,,,,,,,,,,,,,,,,,,,,,316.0518151999995,316.0518151999995,w,0.19155030000001716,316.2933972999999,316.2933972999999,,,,,,,,,,,,,,,,,,,,2,001,2023-04-06_23h27.33.816,game,2022.2.5,59.994408520891696,
,,,,,,,,7,0,7,0,,,,,4,0,4,0,,,,,,,,,,,,,,,,,,,,,,,,,,,,,,,,,,,,,,,,,,,316.6853537999996,316.6853537999996,w,0.09793590000026597,316.8272391999999,316.8272391999999,,,,,,,,,,,,,,,,,,,,2,001,2023-04-06_23h27.33.816,game,2022.2.5,59.994408520891696,
,,,,,,,,7,0,7,0,,,,,5,0,5,0,,,,,,,,,,,,,,,,,,,,,,,,,,,,,,,,,,,,,,,,,,,317.2185976999999,317.2185976999999,w,0.15230789999986882,317.4337064000001,317.4337064000001,,,,,,,,,,,,,,,,,,,,2,001,2023-04-06_23h27.33.816,game,2022.2.5,59.994408520891696,
,,,,,,,,7,0,7,0,,,,,6,0,6,0,,,,,,,,,,,,,,,,,,,,,,,,,,,,,,,,,,,,,,,,,,,317.8184283999999,317.8184283999999,w,0.1316649000000325,317.9886153999996,317.9886153999996,,,,,,,,,,,,,,,,,,,,2,001,2023-04-06_23h27.33.816,game,2022.2.5,59.994408520891696,
,,,,,,,,7,0,7,0,,,,,7,0,7,0,,,,,,,,,,,,,,,,,,,,,,,,,,,,,,,,,,,,,,,,,,,318.3849897,318.3849897,w,0.16450820000045496,318.59994839999945,318.59994839999945,,,,,,,,,,,,,,,,,,,,2,001,2023-04-06_23h27.33.816,game,2022.2.5,59.994408520891696,
,,,,,,,,7,0,7,0,,,,,8,0,8,0,,,,,,,,,,,,,,,,,,,,,,,,,,,,,,,,,,,,,,,,,,,318.9850599000001,318.9850599000001,w,0.08876490000056947,319.1277140000002,319.1277140000002,,,,,,,,,,,,,,,,,,,,2,001,2023-04-06_23h27.33.816,game,2022.2.5,59.994408520891696,
,,,,,,,,7,0,7,0,,,,,9,0,9,0,,,,,,,,,,,,,,,,,,,,,,,,,,,,,,,,,,,,,,,,,,,319.51840600000014,319.51840600000014,w,0.06595550000020012,319.6315427999998,319.6315427999998,,,,,,,,,,,,,,,,,,,,2,001,2023-04-06_23h27.33.816,game,2022.2.5,59.994408520891696,
,,,,,,,,7,0,7,0,,,,,10,0,10,0,,,,,,,,,,,,,,,,,,,,,,,,,,,,,,,,,,,,,,,,,,,320.0184614,320.0184614,w,0.07869879999998375,320.1497781999997,320.1497781999997,,,,,,,,,,,,,,,,,,,,2,001,2023-04-06_23h27.33.816,game,2022.2.5,59.994408520891696,
,,,,,,,,7,0,7,0,,,,,11,0,11,0,,,,,,,,,,,,,,,,,,,,,,,,,,,,,,,,,,,,,,,,,,,320.5351123999999,320.5351123999999,w,0.08342690000063158,320.6693722,320.6693722,,,,,,,,,,,,,,,,,,,,2,001,2023-04-06_23h27.33.816,game,2022.2.5,59.994408520891696,
,,,,,,,,7,0,7,0,,,,,12,0,12,0,,,,,,,,,,,,,,,,,,,,,,,,,,,,,,,,,,,,,,,,,,,321.05197679999947,321.05197679999947,w,0.053581900000608584,321.1737468000001,321.1737468000001,,,,,,,,,,,,,,,,,,,,2,001,2023-04-06_23h27.33.816,game,2022.2.5,59.994408520891696,
,,,,,,,,7,0,7,0,,,,,13,0,13,0,,,,,,,,,,,,,,,,,,,,,,,,,,,,,,,,,,,,,,,,,,,321.55224480000015,321.55224480000015,w,0.04240040000058798,321.6517060999995,321.6517060999995,,,,,,,,,,,,,,,,,,,,2,001,2023-04-06_23h27.33.816,game,2022.2.5,59.994408520891696,
,,,,,,,,7,0,7,0,,,,,14,0,14,0,,,,,,,,,,,,,,,,,,,,,,,,,,,,,,,,,,,,,,,,,,,322.0350797000001,322.0350797000001,None,,322.4445287999997,322.4445287999997,,,,,,,,,,,,,,,,,,,,2,001,2023-04-06_23h27.33.816,game,2022.2.5,59.994408520891696,
,,,,,,,,7,0,7,0,,,,,15,0,15,0,,,,,,,,,,,,,,,,,,,,,,,,,,,,,,,,,,,,,,,,,,,322.83522319999975,322.83522319999975,w,0.07654380000076344,322.95961459999944,322.95961459999944,,,,,,,,,,,,,,,,,,,,2,001,2023-04-06_23h27.33.816,game,2022.2.5,59.994408520891696,
,,,,,,,,7,0,7,0,,,,,16,0,16,0,,,,,,,,,,,,,,,,,,,,,,,,,,,,,,,,,,,,,,,,,,,323.3518532999997,323.3518532999997,None,,323.75563239999974,323.75563239999974,,,,,,,,,,,,,,,,,,,,2,001,2023-04-06_23h27.33.816,game,2022.2.5,59.994408520891696,
,,,,,,,,7,0,7,0,,,,,17,0,17,0,,,,,,,,,,,,,,,,,,,,,,,,,,,,,,,,,,,,,,,,,,,324.1519239999998,324.1519239999998,w,0.04350390000126936,324.24528740000005,324.24528740000005,,,,,,,,,,,,,,,,,,,,2,001,2023-04-06_23h27.33.816,game,2022.2.5,59.994408520891696,
,,,,,,,,7,0,7,0,,,,,18,0,18,0,,,,,,,,,,,,,,,,,,,,,,,,,,,,,,,,,,,,,,,,,,,324.6355314000002,324.6355314000002,None,,325.0420260000001,325.0420260000001,,,,,,,,,,,,,,,,,,,,2,001,2023-04-06_23h27.33.816,game,2022.2.5,59.994408520891696,
,,,,,,,,7,0,7,0,,,,,19,0,19,0,,,,,,,,,,,,,,,,,,,,,,,,,,,,,,,,,,,,,,,,,,,325.4351360999999,325.4351360999999,w,0.04840690000037284,325.5317264999994,325.5317264999994,,,,,,,,,,,,,,,,,,,,2,001,2023-04-06_23h27.33.816,game,2022.2.5,59.994408520891696,
,,,,,,,,7,0,7,0,,,,,,,,,,,,,,,,,,,,,,,,,,,,,,,,,,,,,,,,,,,325.92565000000013,325.92565000000013,space,1.0796900000004825,,,,,,,,,,,,,,,,,,,,,,,,,,,,,,2,001,2023-04-06_23h27.33.816,game,2022.2.5,59.994408520891696,
,,,,,,,,,,,,,,,,,,,,,,,,,,,,,,,,,,,,,,,,,,,,,,,,,,,,,,,,,,,,,,,,,,,,,,,,,,,,,,,,,,327.04255250000006,327.04255250000006,327.04255250000006,space,3.0549667000004774,2,001,2023-04-06_23h27.33.816,game,2022.2.5,59.994408520891696,
