Round Number,Trial Number,Reaction Time,Choice,Reward,Time Condition,Payoff Condition,Q mapped,W mapped,O mapped,P mapped,One value,Two value,Three value,Four value,One mean,Two mean,Three mean,Four mean,Mean Shift,One shifted mean,Two shifted mean,Three shifted mean,Four shifted mean,One SD,Two SD,Three SD,Four SD
1,1,0.15660880005452782,o,19.8,Unlimited Time,h,55.01068432815424,7.616028438349556,19.7616762655962,21.07122398297816,7.616028438349556,21.07122398297816,19.7616762655962,55.01068432815424,-10,-0.33,0.33,10,35,25,34.67,35.33,45,10,10,10,10
1,2,0.1232875999994576,o,32.0,Unlimited Time,h,56.51409095527728,49.595560278889195,32.04319529418104,34.572593472180486,49.595560278889195,34.572593472180486,32.04319529418104,56.51409095527728,-10,-0.33,0.33,10,35,25,34.67,35.33,45,10,10,10,10
1,3,0.3109114000108093,p,24.1,Unlimited Time,h,45.51079060264573,34.17336280037895,37.58045806652662,24.139577058545566,34.17336280037895,24.139577058545566,37.58045806652662,45.51079060264573,-10,-0.33,0.33,10,35,25,34.67,35.33,45,10,10,10,10
1,4,0.10157060000346974,p,35.2,Unlimited Time,h,36.09510212203412,10.597397402561686,31.42134852514575,35.18612735713767,10.597397402561686,35.18612735713767,31.42134852514575,36.09510212203412,-10,-0.33,0.33,10,35,25,34.67,35.33,45,10,10,10,10
1,5,0.13315379997948185,w,18.0,Unlimited Time,h,36.12346932637618,17.979698692817152,14.462418754939588,30.015252642175472,17.979698692817152,30.015252642175472,14.462418754939588,36.12346932637618,-10,-0.33,0.33,10,35,25,34.67,35.33,45,10,10,10,10
1,6,0.14392500004032627,w,15.5,Unlimited Time,h,53.23445991446633,15.495308626957444,53.26454013821825,24.476674836131604,15.495308626957444,24.476674836131604,53.26454013821825,53.23445991446633,-10,-0.33,0.33,10,35,25,34.67,35.33,45,10,10,10,10
1,7,0.15279220003867522,q,43.0,Unlimited Time,h,42.96291177716998,39.67000581711246,38.16953755536666,49.0798726400967,39.67000581711246,49.0798726400967,38.16953755536666,42.96291177716998,-10,-0.33,0.33,10,35,25,34.67,35.33,45,10,10,10,10
1,8,0.019373899966012686,o,59.6,Unlimited Time,h,47.48418621080591,30.003838227038813,59.613298841934,34.92855796633631,30.003838227038813,34.92855796633631,59.613298841934,47.48418621080591,-10,-0.33,0.33,10,35,25,34.67,35.33,45,10,10,10,10
1,9,0.10699020000174642,o,39.5,Unlimited Time,h,36.68504690646378,32.992204503539696,39.54561064461129,27.715850408204243,32.992204503539696,27.715850408204243,39.54561064461129,36.68504690646378,-10,-0.33,0.33,10,35,25,34.67,35.33,45,10,10,10,10
1,10,0.06117509998148307,o,24.3,Unlimited Time,h,43.99536927333972,32.724180545245275,24.274728794883174,47.04885624716561,32.724180545245275,47.04885624716561,24.274728794883174,43.99536927333972,-10,-0.33,0.33,10,35,25,34.67,35.33,45,10,10,10,10
1,11,0.08998410002095625,o,36.3,Unlimited Time,h,40.798886778778886,4.625857464040269,36.272795665823466,40.17765039175563,4.625857464040269,40.17765039175563,36.272795665823466,40.798886778778886,-10,-0.33,0.33,10,35,25,34.67,35.33,45,10,10,10,10
1,12,0.07426980003947392,o,35.1,Unlimited Time,h,48.23154326239161,32.2902989415691,35.054176690654494,44.871655177628554,32.2902989415691,44.871655177628554,35.054176690654494,48.23154326239161,-10,-0.33,0.33,10,35,25,34.67,35.33,45,10,10,10,10
1,13,0.08671460003824905,o,53.6,Unlimited Time,h,37.61561907422269,25.786091321934403,53.62022854432607,35.20626754763598,25.786091321934403,35.20626754763598,53.62022854432607,37.61561907422269,-10,-0.33,0.33,10,35,25,34.67,35.33,45,10,10,10,10
1,14,0.09521639999002218,o,31.5,Unlimited Time,h,71.2817660568601,10.807863192239175,31.544124515668432,36.566113610940306,10.807863192239175,36.566113610940306,31.544124515668432,71.2817660568601,-10,-0.33,0.33,10,35,25,34.67,35.33,45,10,10,10,10
1,15,0.07860150001943111,o,14.2,Unlimited Time,h,38.94498032957397,33.9321653817109,14.17227721807917,28.39897449712293,33.9321653817109,28.39897449712293,14.17227721807917,38.94498032957397,-10,-0.33,0.33,10,35,25,34.67,35.33,45,10,10,10,10
1,16,0.21637770003871992,o,32.5,Unlimited Time,h,30.941922303135375,33.46487822981767,32.49486993845914,46.26253630400939,33.46487822981767,46.26253630400939,32.49486993845914,30.941922303135375,-10,-0.33,0.33,10,35,25,34.67,35.33,45,10,10,10,10
1,17,0.13248619996011257,o,39.8,Unlimited Time,h,45.87558523611464,2.6722035246679887,39.764565838545046,29.044138555289827,2.6722035246679887,29.044138555289827,39.764565838545046,45.87558523611464,-10,-0.33,0.33,10,35,25,34.67,35.33,45,10,10,10,10
1,18,0.09531110001262277,o,24.9,Unlimited Time,h,42.38931827931543,33.161168026948005,24.85113513584377,31.62760017780214,33.161168026948005,31.62760017780214,24.85113513584377,42.38931827931543,-10,-0.33,0.33,10,35,25,34.67,35.33,45,10,10,10,10
1,19,0.07773449999513105,o,41.9,Unlimited Time,h,33.86525253490714,27.940293181031937,41.89222206041231,37.7115235845379,27.940293181031937,37.7115235845379,41.89222206041231,33.86525253490714,-10,-0.33,0.33,10,35,25,34.67,35.33,45,10,10,10,10
1,20,0.10382170003140345,o,47.1,Unlimited Time,h,37.82318015342463,41.48356428354838,47.1311028767814,13.874921303507232,41.48356428354838,13.874921303507232,47.1311028767814,37.82318015342463,-10,-0.33,0.33,10,35,25,34.67,35.33,45,10,10,10,10
2,1,0.3156119000050239,o,25.8,Limited Time,i,21.52898682683015,44.897947702158966,25.816864639959288,47.803915752513646,25.816864639959288,21.52898682683015,47.803915752513646,44.897947702158966,-10,-10,10,10,35,25,25,45,45,3.1622776601683795,10,3.1622776601683795,10
2,2,0.016251199995167553,o,21.4,Limited Time,i,28.508983104393643,65.44367045713116,21.425782970415813,44.616685296918924,21.425782970415813,28.508983104393643,44.616685296918924,65.44367045713116,-10,-10,10,10,35,25,25,45,45,3.1622776601683795,10,3.1622776601683795,10
2,3,0.016597899957560003,p,41.7,Limited Time,i,12.663129815790686,45.50983882692115,22.91100836627695,41.73013816773118,22.91100836627695,12.663129815790686,41.73013816773118,45.50983882692115,-10,-10,10,10,35,25,25,45,45,3.1622776601683795,10,3.1622776601683795,10
2,4,0.05516450002323836,p,42.6,Limited Time,i,12.970407441274768,36.0468562331804,27.362115572776563,42.55998745211898,27.362115572776563,12.970407441274768,42.55998745211898,36.0468562331804,-10,-10,10,10,35,25,25,45,45,3.1622776601683795,10,3.1622776601683795,10
2,5,0.04040589998476207,p,47.0,Limited Time,i,20.733401971847588,18.58369389046963,22.301043147556157,46.99123068975792,22.301043147556157,20.733401971847588,46.99123068975792,18.58369389046963,-10,-10,10,10,35,25,25,45,45,3.1622776601683795,10,3.1622776601683795,10
2,6,0.10827570001129061,p,44.0,Limited Time,i,40.953833605058065,60.012150122484755,23.094386173177092,44.016385484254066,23.094386173177092,40.953833605058065,44.016385484254066,60.012150122484755,-10,-10,10,10,35,25,25,45,45,3.1622776601683795,10,3.1622776601683795,10
2,7,0.04546150000533089,p,46.9,Limited Time,i,37.053131608586376,60.04235074382552,22.47216025269298,46.87959119368408,22.47216025269298,37.053131608586376,46.87959119368408,60.04235074382552,-10,-10,10,10,35,25,25,45,45,3.1622776601683795,10,3.1622776601683795,10
2,8,0.038551900011952966,w,46.0,Limited Time,i,41.58104134705234,46.02182599539439,18.89436983393241,42.91414969634059,18.89436983393241,41.58104134705234,42.91414969634059,46.02182599539439,-10,-10,10,10,35,25,25,45,45,3.1622776601683795,10,3.1622776601683795,10
2,9,0.10503029997926205,w,27.3,Limited Time,i,22.464971028428167,27.345944471293492,24.64765136817347,45.577600392172286,24.64765136817347,22.464971028428167,45.577600392172286,27.345944471293492,-10,-10,10,10,35,25,25,45,45,3.1622776601683795,10,3.1622776601683795,10
2,10,0.055289699987042695,w,55.6,Limited Time,i,17.022992687759128,55.63584400515198,21.631045113589227,45.20118456105725,21.631045113589227,17.022992687759128,45.20118456105725,55.63584400515198,-10,-10,10,10,35,25,25,45,45,3.1622776601683795,10,3.1622776601683795,10
2,11,0.1045025999774225,q,24.2,Limited Time,i,24.245008698564302,35.59932581132787,23.56784799930641,45.834318461654206,23.56784799930641,24.245008698564302,45.834318461654206,35.59932581132787,-10,-10,10,10,35,25,25,45,45,3.1622776601683795,10,3.1622776601683795,10
2,12,0.1043097999645397,q,27.4,Limited Time,i,27.373486938413215,41.69555638617534,20.75013792565977,43.595057338701395,20.75013792565977,27.373486938413215,43.595057338701395,41.69555638617534,-10,-10,10,10,35,25,25,45,45,3.1622776601683795,10,3.1622776601683795,10
2,13,0.1299697000067681,w,56.9,Limited Time,i,25.90017738746892,56.895782929549235,32.09053803232145,44.68462474296716,32.09053803232145,25.90017738746892,44.68462474296716,56.895782929549235,-10,-10,10,10,35,25,25,45,45,3.1622776601683795,10,3.1622776601683795,10
2,14,0.12555389996850863,w,48.0,Limited Time,i,35.288396775024125,48.038212230797434,21.90952763725339,47.07407275106752,21.90952763725339,35.288396775024125,47.07407275106752,48.038212230797434,-10,-10,10,10,35,25,25,45,45,3.1622776601683795,10,3.1622776601683795,10
2,15,0.0836360999965109,w,32.0,Limited Time,i,4.7152701808412125,32.042603424728256,28.051994391074448,45.824504878561356,28.051994391074448,4.7152701808412125,45.824504878561356,32.042603424728256,-10,-10,10,10,35,25,25,45,45,3.1622776601683795,10,3.1622776601683795,10
2,16,0.09223140001995489,w,60.7,Limited Time,i,28.285682848110355,60.68087585893026,26.487804875726827,44.93310321623615,26.487804875726827,28.285682848110355,44.93310321623615,60.68087585893026,-10,-10,10,10,35,25,25,45,45,3.1622776601683795,10,3.1622776601683795,10
2,17,0.09758780000265688,w,48.4,Limited Time,i,36.54287209021342,48.44448914294218,24.567392606414245,45.48559576941102,24.567392606414245,36.54287209021342,45.48559576941102,48.44448914294218,-10,-10,10,10,35,25,25,45,45,3.1622776601683795,10,3.1622776601683795,10
2,18,0.07612330000847578,o,23.9,Limited Time,i,37.53253116660321,56.933630282103266,23.8672392979147,37.22661755505896,23.8672392979147,37.53253116660321,37.22661755505896,56.933630282103266,-10,-10,10,10,35,25,25,45,45,3.1622776601683795,10,3.1622776601683795,10
2,19,0.059444200014695525,o,25.2,Limited Time,i,15.561502406077944,69.10329454826008,25.17861860295664,44.00105923115286,25.17861860295664,15.561502406077944,44.00105923115286,69.10329454826008,-10,-10,10,10,35,25,25,45,45,3.1622776601683795,10,3.1622776601683795,10
2,20,0.0594091999810189,o,26.2,Limited Time,i,30.2810212412152,38.9398040098083,26.1636275988442,43.55265486979225,26.1636275988442,30.2810212412152,43.55265486979225,38.9398040098083,-10,-10,10,10,35,25,25,45,45,3.1622776601683795,10,3.1622776601683795,10
3,1,0.2964616999961436,o,38.9,Unlimited Time,l,27.78947591814128,33.54769331484146,38.86037494122692,49.24603373587326,27.78947591814128,38.86037494122692,33.54769331484146,49.24603373587326,-10,-0.33,0.33,10,35,25,34.67,35.33,45,3.1622776601683795,3.1622776601683795,3.1622776601683795,3.1622776601683795
3,2,0.09337560000130907,p,45.4,Unlimited Time,l,22.748056853172525,32.456569110967834,27.484244790901123,45.401871845809296,22.748056853172525,27.484244790901123,32.456569110967834,45.401871845809296,-10,-0.33,0.33,10,35,25,34.67,35.33,45,3.1622776601683795,3.1622776601683795,3.1622776601683795,3.1622776601683795
3,3,0.10993579996284097,p,44.2,Unlimited Time,l,24.92647033656969,36.40675573470436,35.77846721393405,44.23195478137022,24.92647033656969,35.77846721393405,36.40675573470436,44.23195478137022,-10,-0.33,0.33,10,35,25,34.67,35.33,45,3.1622776601683795,3.1622776601683795,3.1622776601683795,3.1622776601683795
3,4,0.13874520000535995,p,41.1,Unlimited Time,l,22.16728689428431,32.149031648750814,36.159271120168626,41.11491291178429,22.16728689428431,36.159271120168626,32.149031648750814,41.11491291178429,-10,-0.33,0.33,10,35,25,34.67,35.33,45,3.1622776601683795,3.1622776601683795,3.1622776601683795,3.1622776601683795
3,5,0.07172040001023561,p,47.2,Unlimited Time,l,23.355775318227046,32.66250089530695,34.929168179191926,47.15813122199993,23.355775318227046,34.929168179191926,32.66250089530695,47.15813122199993,-10,-0.33,0.33,10,35,25,34.67,35.33,45,3.1622776601683795,3.1622776601683795,3.1622776601683795,3.1622776601683795
3,6,0.034360499994363636,p,47.5,Unlimited Time,l,27.77498035228823,38.473414156063015,35.48077575921707,47.51615416721934,27.77498035228823,35.48077575921707,38.473414156063015,47.51615416721934,-10,-0.33,0.33,10,35,25,34.67,35.33,45,3.1622776601683795,3.1622776601683795,3.1622776601683795,3.1622776601683795
3,7,0.1432607999886386,w,38.8,Unlimited Time,l,28.18189919555092,38.84790101064496,34.433649266348716,46.71794586523114,28.18189919555092,34.433649266348716,38.84790101064496,46.71794586523114,-10,-0.33,0.33,10,35,25,34.67,35.33,45,3.1622776601683795,3.1622776601683795,3.1622776601683795,3.1622776601683795
3,8,0.08954880002420396,w,35.2,Unlimited Time,l,26.423193013949902,35.203235240370795,37.500015486762315,47.60199230090408,26.423193013949902,37.500015486762315,35.203235240370795,47.60199230090408,-10,-0.33,0.33,10,35,25,34.67,35.33,45,3.1622776601683795,3.1622776601683795,3.1622776601683795,3.1622776601683795
3,9,0.12169319996610284,w,38.9,Unlimited Time,l,21.762544210728777,38.852622593655965,31.438018312559375,40.091875817420274,21.762544210728777,31.438018312559375,38.852622593655965,40.091875817420274,-10,-0.33,0.33,10,35,25,34.67,35.33,45,3.1622776601683795,3.1622776601683795,3.1622776601683795,3.1622776601683795
3,10,0.14704020001227036,q,23.1,Unlimited Time,l,23.055863347178793,37.35827531539389,33.655097361511814,40.830311624730626,23.055863347178793,33.655097361511814,37.35827531539389,40.830311624730626,-10,-0.33,0.33,10,35,25,34.67,35.33,45,3.1622776601683795,3.1622776601683795,3.1622776601683795,3.1622776601683795
3,11,0.14328020001994446,q,33.9,Unlimited Time,l,33.92314327754387,30.35783585074163,35.60224158511852,50.19361759044042,33.92314327754387,35.60224158511852,30.35783585074163,50.19361759044042,-10,-0.33,0.33,10,35,25,34.67,35.33,45,3.1622776601683795,3.1622776601683795,3.1622776601683795,3.1622776601683795
3,12,0.13912769994931296,w,33.3,Unlimited Time,l,29.280980394518636,33.2829019994949,38.39325248702207,41.73641744071124,29.280980394518636,38.39325248702207,33.2829019994949,41.73641744071124,-10,-0.33,0.33,10,35,25,34.67,35.33,45,3.1622776601683795,3.1622776601683795,3.1622776601683795,3.1622776601683795
3,13,0.09823569998843595,w,30.2,Unlimited Time,l,29.757196750707095,30.22194186234987,34.75480948873552,44.010012439232035,29.757196750707095,34.75480948873552,30.22194186234987,44.010012439232035,-10,-0.33,0.33,10,35,25,34.67,35.33,45,3.1622776601683795,3.1622776601683795,3.1622776601683795,3.1622776601683795
3,14,0.16833529999712482,o,34.6,Unlimited Time,l,19.869104856663434,35.803593884214706,34.58252761753244,42.61409457810415,19.869104856663434,34.58252761753244,35.803593884214706,42.61409457810415,-10,-0.33,0.33,10,35,25,34.67,35.33,45,3.1622776601683795,3.1622776601683795,3.1622776601683795,3.1622776601683795
3,15,0.06843370001297444,o,32.6,Unlimited Time,l,28.87397497397442,37.28240967716073,32.60477287070379,43.12996379294791,28.87397497397442,32.60477287070379,37.28240967716073,43.12996379294791,-10,-0.33,0.33,10,35,25,34.67,35.33,45,3.1622776601683795,3.1622776601683795,3.1622776601683795,3.1622776601683795
3,16,0.08123730000806972,o,30.7,Unlimited Time,l,16.199631365372078,34.965145603904375,30.748603994788766,43.97697505612525,16.199631365372078,30.748603994788766,34.965145603904375,43.97697505612525,-10,-0.33,0.33,10,35,25,34.67,35.33,45,3.1622776601683795,3.1622776601683795,3.1622776601683795,3.1622776601683795
3,17,0.08131059998413548,p,48.1,Unlimited Time,l,17.474781630524845,31.362185592576175,38.860452741374374,48.07085595993259,17.474781630524845,38.860452741374374,31.362185592576175,48.07085595993259,-10,-0.33,0.33,10,35,25,34.67,35.33,45,3.1622776601683795,3.1622776601683795,3.1622776601683795,3.1622776601683795
3,18,0.06817419995786622,p,45.1,Unlimited Time,l,22.108724995286202,31.420503161020083,33.64296288713297,45.07294733833529,22.108724995286202,33.64296288713297,31.420503161020083,45.07294733833529,-10,-0.33,0.33,10,35,25,34.67,35.33,45,3.1622776601683795,3.1622776601683795,3.1622776601683795,3.1622776601683795
3,19,0.04419910005526617,p,42.3,Unlimited Time,l,24.651741208810325,33.309337660520534,32.6763725910784,42.29232598282883,24.651741208810325,32.6763725910784,33.309337660520534,42.29232598282883,-10,-0.33,0.33,10,35,25,34.67,35.33,45,3.1622776601683795,3.1622776601683795,3.1622776601683795,3.1622776601683795
3,20,0.015098400006536394,q,26.6,Unlimited Time,l,26.608322678290786,34.84570858846333,36.77623920595678,46.716807282097015,26.608322678290786,36.77623920595678,34.84570858846333,46.716807282097015,-10,-0.33,0.33,10,35,25,34.67,35.33,45,3.1622776601683795,3.1622776601683795,3.1622776601683795,3.1622776601683795
4,1,,,0.0,Limited Time,h,7.616028438349556,55.01068432815424,19.7616762655962,21.07122398297816,7.616028438349556,21.07122398297816,19.7616762655962,55.01068432815424,-10,-0.33,0.33,10,35,25,34.67,35.33,45,10,10,10,10
4,2,0.10668610001448542,o,32.0,Limited Time,h,49.595560278889195,56.51409095527728,32.04319529418104,34.572593472180486,49.595560278889195,34.572593472180486,32.04319529418104,56.51409095527728,-10,-0.33,0.33,10,35,25,34.67,35.33,45,10,10,10,10
4,3,0.05662590003339574,o,37.6,Limited Time,h,34.17336280037895,45.51079060264573,37.58045806652662,24.139577058545566,34.17336280037895,24.139577058545566,37.58045806652662,45.51079060264573,-10,-0.33,0.33,10,35,25,34.67,35.33,45,10,10,10,10
4,4,0.056937300018034875,o,31.4,Limited Time,h,10.597397402561686,36.09510212203412,31.42134852514575,35.18612735713767,10.597397402561686,35.18612735713767,31.42134852514575,36.09510212203412,-10,-0.33,0.33,10,35,25,34.67,35.33,45,10,10,10,10
4,5,0.00697829999262467,w,36.1,Limited Time,h,17.979698692817152,36.12346932637618,14.462418754939588,30.015252642175472,17.979698692817152,30.015252642175472,14.462418754939588,36.12346932637618,-10,-0.33,0.33,10,35,25,34.67,35.33,45,10,10,10,10
4,6,0.06892670004162937,w,53.2,Limited Time,h,15.495308626957444,53.23445991446633,53.26454013821825,24.476674836131604,15.495308626957444,24.476674836131604,53.26454013821825,53.23445991446633,-10,-0.33,0.33,10,35,25,34.67,35.33,45,10,10,10,10
4,7,0.07829480001237243,w,43.0,Limited Time,h,39.67000581711246,42.96291177716998,38.16953755536666,49.0798726400967,39.67000581711246,49.0798726400967,38.16953755536666,42.96291177716998,-10,-0.33,0.33,10,35,25,34.67,35.33,45,10,10,10,10
4,8,0.09849609999218956,w,47.5,Limited Time,h,30.003838227038813,47.48418621080591,59.613298841934,34.92855796633631,30.003838227038813,34.92855796633631,59.613298841934,47.48418621080591,-10,-0.33,0.33,10,35,25,34.67,35.33,45,10,10,10,10
4,9,0.1028898999793455,p,27.7,Limited Time,h,32.992204503539696,36.68504690646378,39.54561064461129,27.715850408204243,32.992204503539696,27.715850408204243,39.54561064461129,36.68504690646378,-10,-0.33,0.33,10,35,25,34.67,35.33,45,10,10,10,10
4,10,0.06530930002918467,p,47.0,Limited Time,h,32.724180545245275,43.99536927333972,24.274728794883174,47.04885624716561,32.724180545245275,47.04885624716561,24.274728794883174,43.99536927333972,-10,-0.33,0.33,10,35,25,34.67,35.33,45,10,10,10,10
4,11,0.05333030002657324,p,40.2,Limited Time,h,4.625857464040269,40.798886778778886,36.272795665823466,40.17765039175563,4.625857464040269,40.17765039175563,36.272795665823466,40.798886778778886,-10,-0.33,0.33,10,35,25,34.67,35.33,45,10,10,10,10
4,12,0.015917200013063848,p,44.9,Limited Time,h,32.2902989415691,48.23154326239161,35.054176690654494,44.871655177628554,32.2902989415691,44.871655177628554,35.054176690654494,48.23154326239161,-10,-0.33,0.33,10,35,25,34.67,35.33,45,10,10,10,10
4,13,0.05329630000051111,p,35.2,Limited Time,h,25.786091321934403,37.61561907422269,53.62022854432607,35.20626754763598,25.786091321934403,35.20626754763598,53.62022854432607,37.61561907422269,-10,-0.33,0.33,10,35,25,34.67,35.33,45,10,10,10,10
4,14,0.1281781000434421,q,10.8,Limited Time,h,10.807863192239175,71.2817660568601,31.544124515668432,36.566113610940306,10.807863192239175,36.566113610940306,31.544124515668432,71.2817660568601,-10,-0.33,0.33,10,35,25,34.67,35.33,45,10,10,10,10
4,15,0.08622969995485619,q,33.9,Limited Time,h,33.9321653817109,38.94498032957397,14.17227721807917,28.39897449712293,33.9321653817109,28.39897449712293,14.17227721807917,38.94498032957397,-10,-0.33,0.33,10,35,25,34.67,35.33,45,10,10,10,10
4,16,0.1048463000333868,w,30.9,Limited Time,h,33.46487822981767,30.941922303135375,32.49486993845914,46.26253630400939,33.46487822981767,46.26253630400939,32.49486993845914,30.941922303135375,-10,-0.33,0.33,10,35,25,34.67,35.33,45,10,10,10,10
4,17,0.07840280001983047,w,45.9,Limited Time,h,2.6722035246679887,45.87558523611464,39.764565838545046,29.044138555289827,2.6722035246679887,29.044138555289827,39.764565838545046,45.87558523611464,-10,-0.33,0.33,10,35,25,34.67,35.33,45,10,10,10,10
4,18,0.09960630000568926,w,42.4,Limited Time,h,33.161168026948005,42.38931827931543,24.85113513584377,31.62760017780214,33.161168026948005,31.62760017780214,24.85113513584377,42.38931827931543,-10,-0.33,0.33,10,35,25,34.67,35.33,45,10,10,10,10
4,19,0.09439099999144673,w,33.9,Limited Time,h,27.940293181031937,33.86525253490714,41.89222206041231,37.7115235845379,27.940293181031937,37.7115235845379,41.89222206041231,33.86525253490714,-10,-0.33,0.33,10,35,25,34.67,35.33,45,10,10,10,10
4,20,0.12145909998798743,w,37.8,Limited Time,h,41.48356428354838,37.82318015342463,47.1311028767814,13.874921303507232,41.48356428354838,13.874921303507232,47.1311028767814,37.82318015342463,-10,-0.33,0.33,10,35,25,34.67,35.33,45,10,10,10,10
5,1,0.28792580001754686,w,44.9,Unlimited Time,i,25.816864639959288,44.897947702158966,47.803915752513646,21.52898682683015,25.816864639959288,21.52898682683015,47.803915752513646,44.897947702158966,-10,-10,10,10,35,25,25,45,45,3.1622776601683795,10,3.1622776601683795,10
5,2,0.10811380000086501,o,44.6,Unlimited Time,i,21.425782970415813,65.44367045713116,44.616685296918924,28.508983104393643,21.425782970415813,28.508983104393643,44.616685296918924,65.44367045713116,-10,-10,10,10,35,25,25,45,45,3.1622776601683795,10,3.1622776601683795,10
5,3,0.3381762999924831,p,12.7,Unlimited Time,i,22.91100836627695,45.50983882692115,41.73013816773118,12.663129815790686,22.91100836627695,12.663129815790686,41.73013816773118,45.50983882692115,-10,-10,10,10,35,25,25,45,45,3.1622776601683795,10,3.1622776601683795,10
5,4,0.15889149997383356,q,27.4,Unlimited Time,i,27.362115572776563,36.0468562331804,42.55998745211898,12.970407441274768,27.362115572776563,12.970407441274768,42.55998745211898,36.0468562331804,-10,-10,10,10,35,25,25,45,45,3.1622776601683795,10,3.1622776601683795,10
5,5,0.2831484999624081,q,22.3,Unlimited Time,i,22.301043147556157,18.58369389046963,46.99123068975792,20.733401971847588,22.301043147556157,20.733401971847588,46.99123068975792,18.58369389046963,-10,-10,10,10,35,25,25,45,45,3.1622776601683795,10,3.1622776601683795,10
5,6,0.23423629999160767,w,60.0,Unlimited Time,i,23.094386173177092,60.012150122484755,44.016385484254066,40.953833605058065,23.094386173177092,40.953833605058065,44.016385484254066,60.012150122484755,-10,-10,10,10,35,25,25,45,45,3.1622776601683795,10,3.1622776601683795,10
5,7,0.10536260000662878,w,60.0,Unlimited Time,i,22.47216025269298,60.04235074382552,46.87959119368408,37.053131608586376,22.47216025269298,37.053131608586376,46.87959119368408,60.04235074382552,-10,-10,10,10,35,25,25,45,45,3.1622776601683795,10,3.1622776601683795,10
5,8,0.1335929000051692,w,46.0,Unlimited Time,i,18.89436983393241,46.02182599539439,42.91414969634059,41.58104134705234,18.89436983393241,41.58104134705234,42.91414969634059,46.02182599539439,-10,-10,10,10,35,25,25,45,45,3.1622776601683795,10,3.1622776601683795,10
5,9,0.1585769000230357,w,27.3,Unlimited Time,i,24.64765136817347,27.345944471293492,45.577600392172286,22.464971028428167,24.64765136817347,22.464971028428167,45.577600392172286,27.345944471293492,-10,-10,10,10,35,25,25,45,45,3.1622776601683795,10,3.1622776601683795,10
5,10,0.27478149998933077,o,45.2,Unlimited Time,i,21.631045113589227,55.63584400515198,45.20118456105725,17.022992687759128,21.631045113589227,17.022992687759128,45.20118456105725,55.63584400515198,-10,-10,10,10,35,25,25,45,45,3.1622776601683795,10,3.1622776601683795,10
5,11,0.08832470001652837,o,45.8,Unlimited Time,i,23.56784799930641,35.59932581132787,45.834318461654206,24.245008698564302,23.56784799930641,24.245008698564302,45.834318461654206,35.59932581132787,-10,-10,10,10,35,25,25,45,45,3.1622776601683795,10,3.1622776601683795,10
5,12,0.058138699969276786,o,43.6,Unlimited Time,i,20.75013792565977,41.69555638617534,43.595057338701395,27.373486938413215,20.75013792565977,27.373486938413215,43.595057338701395,41.69555638617534,-10,-10,10,10,35,25,25,45,45,3.1622776601683795,10,3.1622776601683795,10
5,13,0.13756650005234405,o,44.7,Unlimited Time,i,32.09053803232145,56.895782929549235,44.68462474296716,25.90017738746892,32.09053803232145,25.90017738746892,44.68462474296716,56.895782929549235,-10,-10,10,10,35,25,25,45,45,3.1622776601683795,10,3.1622776601683795,10
5,14,0.09672909998334944,o,47.1,Unlimited Time,i,21.90952763725339,48.038212230797434,47.07407275106752,35.288396775024125,21.90952763725339,35.288396775024125,47.07407275106752,48.038212230797434,-10,-10,10,10,35,25,25,45,45,3.1622776601683795,10,3.1622776601683795,10
5,15,0.15464990003965795,o,45.8,Unlimited Time,i,28.051994391074448,32.042603424728256,45.824504878561356,4.7152701808412125,28.051994391074448,4.7152701808412125,45.824504878561356,32.042603424728256,-10,-10,10,10,35,25,25,45,45,3.1622776601683795,10,3.1622776601683795,10
5,16,0.08351809997111559,o,44.9,Unlimited Time,i,26.487804875726827,60.68087585893026,44.93310321623615,28.285682848110355,26.487804875726827,28.285682848110355,44.93310321623615,60.68087585893026,-10,-10,10,10,35,25,25,45,45,3.1622776601683795,10,3.1622776601683795,10
5,17,0.08003650000318885,o,45.5,Unlimited Time,i,24.567392606414245,48.44448914294218,45.48559576941102,36.54287209021342,24.567392606414245,36.54287209021342,45.48559576941102,48.44448914294218,-10,-10,10,10,35,25,25,45,45,3.1622776601683795,10,3.1622776601683795,10
5,18,0.15457200002856553,o,37.2,Unlimited Time,i,23.8672392979147,56.933630282103266,37.22661755505896,37.53253116660321,23.8672392979147,37.53253116660321,37.22661755505896,56.933630282103266,-10,-10,10,10,35,25,25,45,45,3.1622776601683795,10,3.1622776601683795,10
5,19,0.14629750000312924,o,44.0,Unlimited Time,i,25.17861860295664,69.10329454826008,44.00105923115286,15.561502406077944,25.17861860295664,15.561502406077944,44.00105923115286,69.10329454826008,-10,-10,10,10,35,25,25,45,45,3.1622776601683795,10,3.1622776601683795,10
5,20,0.25528250000206754,o,43.6,Unlimited Time,i,26.1636275988442,38.9398040098083,43.55265486979225,30.2810212412152,26.1636275988442,30.2810212412152,43.55265486979225,38.9398040098083,-10,-10,10,10,35,25,25,45,45,3.1622776601683795,10,3.1622776601683795,10
6,1,0.24745349999284372,o,7.6,Limited Time,h,55.01068432815424,19.7616762655962,7.616028438349556,21.07122398297816,7.616028438349556,21.07122398297816,19.7616762655962,55.01068432815424,-10,-0.33,0.33,10,35,25,34.67,35.33,45,10,10,10,10
6,2,0.13928599999053404,o,49.6,Limited Time,h,56.51409095527728,32.04319529418104,49.595560278889195,34.572593472180486,49.595560278889195,34.572593472180486,32.04319529418104,56.51409095527728,-10,-0.33,0.33,10,35,25,34.67,35.33,45,10,10,10,10
6,3,0.3439393999869935,o,34.2,Limited Time,h,45.51079060264573,37.58045806652662,34.17336280037895,24.139577058545566,34.17336280037895,24.139577058545566,37.58045806652662,45.51079060264573,-10,-0.33,0.33,10,35,25,34.67,35.33,45,10,10,10,10
6,4,0.04758170002605766,p,35.2,Limited Time,h,36.09510212203412,31.42134852514575,10.597397402561686,35.18612735713767,10.597397402561686,35.18612735713767,31.42134852514575,36.09510212203412,-10,-0.33,0.33,10,35,25,34.67,35.33,45,10,10,10,10
6,5,0.10152550000930205,p,30.0,Limited Time,h,36.12346932637618,14.462418754939588,17.979698692817152,30.015252642175472,17.979698692817152,30.015252642175472,14.462418754939588,36.12346932637618,-10,-0.33,0.33,10,35,25,34.67,35.33,45,10,10,10,10
6,6,0.1270119000109844,p,24.5,Limited Time,h,53.23445991446633,53.26454013821825,15.495308626957444,24.476674836131604,15.495308626957444,24.476674836131604,53.26454013821825,53.23445991446633,-10,-0.33,0.33,10,35,25,34.67,35.33,45,10,10,10,10
6,7,0.1605758999940008,p,49.1,Limited Time,h,42.96291177716998,38.16953755536666,39.67000581711246,49.0798726400967,39.67000581711246,49.0798726400967,38.16953755536666,42.96291177716998,-10,-0.33,0.33,10,35,25,34.67,35.33,45,10,10,10,10
6,8,0.13488750002579764,p,34.9,Limited Time,h,47.48418621080591,59.613298841934,30.003838227038813,34.92855796633631,30.003838227038813,34.92855796633631,59.613298841934,47.48418621080591,-10,-0.33,0.33,10,35,25,34.67,35.33,45,10,10,10,10
6,9,0.17746510001597926,p,27.7,Limited Time,h,36.68504690646378,39.54561064461129,32.992204503539696,27.715850408204243,32.992204503539696,27.715850408204243,39.54561064461129,36.68504690646378,-10,-0.33,0.33,10,35,25,34.67,35.33,45,10,10,10,10
6,10,0.1734019000432454,w,24.3,Limited Time,h,43.99536927333972,24.274728794883174,32.724180545245275,47.04885624716561,32.724180545245275,47.04885624716561,24.274728794883174,43.99536927333972,-10,-0.33,0.33,10,35,25,34.67,35.33,45,10,10,10,10
6,11,0.06895450002048165,w,36.3,Limited Time,h,40.798886778778886,36.272795665823466,4.625857464040269,40.17765039175563,4.625857464040269,40.17765039175563,36.272795665823466,40.798886778778886,-10,-0.33,0.33,10,35,25,34.67,35.33,45,10,10,10,10
6,12,0.02776649995939806,w,35.1,Limited Time,h,48.23154326239161,35.054176690654494,32.2902989415691,44.871655177628554,32.2902989415691,44.871655177628554,35.054176690654494,48.23154326239161,-10,-0.33,0.33,10,35,25,34.67,35.33,45,10,10,10,10
6,13,0.08597520005423576,w,53.6,Limited Time,h,37.61561907422269,53.62022854432607,25.786091321934403,35.20626754763598,25.786091321934403,35.20626754763598,53.62022854432607,37.61561907422269,-10,-0.33,0.33,10,35,25,34.67,35.33,45,10,10,10,10
6,14,0.1150649999617599,w,31.5,Limited Time,h,71.2817660568601,31.544124515668432,10.807863192239175,36.566113610940306,10.807863192239175,36.566113610940306,31.544124515668432,71.2817660568601,-10,-0.33,0.33,10,35,25,34.67,35.33,45,10,10,10,10
6,15,0.15167920000385493,w,14.2,Limited Time,h,38.94498032957397,14.17227721807917,33.9321653817109,28.39897449712293,33.9321653817109,28.39897449712293,14.17227721807917,38.94498032957397,-10,-0.33,0.33,10,35,25,34.67,35.33,45,10,10,10,10
6,16,0.15190489997621626,q,30.9,Limited Time,h,30.941922303135375,32.49486993845914,33.46487822981767,46.26253630400939,33.46487822981767,46.26253630400939,32.49486993845914,30.941922303135375,-10,-0.33,0.33,10,35,25,34.67,35.33,45,10,10,10,10
6,17,0.040042500011622906,q,45.9,Limited Time,h,45.87558523611464,39.764565838545046,2.6722035246679887,29.044138555289827,2.6722035246679887,29.044138555289827,39.764565838545046,45.87558523611464,-10,-0.33,0.33,10,35,25,34.67,35.33,45,10,10,10,10
6,18,0.056183400040026754,q,42.4,Limited Time,h,42.38931827931543,24.85113513584377,33.161168026948005,31.62760017780214,33.161168026948005,31.62760017780214,24.85113513584377,42.38931827931543,-10,-0.33,0.33,10,35,25,34.67,35.33,45,10,10,10,10
6,19,0.0575177000137046,q,33.9,Limited Time,h,33.86525253490714,41.89222206041231,27.940293181031937,37.7115235845379,27.940293181031937,37.7115235845379,41.89222206041231,33.86525253490714,-10,-0.33,0.33,10,35,25,34.67,35.33,45,10,10,10,10
6,20,0.031348700053058565,q,37.8,Limited Time,h,37.82318015342463,47.1311028767814,41.48356428354838,13.874921303507232,41.48356428354838,13.874921303507232,47.1311028767814,37.82318015342463,-10,-0.33,0.33,10,35,25,34.67,35.33,45,10,10,10,10
7,1,0.2951270999619737,q,44.3,Unlimited Time,e,44.27436282433556,34.413769879704596,30.064799740516847,33.59538810441929,33.59538810441929,34.413769879704596,30.064799740516847,44.27436282433556,0,0,0,0,35,35,35,35,35,3.1622776601683795,6.324555320336759,8.366600265340756,10
7,2,0.1031127999885939,w,39.2,Unlimited Time,e,36.465849573802025,39.187943246953516,54.060071033198525,35.75046373679935,35.75046373679935,39.187943246953516,54.060071033198525,36.465849573802025,0,0,0,0,35,35,35,35,35,3.1622776601683795,6.324555320336759,8.366600265340756,10
7,3,0.05345730000408366,w,31.7,Unlimited Time,e,38.69519201663304,31.722223129690924,28.781090084578896,33.61731817949252,33.61731817949252,31.722223129690924,28.781090084578896,38.69519201663304,0,0,0,0,35,35,35,35,35,3.1622776601683795,6.324555320336759,8.366600265340756,10
7,4,0.1701613999903202,w,33.6,Unlimited Time,e,31.080464255766337,33.64407542776785,25.094556378547423,29.82910001494114,29.82910001494114,33.64407542776785,25.094556378547423,31.080464255766337,0,0,0,0,35,35,35,35,35,3.1622776601683795,6.324555320336759,8.366600265340756,10
7,5,0.14562929997919127,w,27.7,Unlimited Time,e,30.179863330212267,27.655667741246997,41.4984929240064,33.67422652199511,33.67422652199511,27.655667741246997,41.4984929240064,30.179863330212267,0,0,0,0,35,35,35,35,35,3.1622776601683795,6.324555320336759,8.366600265340756,10
7,6,0.054575699963606894,w,36.7,Unlimited Time,e,54.99893616312055,36.68289170073787,15.926363259683459,31.023681759904584,31.023681759904584,36.68289170073787,15.926363259683459,54.99893616312055,0,0,0,0,35,35,35,35,35,3.1622776601683795,6.324555320336759,8.366600265340756,10
7,7,0.046788300038315356,w,31.7,Unlimited Time,e,15.951002050524078,31.719724752214617,30.309165746974873,34.54498858126246,34.54498858126246,31.719724752214617,30.309165746974873,15.951002050524078,0,0,0,0,35,35,35,35,35,3.1622776601683795,6.324555320336759,8.366600265340756,10
7,8,0.07972270000027493,w,21.6,Unlimited Time,e,24.91514897149953,21.6129211623035,33.45188240191257,40.34722978526774,40.34722978526774,21.6129211623035,33.45188240191257,24.91514897149953,0,0,0,0,35,35,35,35,35,3.1622776601683795,6.324555320336759,8.366600265340756,10
7,9,0.05405510001583025,w,43.9,Unlimited Time,e,18.357205425207955,43.902371636635394,33.31655053219864,35.36144220273489,35.36144220273489,43.902371636635394,33.31655053219864,18.357205425207955,0,0,0,0,35,35,35,35,35,3.1622776601683795,6.324555320336759,8.366600265340756,10
7,10,0.09680300002219155,w,40.9,Unlimited Time,e,19.88652130280242,40.89303239575584,14.565509318924608,32.5288960557557,32.5288960557557,40.89303239575584,14.565509318924608,19.88652130280242,0,0,0,0,35,35,35,35,35,3.1622776601683795,6.324555320336759,8.366600265340756,10
7,11,0.06623170000966638,w,42.6,Unlimited Time,e,42.90730938741807,42.55614256323046,22.593928981187446,35.19443372460657,35.19443372460657,42.55614256323046,22.593928981187446,42.90730938741807,0,0,0,0,35,35,35,35,35,3.1622776601683795,6.324555320336759,8.366600265340756,10
7,12,0.07155749999219552,w,25.6,Unlimited Time,e,24.998778929296634,25.647763365292224,43.8714443992574,37.517934452976114,37.517934452976114,25.647763365292224,43.8714443992574,24.998778929296634,0,0,0,0,35,35,35,35,35,3.1622776601683795,6.324555320336759,8.366600265340756,10
7,13,0.07080619997577742,w,36.9,Unlimited Time,e,32.345003543950924,36.89645144122098,32.75750299220033,38.31168853793646,38.31168853793646,36.89645144122098,32.75750299220033,32.345003543950924,0,0,0,0,35,35,35,35,35,3.1622776601683795,6.324555320336759,8.366600265340756,10
7,14,0.021478299982845783,w,42.5,Unlimited Time,e,25.177058332748864,42.51747337394745,41.078018647924615,33.33438764478754,33.33438764478754,42.51747337394745,41.078018647924615,25.177058332748864,0,0,0,0,35,35,35,35,35,3.1622776601683795,6.324555320336759,8.366600265340756,10
7,15,0.03286229999503121,w,28.9,Unlimited Time,e,30.71291610572395,28.903566929176264,34.54306999958507,38.56867466267656,38.56867466267656,28.903566929176264,34.54306999958507,30.71291610572395,0,0,0,0,35,35,35,35,35,3.1622776601683795,6.324555320336759,8.366600265340756,10
7,16,0.057584599999245256,w,35.4,Unlimited Time,e,11.042453097750379,35.41581677350842,36.091628255049066,35.58231677072335,35.58231677072335,35.41581677350842,36.091628255049066,11.042453097750379,0,0,0,0,35,35,35,35,35,3.1622776601683795,6.324555320336759,8.366600265340756,10
7,17,0.063370100047905,w,38.9,Unlimited Time,e,36.458308186528,38.86105245511115,44.00798929507666,36.91037475627812,36.91037475627812,38.86105245511115,44.00798929507666,36.458308186528,0,0,0,0,35,35,35,35,35,3.1622776601683795,6.324555320336759,8.366600265340756,10
7,18,0.017006999987643212,w,35.7,Unlimited Time,e,15.390686008663476,35.734745134847465,22.99222328433649,36.24735691027156,36.24735691027156,35.734745134847465,22.99222328433649,15.390686008663476,0,0,0,0,35,35,35,35,35,3.1622776601683795,6.324555320336759,8.366600265340756,10
7,19,0.059041200031060725,w,47.1,Unlimited Time,e,33.46035964546314,47.10139268721384,39.39031663167007,39.040576579715434,39.040576579715434,47.10139268721384,39.39031663167007,33.46035964546314,0,0,0,0,35,35,35,35,35,3.1622776601683795,6.324555320336759,8.366600265340756,10
7,20,0.03758329997071996,w,27.1,Unlimited Time,e,39.61895813977769,27.064167977291685,24.528027316828215,31.580658482002526,31.580658482002526,27.064167977291685,24.528027316828215,39.61895813977769,0,0,0,0,35,35,35,35,35,3.1622776601683795,6.324555320336759,8.366600265340756,10
8,1,0.17995000001974404,w,47.8,Limited Time,i,21.52898682683015,47.803915752513646,44.897947702158966,25.816864639959288,25.816864639959288,21.52898682683015,47.803915752513646,44.897947702158966,-10,-10,10,10,35,25,25,45,45,3.1622776601683795,10,3.1622776601683795,10
8,2,0.11412209999980405,w,44.6,Limited Time,i,28.508983104393643,44.616685296918924,65.44367045713116,21.425782970415813,21.425782970415813,28.508983104393643,44.616685296918924,65.44367045713116,-10,-10,10,10,35,25,25,45,45,3.1622776601683795,10,3.1622776601683795,10
8,3,0.014266600017435849,w,41.7,Limited Time,i,12.663129815790686,41.73013816773118,45.50983882692115,22.91100836627695,22.91100836627695,12.663129815790686,41.73013816773118,45.50983882692115,-10,-10,10,10,35,25,25,45,45,3.1622776601683795,10,3.1622776601683795,10
8,4,0.0016259999829344451,w,42.6,Limited Time,i,12.970407441274768,42.55998745211898,36.0468562331804,27.362115572776563,27.362115572776563,12.970407441274768,42.55998745211898,36.0468562331804,-10,-10,10,10,35,25,25,45,45,3.1622776601683795,10,3.1622776601683795,10
8,5,0.000611600000411272,w,47.0,Limited Time,i,20.733401971847588,46.99123068975792,18.58369389046963,22.301043147556157,22.301043147556157,20.733401971847588,46.99123068975792,18.58369389046963,-10,-10,10,10,35,25,25,45,45,3.1622776601683795,10,3.1622776601683795,10
8,6,0.0055294000194408,w,44.0,Limited Time,i,40.953833605058065,44.016385484254066,60.012150122484755,23.094386173177092,23.094386173177092,40.953833605058065,44.016385484254066,60.012150122484755,-10,-10,10,10,35,25,25,45,45,3.1622776601683795,10,3.1622776601683795,10
8,7,0.030975500005297363,w,46.9,Limited Time,i,37.053131608586376,46.87959119368408,60.04235074382552,22.47216025269298,22.47216025269298,37.053131608586376,46.87959119368408,60.04235074382552,-10,-10,10,10,35,25,25,45,45,3.1622776601683795,10,3.1622776601683795,10
8,8,0.10097220004536211,q,41.6,Limited Time,i,41.58104134705234,42.91414969634059,46.02182599539439,18.89436983393241,18.89436983393241,41.58104134705234,42.91414969634059,46.02182599539439,-10,-10,10,10,35,25,25,45,45,3.1622776601683795,10,3.1622776601683795,10
8,9,0.1639392000506632,q,22.5,Limited Time,i,22.464971028428167,45.577600392172286,27.345944471293492,24.64765136817347,24.64765136817347,22.464971028428167,45.577600392172286,27.345944471293492,-10,-10,10,10,35,25,25,45,45,3.1622776601683795,10,3.1622776601683795,10
8,10,0.20071440003812313,q,17.0,Limited Time,i,17.022992687759128,45.20118456105725,55.63584400515198,21.631045113589227,21.631045113589227,17.022992687759128,45.20118456105725,55.63584400515198,-10,-10,10,10,35,25,25,45,45,3.1622776601683795,10,3.1622776601683795,10
8,11,0.16341979999560863,o,35.6,Limited Time,i,24.245008698564302,45.834318461654206,35.59932581132787,23.56784799930641,23.56784799930641,24.245008698564302,45.834318461654206,35.59932581132787,-10,-10,10,10,35,25,25,45,45,3.1622776601683795,10,3.1622776601683795,10
8,12,0.10151720000430942,o,41.7,Limited Time,i,27.373486938413215,43.595057338701395,41.69555638617534,20.75013792565977,20.75013792565977,27.373486938413215,43.595057338701395,41.69555638617534,-10,-10,10,10,35,25,25,45,45,3.1622776601683795,10,3.1622776601683795,10
8,13,0.10113889997592196,o,56.9,Limited Time,i,25.90017738746892,44.68462474296716,56.895782929549235,32.09053803232145,32.09053803232145,25.90017738746892,44.68462474296716,56.895782929549235,-10,-10,10,10,35,25,25,45,45,3.1622776601683795,10,3.1622776601683795,10
8,14,0.12612810003338382,p,21.9,Limited Time,i,35.288396775024125,47.07407275106752,48.038212230797434,21.90952763725339,21.90952763725339,35.288396775024125,47.07407275106752,48.038212230797434,-10,-10,10,10,35,25,25,45,45,3.1622776601683795,10,3.1622776601683795,10
8,15,0.04681999998865649,p,28.1,Limited Time,i,4.7152701808412125,45.824504878561356,32.042603424728256,28.051994391074448,28.051994391074448,4.7152701808412125,45.824504878561356,32.042603424728256,-10,-10,10,10,35,25,25,45,45,3.1622776601683795,10,3.1622776601683795,10
8,16,0.08903979999013245,p,26.5,Limited Time,i,28.285682848110355,44.93310321623615,60.68087585893026,26.487804875726827,26.487804875726827,28.285682848110355,44.93310321623615,60.68087585893026,-10,-10,10,10,35,25,25,45,45,3.1622776601683795,10,3.1622776601683795,10
8,17,0.08121719997143373,p,24.6,Limited Time,i,36.54287209021342,45.48559576941102,48.44448914294218,24.567392606414245,24.567392606414245,36.54287209021342,45.48559576941102,48.44448914294218,-10,-10,10,10,35,25,25,45,45,3.1622776601683795,10,3.1622776601683795,10
8,18,0.0647204999695532,p,23.9,Limited Time,i,37.53253116660321,37.22661755505896,56.933630282103266,23.8672392979147,23.8672392979147,37.53253116660321,37.22661755505896,56.933630282103266,-10,-10,10,10,35,25,25,45,45,3.1622776601683795,10,3.1622776601683795,10
8,19,0.11424859997350723,o,69.1,Limited Time,i,15.561502406077944,44.00105923115286,69.10329454826008,25.17861860295664,25.17861860295664,15.561502406077944,44.00105923115286,69.10329454826008,-10,-10,10,10,35,25,25,45,45,3.1622776601683795,10,3.1622776601683795,10
8,20,0.08895820000907406,o,38.9,Limited Time,i,30.2810212412152,43.55265486979225,38.9398040098083,26.1636275988442,26.1636275988442,30.2810212412152,43.55265486979225,38.9398040098083,-10,-10,10,10,35,25,25,45,45,3.1622776601683795,10,3.1622776601683795,10
9,1,0.23980809998465702,o,25.8,Unlimited Time,i,44.897947702158966,21.52898682683015,25.816864639959288,47.803915752513646,25.816864639959288,21.52898682683015,47.803915752513646,44.897947702158966,-10,-10,10,10,35,25,25,45,45,3.1622776601683795,10,3.1622776601683795,10
9,2,0.07285400002729148,p,44.6,Unlimited Time,i,65.44367045713116,28.508983104393643,21.425782970415813,44.616685296918924,21.425782970415813,28.508983104393643,44.616685296918924,65.44367045713116,-10,-10,10,10,35,25,25,45,45,3.1622776601683795,10,3.1622776601683795,10
9,3,0.0602422000374645,o,22.9,Unlimited Time,i,45.50983882692115,12.663129815790686,22.91100836627695,41.73013816773118,22.91100836627695,12.663129815790686,41.73013816773118,45.50983882692115,-10,-10,10,10,35,25,25,45,45,3.1622776601683795,10,3.1622776601683795,10
9,4,0.07723049999913201,o,27.4,Unlimited Time,i,36.0468562331804,12.970407441274768,27.362115572776563,42.55998745211898,27.362115572776563,12.970407441274768,42.55998745211898,36.0468562331804,-10,-10,10,10,35,25,25,45,45,3.1622776601683795,10,3.1622776601683795,10
9,5,0.0019516999600455165,p,47.0,Unlimited Time,i,18.58369389046963,20.733401971847588,22.301043147556157,46.99123068975792,22.301043147556157,20.733401971847588,46.99123068975792,18.58369389046963,-10,-10,10,10,35,25,25,45,45,3.1622776601683795,10,3.1622776601683795,10
9,6,0.0657469000434503,p,44.0,Unlimited Time,i,60.012150122484755,40.953833605058065,23.094386173177092,44.016385484254066,23.094386173177092,40.953833605058065,44.016385484254066,60.012150122484755,-10,-10,10,10,35,25,25,45,45,3.1622776601683795,10,3.1622776601683795,10
9,7,0.03139240003656596,w,37.1,Unlimited Time,i,60.04235074382552,37.053131608586376,22.47216025269298,46.87959119368408,22.47216025269298,37.053131608586376,46.87959119368408,60.04235074382552,-10,-10,10,10,35,25,25,45,45,3.1622776601683795,10,3.1622776601683795,10
9,8,0.01958839996950701,p,42.9,Unlimited Time,i,46.02182599539439,41.58104134705234,18.89436983393241,42.91414969634059,18.89436983393241,41.58104134705234,42.91414969634059,46.02182599539439,-10,-10,10,10,35,25,25,45,45,3.1622776601683795,10,3.1622776601683795,10
9,9,0.019528299977537245,o,24.6,Unlimited Time,i,27.345944471293492,22.464971028428167,24.64765136817347,45.577600392172286,24.64765136817347,22.464971028428167,45.577600392172286,27.345944471293492,-10,-10,10,10,35,25,25,45,45,3.1622776601683795,10,3.1622776601683795,10
9,10,0.03188520000549033,p,45.2,Unlimited Time,i,55.63584400515198,17.022992687759128,21.631045113589227,45.20118456105725,21.631045113589227,17.022992687759128,45.20118456105725,55.63584400515198,-10,-10,10,10,35,25,25,45,45,3.1622776601683795,10,3.1622776601683795,10
9,11,0.04410910001024604,o,23.6,Unlimited Time,i,35.59932581132787,24.245008698564302,23.56784799930641,45.834318461654206,23.56784799930641,24.245008698564302,45.834318461654206,35.59932581132787,-10,-10,10,10,35,25,25,45,45,3.1622776601683795,10,3.1622776601683795,10
9,12,0.001875000016298145,p,43.6,Unlimited Time,i,41.69555638617534,27.373486938413215,20.75013792565977,43.595057338701395,20.75013792565977,27.373486938413215,43.595057338701395,41.69555638617534,-10,-10,10,10,35,25,25,45,45,3.1622776601683795,10,3.1622776601683795,10
9,13,0.03280759998597205,p,44.7,Unlimited Time,i,56.895782929549235,25.90017738746892,32.09053803232145,44.68462474296716,32.09053803232145,25.90017738746892,44.68462474296716,56.895782929549235,-10,-10,10,10,35,25,25,45,45,3.1622776601683795,10,3.1622776601683795,10
9,14,0.0034841999877244234,o,21.9,Unlimited Time,i,48.038212230797434,35.288396775024125,21.90952763725339,47.07407275106752,21.90952763725339,35.288396775024125,47.07407275106752,48.038212230797434,-10,-10,10,10,35,25,25,45,45,3.1622776601683795,10,3.1622776601683795,10
9,15,0.0906416000216268,o,28.1,Unlimited Time,i,32.042603424728256,4.7152701808412125,28.051994391074448,45.824504878561356,28.051994391074448,4.7152701808412125,45.824504878561356,32.042603424728256,-10,-10,10,10,35,25,25,45,45,3.1622776601683795,10,3.1622776601683795,10
9,16,0.011915899987798184,o,26.5,Unlimited Time,i,60.68087585893026,28.285682848110355,26.487804875726827,44.93310321623615,26.487804875726827,28.285682848110355,44.93310321623615,60.68087585893026,-10,-10,10,10,35,25,25,45,45,3.1622776601683795,10,3.1622776601683795,10
9,17,0.11646400002064183,p,45.5,Unlimited Time,i,48.44448914294218,36.54287209021342,24.567392606414245,45.48559576941102,24.567392606414245,36.54287209021342,45.48559576941102,48.44448914294218,-10,-10,10,10,35,25,25,45,45,3.1622776601683795,10,3.1622776601683795,10
9,18,0.11535459995502606,p,37.2,Unlimited Time,i,56.933630282103266,37.53253116660321,23.8672392979147,37.22661755505896,23.8672392979147,37.53253116660321,37.22661755505896,56.933630282103266,-10,-10,10,10,35,25,25,45,45,3.1622776601683795,10,3.1622776601683795,10
9,19,0.1437826000037603,p,44.0,Unlimited Time,i,69.10329454826008,15.561502406077944,25.17861860295664,44.00105923115286,25.17861860295664,15.561502406077944,44.00105923115286,69.10329454826008,-10,-10,10,10,35,25,25,45,45,3.1622776601683795,10,3.1622776601683795,10
9,20,0.12921909999568015,o,26.2,Unlimited Time,i,38.9398040098083,30.2810212412152,26.1636275988442,43.55265486979225,26.1636275988442,30.2810212412152,43.55265486979225,38.9398040098083,-10,-10,10,10,35,25,25,45,45,3.1622776601683795,10,3.1622776601683795,10
10,1,0.22091709997039288,w,34.4,Limited Time,e,30.064799740516847,34.413769879704596,44.27436282433556,33.59538810441929,33.59538810441929,34.413769879704596,30.064799740516847,44.27436282433556,0,0,0,0,35,35,35,35,35,3.1622776601683795,6.324555320336759,8.366600265340756,10
10,2,0.17929910001112148,w,39.2,Limited Time,e,54.060071033198525,39.187943246953516,36.465849573802025,35.75046373679935,35.75046373679935,39.187943246953516,54.060071033198525,36.465849573802025,0,0,0,0,35,35,35,35,35,3.1622776601683795,6.324555320336759,8.366600265340756,10
10,3,0.16203690005932003,w,31.7,Limited Time,e,28.781090084578896,31.722223129690924,38.69519201663304,33.61731817949252,33.61731817949252,31.722223129690924,28.781090084578896,38.69519201663304,0,0,0,0,35,35,35,35,35,3.1622776601683795,6.324555320336759,8.366600265340756,10
10,4,0.16161700000520796,w,33.6,Limited Time,e,25.094556378547423,33.64407542776785,31.080464255766337,29.82910001494114,29.82910001494114,33.64407542776785,25.094556378547423,31.080464255766337,0,0,0,0,35,35,35,35,35,3.1622776601683795,6.324555320336759,8.366600265340756,10
10,5,0.19865919998846948,o,30.2,Limited Time,e,41.4984929240064,27.655667741246997,30.179863330212267,33.67422652199511,33.67422652199511,27.655667741246997,41.4984929240064,30.179863330212267,0,0,0,0,35,35,35,35,35,3.1622776601683795,6.324555320336759,8.366600265340756,10
10,6,0.09137929999269545,o,55.0,Limited Time,e,15.926363259683459,36.68289170073787,54.99893616312055,31.023681759904584,31.023681759904584,36.68289170073787,15.926363259683459,54.99893616312055,0,0,0,0,35,35,35,35,35,3.1622776601683795,6.324555320336759,8.366600265340756,10
10,7,0.09426420001545921,o,16.0,Limited Time,e,30.309165746974873,31.719724752214617,15.951002050524078,34.54498858126246,34.54498858126246,31.719724752214617,30.309165746974873,15.951002050524078,0,0,0,0,35,35,35,35,35,3.1622776601683795,6.324555320336759,8.366600265340756,10
10,8,0.12347770004998893,o,24.9,Limited Time,e,33.45188240191257,21.6129211623035,24.91514897149953,40.34722978526774,40.34722978526774,21.6129211623035,33.45188240191257,24.91514897149953,0,0,0,0,35,35,35,35,35,3.1622776601683795,6.324555320336759,8.366600265340756,10
10,9,0.16947239998262376,p,35.4,Limited Time,e,33.31655053219864,43.902371636635394,18.357205425207955,35.36144220273489,35.36144220273489,43.902371636635394,33.31655053219864,18.357205425207955,0,0,0,0,35,35,35,35,35,3.1622776601683795,6.324555320336759,8.366600265340756,10
10,10,0.0910137000028044,p,32.5,Limited Time,e,14.565509318924608,40.89303239575584,19.88652130280242,32.5288960557557,32.5288960557557,40.89303239575584,14.565509318924608,19.88652130280242,0,0,0,0,35,35,35,35,35,3.1622776601683795,6.324555320336759,8.366600265340756,10
10,11,0.08187520003411919,p,35.2,Limited Time,e,22.593928981187446,42.55614256323046,42.90730938741807,35.19443372460657,35.19443372460657,42.55614256323046,22.593928981187446,42.90730938741807,0,0,0,0,35,35,35,35,35,3.1622776601683795,6.324555320336759,8.366600265340756,10
10,12,0.10343630000716075,p,37.5,Limited Time,e,43.8714443992574,25.647763365292224,24.998778929296634,37.517934452976114,37.517934452976114,25.647763365292224,43.8714443992574,24.998778929296634,0,0,0,0,35,35,35,35,35,3.1622776601683795,6.324555320336759,8.366600265340756,10
10,13,0.09185389999765903,p,38.3,Limited Time,e,32.75750299220033,36.89645144122098,32.345003543950924,38.31168853793646,38.31168853793646,36.89645144122098,32.75750299220033,32.345003543950924,0,0,0,0,35,35,35,35,35,3.1622776601683795,6.324555320336759,8.366600265340756,10
10,14,0.1703538000001572,q,41.1,Limited Time,e,41.078018647924615,42.51747337394745,25.177058332748864,33.33438764478754,33.33438764478754,42.51747337394745,41.078018647924615,25.177058332748864,0,0,0,0,35,35,35,35,35,3.1622776601683795,6.324555320336759,8.366600265340756,10
10,15,0.14208510000025854,q,34.5,Limited Time,e,34.54306999958507,28.903566929176264,30.71291610572395,38.56867466267656,38.56867466267656,28.903566929176264,34.54306999958507,30.71291610572395,0,0,0,0,35,35,35,35,35,3.1622776601683795,6.324555320336759,8.366600265340756,10
10,16,0.13457039999775589,q,36.1,Limited Time,e,36.091628255049066,35.41581677350842,11.042453097750379,35.58231677072335,35.58231677072335,35.41581677350842,36.091628255049066,11.042453097750379,0,0,0,0,35,35,35,35,35,3.1622776601683795,6.324555320336759,8.366600265340756,10
10,17,0.2006363000255078,q,44.0,Limited Time,e,44.00798929507666,38.86105245511115,36.458308186528,36.91037475627812,36.91037475627812,38.86105245511115,44.00798929507666,36.458308186528,0,0,0,0,35,35,35,35,35,3.1622776601683795,6.324555320336759,8.366600265340756,10
10,18,0.24239959998521954,q,23.0,Limited Time,e,22.99222328433649,35.734745134847465,15.390686008663476,36.24735691027156,36.24735691027156,35.734745134847465,22.99222328433649,15.390686008663476,0,0,0,0,35,35,35,35,35,3.1622776601683795,6.324555320336759,8.366600265340756,10
10,19,0.02195299998857081,q,39.4,Limited Time,e,39.39031663167007,47.10139268721384,33.46035964546314,39.040576579715434,39.040576579715434,47.10139268721384,39.39031663167007,33.46035964546314,0,0,0,0,35,35,35,35,35,3.1622776601683795,6.324555320336759,8.366600265340756,10
10,20,0.01752320001833141,q,24.5,Limited Time,e,24.528027316828215,27.064167977291685,39.61895813977769,31.580658482002526,31.580658482002526,27.064167977291685,24.528027316828215,39.61895813977769,0,0,0,0,35,35,35,35,35,3.1622776601683795,6.324555320336759,8.366600265340756,10
11,1,0.659791000012774,p,7.6,Unlimited Time,h,21.07122398297816,19.7616762655962,55.01068432815424,7.616028438349556,7.616028438349556,21.07122398297816,19.7616762655962,55.01068432815424,-10,-0.33,0.33,10,35,25,34.67,35.33,45,10,10,10,10
11,2,0.16382979997433722,p,49.6,Unlimited Time,h,34.572593472180486,32.04319529418104,56.51409095527728,49.595560278889195,49.595560278889195,34.572593472180486,32.04319529418104,56.51409095527728,-10,-0.33,0.33,10,35,25,34.67,35.33,45,10,10,10,10
11,3,0.06445760000497103,p,34.2,Unlimited Time,h,24.139577058545566,37.58045806652662,45.51079060264573,34.17336280037895,34.17336280037895,24.139577058545566,37.58045806652662,45.51079060264573,-10,-0.33,0.33,10,35,25,34.67,35.33,45,10,10,10,10
11,4,0.2885223000193946,o,36.1,Unlimited Time,h,35.18612735713767,31.42134852514575,36.09510212203412,10.597397402561686,10.597397402561686,35.18612735713767,31.42134852514575,36.09510212203412,-10,-0.33,0.33,10,35,25,34.67,35.33,45,10,10,10,10
11,5,0.09754370001610368,o,36.1,Unlimited Time,h,30.015252642175472,14.462418754939588,36.12346932637618,17.979698692817152,17.979698692817152,30.015252642175472,14.462418754939588,36.12346932637618,-10,-0.33,0.33,10,35,25,34.67,35.33,45,10,10,10,10
11,6,0.11752750002779067,o,53.2,Unlimited Time,h,24.476674836131604,53.26454013821825,53.23445991446633,15.495308626957444,15.495308626957444,24.476674836131604,53.26454013821825,53.23445991446633,-10,-0.33,0.33,10,35,25,34.67,35.33,45,10,10,10,10
11,7,0.11746640002820641,o,43.0,Unlimited Time,h,49.0798726400967,38.16953755536666,42.96291177716998,39.67000581711246,39.67000581711246,49.0798726400967,38.16953755536666,42.96291177716998,-10,-0.33,0.33,10,35,25,34.67,35.33,45,10,10,10,10
11,8,0.09398350003175437,o,47.5,Unlimited Time,h,34.92855796633631,59.613298841934,47.48418621080591,30.003838227038813,30.003838227038813,34.92855796633631,59.613298841934,47.48418621080591,-10,-0.33,0.33,10,35,25,34.67,35.33,45,10,10,10,10
11,9,0.0894556000130251,w,39.5,Unlimited Time,h,27.715850408204243,39.54561064461129,36.68504690646378,32.992204503539696,32.992204503539696,27.715850408204243,39.54561064461129,36.68504690646378,-10,-0.33,0.33,10,35,25,34.67,35.33,45,10,10,10,10
11,10,0.1349548000143841,w,24.3,Unlimited Time,h,47.04885624716561,24.274728794883174,43.99536927333972,32.724180545245275,32.724180545245275,47.04885624716561,24.274728794883174,43.99536927333972,-10,-0.33,0.33,10,35,25,34.67,35.33,45,10,10,10,10
11,11,0.15696330001810566,w,36.3,Unlimited Time,h,40.17765039175563,36.272795665823466,40.798886778778886,4.625857464040269,4.625857464040269,40.17765039175563,36.272795665823466,40.798886778778886,-10,-0.33,0.33,10,35,25,34.67,35.33,45,10,10,10,10
11,12,0.023158400028478354,w,35.1,Unlimited Time,h,44.871655177628554,35.054176690654494,48.23154326239161,32.2902989415691,32.2902989415691,44.871655177628554,35.054176690654494,48.23154326239161,-10,-0.33,0.33,10,35,25,34.67,35.33,45,10,10,10,10
11,13,0.010621999972499907,q,35.2,Unlimited Time,h,35.20626754763598,53.62022854432607,37.61561907422269,25.786091321934403,25.786091321934403,35.20626754763598,53.62022854432607,37.61561907422269,-10,-0.33,0.33,10,35,25,34.67,35.33,45,10,10,10,10
11,14,0.1393472999916412,o,71.3,Unlimited Time,h,36.566113610940306,31.544124515668432,71.2817660568601,10.807863192239175,10.807863192239175,36.566113610940306,31.544124515668432,71.2817660568601,-10,-0.33,0.33,10,35,25,34.67,35.33,45,10,10,10,10
11,15,0.14768480003112927,o,38.9,Unlimited Time,h,28.39897449712293,14.17227721807917,38.94498032957397,33.9321653817109,33.9321653817109,28.39897449712293,14.17227721807917,38.94498032957397,-10,-0.33,0.33,10,35,25,34.67,35.33,45,10,10,10,10
11,16,0.13095169997541234,o,30.9,Unlimited Time,h,46.26253630400939,32.49486993845914,30.941922303135375,33.46487822981767,33.46487822981767,46.26253630400939,32.49486993845914,30.941922303135375,-10,-0.33,0.33,10,35,25,34.67,35.33,45,10,10,10,10
11,17,0.10666439996566623,o,45.9,Unlimited Time,h,29.044138555289827,39.764565838545046,45.87558523611464,2.6722035246679887,2.6722035246679887,29.044138555289827,39.764565838545046,45.87558523611464,-10,-0.33,0.33,10,35,25,34.67,35.33,45,10,10,10,10
11,18,0.08520199998747557,o,42.4,Unlimited Time,h,31.62760017780214,24.85113513584377,42.38931827931543,33.161168026948005,33.161168026948005,31.62760017780214,24.85113513584377,42.38931827931543,-10,-0.33,0.33,10,35,25,34.67,35.33,45,10,10,10,10
11,19,0.09421319997636601,o,33.9,Unlimited Time,h,37.7115235845379,41.89222206041231,33.86525253490714,27.940293181031937,27.940293181031937,37.7115235845379,41.89222206041231,33.86525253490714,-10,-0.33,0.33,10,35,25,34.67,35.33,45,10,10,10,10
11,20,0.10140859999228269,o,37.8,Unlimited Time,h,13.874921303507232,47.1311028767814,37.82318015342463,41.48356428354838,41.48356428354838,13.874921303507232,47.1311028767814,37.82318015342463,-10,-0.33,0.33,10,35,25,34.67,35.33,45,10,10,10,10
12,1,0.19415040005696937,o,38.9,Limited Time,l,27.78947591814128,33.54769331484146,38.86037494122692,49.24603373587326,27.78947591814128,38.86037494122692,33.54769331484146,49.24603373587326,-10,-0.33,0.33,10,35,25,34.67,35.33,45,3.1622776601683795,3.1622776601683795,3.1622776601683795,3.1622776601683795
12,2,0.16081189998658374,o,27.5,Limited Time,l,22.748056853172525,32.456569110967834,27.484244790901123,45.401871845809296,22.748056853172525,27.484244790901123,32.456569110967834,45.401871845809296,-10,-0.33,0.33,10,35,25,34.67,35.33,45,3.1622776601683795,3.1622776601683795,3.1622776601683795,3.1622776601683795
12,3,0.08620789996348321,o,35.8,Limited Time,l,24.92647033656969,36.40675573470436,35.77846721393405,44.23195478137022,24.92647033656969,35.77846721393405,36.40675573470436,44.23195478137022,-10,-0.33,0.33,10,35,25,34.67,35.33,45,3.1622776601683795,3.1622776601683795,3.1622776601683795,3.1622776601683795
12,4,0.09006000001681969,o,36.2,Limited Time,l,22.16728689428431,32.149031648750814,36.159271120168626,41.11491291178429,22.16728689428431,36.159271120168626,32.149031648750814,41.11491291178429,-10,-0.33,0.33,10,35,25,34.67,35.33,45,3.1622776601683795,3.1622776601683795,3.1622776601683795,3.1622776601683795
12,5,0.09445000003324822,o,34.9,Limited Time,l,23.355775318227046,32.66250089530695,34.929168179191926,47.15813122199993,23.355775318227046,34.929168179191926,32.66250089530695,47.15813122199993,-10,-0.33,0.33,10,35,25,34.67,35.33,45,3.1622776601683795,3.1622776601683795,3.1622776601683795,3.1622776601683795
12,6,0.0985713999834843,o,35.5,Limited Time,l,27.77498035228823,38.473414156063015,35.48077575921707,47.51615416721934,27.77498035228823,35.48077575921707,38.473414156063015,47.51615416721934,-10,-0.33,0.33,10,35,25,34.67,35.33,45,3.1622776601683795,3.1622776601683795,3.1622776601683795,3.1622776601683795
12,7,0.09010939998552203,o,34.4,Limited Time,l,28.18189919555092,38.84790101064496,34.433649266348716,46.71794586523114,28.18189919555092,34.433649266348716,38.84790101064496,46.71794586523114,-10,-0.33,0.33,10,35,25,34.67,35.33,45,3.1622776601683795,3.1622776601683795,3.1622776601683795,3.1622776601683795
12,8,0.08192780002718791,o,37.5,Limited Time,l,26.423193013949902,35.203235240370795,37.500015486762315,47.60199230090408,26.423193013949902,37.500015486762315,35.203235240370795,47.60199230090408,-10,-0.33,0.33,10,35,25,34.67,35.33,45,3.1622776601683795,3.1622776601683795,3.1622776601683795,3.1622776601683795
12,9,0.15416859998367727,p,40.1,Limited Time,l,21.762544210728777,38.852622593655965,31.438018312559375,40.091875817420274,21.762544210728777,31.438018312559375,38.852622593655965,40.091875817420274,-10,-0.33,0.33,10,35,25,34.67,35.33,45,3.1622776601683795,3.1622776601683795,3.1622776601683795,3.1622776601683795
12,10,0.11565150000387803,p,40.8,Limited Time,l,23.055863347178793,37.35827531539389,33.655097361511814,40.830311624730626,23.055863347178793,33.655097361511814,37.35827531539389,40.830311624730626,-10,-0.33,0.33,10,35,25,34.67,35.33,45,3.1622776601683795,3.1622776601683795,3.1622776601683795,3.1622776601683795
12,11,0.11599389999173582,p,50.2,Limited Time,l,33.92314327754387,30.35783585074163,35.60224158511852,50.19361759044042,33.92314327754387,35.60224158511852,30.35783585074163,50.19361759044042,-10,-0.33,0.33,10,35,25,34.67,35.33,45,3.1622776601683795,3.1622776601683795,3.1622776601683795,3.1622776601683795
12,12,0.09017550002317876,p,41.7,Limited Time,l,29.280980394518636,33.2829019994949,38.39325248702207,41.73641744071124,29.280980394518636,38.39325248702207,33.2829019994949,41.73641744071124,-10,-0.33,0.33,10,35,25,34.67,35.33,45,3.1622776601683795,3.1622776601683795,3.1622776601683795,3.1622776601683795
12,13,0.09497930004727095,p,44.0,Limited Time,l,29.757196750707095,30.22194186234987,34.75480948873552,44.010012439232035,29.757196750707095,34.75480948873552,30.22194186234987,44.010012439232035,-10,-0.33,0.33,10,35,25,34.67,35.33,45,3.1622776601683795,3.1622776601683795,3.1622776601683795,3.1622776601683795
12,14,0.08752790000289679,p,42.6,Limited Time,l,19.869104856663434,35.803593884214706,34.58252761753244,42.61409457810415,19.869104856663434,34.58252761753244,35.803593884214706,42.61409457810415,-10,-0.33,0.33,10,35,25,34.67,35.33,45,3.1622776601683795,3.1622776601683795,3.1622776601683795,3.1622776601683795
12,15,0.09119419998023659,p,43.1,Limited Time,l,28.87397497397442,37.28240967716073,32.60477287070379,43.12996379294791,28.87397497397442,32.60477287070379,37.28240967716073,43.12996379294791,-10,-0.33,0.33,10,35,25,34.67,35.33,45,3.1622776601683795,3.1622776601683795,3.1622776601683795,3.1622776601683795
12,16,0.05699170002480969,p,44.0,Limited Time,l,16.199631365372078,34.965145603904375,30.748603994788766,43.97697505612525,16.199631365372078,30.748603994788766,34.965145603904375,43.97697505612525,-10,-0.33,0.33,10,35,25,34.67,35.33,45,3.1622776601683795,3.1622776601683795,3.1622776601683795,3.1622776601683795
12,17,0.0071853999979794025,w,31.4,Limited Time,l,17.474781630524845,31.362185592576175,38.860452741374374,48.07085595993259,17.474781630524845,38.860452741374374,31.362185592576175,48.07085595993259,-10,-0.33,0.33,10,35,25,34.67,35.33,45,3.1622776601683795,3.1622776601683795,3.1622776601683795,3.1622776601683795
12,18,0.13301099999807775,w,31.4,Limited Time,l,22.108724995286202,31.420503161020083,33.64296288713297,45.07294733833529,22.108724995286202,33.64296288713297,31.420503161020083,45.07294733833529,-10,-0.33,0.33,10,35,25,34.67,35.33,45,3.1622776601683795,3.1622776601683795,3.1622776601683795,3.1622776601683795
12,19,0.13007509999442846,w,33.3,Limited Time,l,24.651741208810325,33.309337660520534,32.6763725910784,42.29232598282883,24.651741208810325,32.6763725910784,33.309337660520534,42.29232598282883,-10,-0.33,0.33,10,35,25,34.67,35.33,45,3.1622776601683795,3.1622776601683795,3.1622776601683795,3.1622776601683795
12,20,0.09946110000601038,q,26.6,Limited Time,l,26.608322678290786,34.84570858846333,36.77623920595678,46.716807282097015,26.608322678290786,36.77623920595678,34.84570858846333,46.716807282097015,-10,-0.33,0.33,10,35,25,34.67,35.33,45,3.1622776601683795,3.1622776601683795,3.1622776601683795,3.1622776601683795
13,1,0.2083112999680452,p,33.5,Unlimited Time,l,49.24603373587326,38.86037494122692,27.78947591814128,33.54769331484146,27.78947591814128,38.86037494122692,33.54769331484146,49.24603373587326,-10,-0.33,0.33,10,35,25,34.67,35.33,45,3.1622776601683795,3.1622776601683795,3.1622776601683795,3.1622776601683795
13,2,0.13808980002067983,p,32.5,Unlimited Time,l,45.401871845809296,27.484244790901123,22.748056853172525,32.456569110967834,22.748056853172525,27.484244790901123,32.456569110967834,45.401871845809296,-10,-0.33,0.33,10,35,25,34.67,35.33,45,3.1622776601683795,3.1622776601683795,3.1622776601683795,3.1622776601683795
13,3,0.08350730000529438,p,36.4,Unlimited Time,l,44.23195478137022,35.77846721393405,24.92647033656969,36.40675573470436,24.92647033656969,35.77846721393405,36.40675573470436,44.23195478137022,-10,-0.33,0.33,10,35,25,34.67,35.33,45,3.1622776601683795,3.1622776601683795,3.1622776601683795,3.1622776601683795
13,4,0.1221011999878101,p,32.1,Unlimited Time,l,41.11491291178429,36.159271120168626,22.16728689428431,32.149031648750814,22.16728689428431,36.159271120168626,32.149031648750814,41.11491291178429,-10,-0.33,0.33,10,35,25,34.67,35.33,45,3.1622776601683795,3.1622776601683795,3.1622776601683795,3.1622776601683795
13,5,0.09668670000974089,p,32.7,Unlimited Time,l,47.15813122199993,34.929168179191926,23.355775318227046,32.66250089530695,23.355775318227046,34.929168179191926,32.66250089530695,47.15813122199993,-10,-0.33,0.33,10,35,25,34.67,35.33,45,3.1622776601683795,3.1622776601683795,3.1622776601683795,3.1622776601683795
13,6,0.08023139997385442,p,38.5,Unlimited Time,l,47.51615416721934,35.48077575921707,27.77498035228823,38.473414156063015,27.77498035228823,35.48077575921707,38.473414156063015,47.51615416721934,-10,-0.33,0.33,10,35,25,34.67,35.33,45,3.1622776601683795,3.1622776601683795,3.1622776601683795,3.1622776601683795
13,7,0.0913933000410907,p,38.8,Unlimited Time,l,46.71794586523114,34.433649266348716,28.18189919555092,38.84790101064496,28.18189919555092,34.433649266348716,38.84790101064496,46.71794586523114,-10,-0.33,0.33,10,35,25,34.67,35.33,45,3.1622776601683795,3.1622776601683795,3.1622776601683795,3.1622776601683795
13,8,0.1257884999504313,o,26.4,Unlimited Time,l,47.60199230090408,37.500015486762315,26.423193013949902,35.203235240370795,26.423193013949902,37.500015486762315,35.203235240370795,47.60199230090408,-10,-0.33,0.33,10,35,25,34.67,35.33,45,3.1622776601683795,3.1622776601683795,3.1622776601683795,3.1622776601683795
13,9,0.09988669998710975,o,21.8,Unlimited Time,l,40.091875817420274,31.438018312559375,21.762544210728777,38.852622593655965,21.762544210728777,31.438018312559375,38.852622593655965,40.091875817420274,-10,-0.33,0.33,10,35,25,34.67,35.33,45,3.1622776601683795,3.1622776601683795,3.1622776601683795,3.1622776601683795
13,10,0.133483299985528,o,23.1,Unlimited Time,l,40.830311624730626,33.655097361511814,23.055863347178793,37.35827531539389,23.055863347178793,33.655097361511814,37.35827531539389,40.830311624730626,-10,-0.33,0.33,10,35,25,34.67,35.33,45,3.1622776601683795,3.1622776601683795,3.1622776601683795,3.1622776601683795
13,11,0.14632780000101775,w,35.6,Unlimited Time,l,50.19361759044042,35.60224158511852,33.92314327754387,30.35783585074163,33.92314327754387,35.60224158511852,30.35783585074163,50.19361759044042,-10,-0.33,0.33,10,35,25,34.67,35.33,45,3.1622776601683795,3.1622776601683795,3.1622776601683795,3.1622776601683795
13,12,0.11795280000660568,w,38.4,Unlimited Time,l,41.73641744071124,38.39325248702207,29.280980394518636,33.2829019994949,29.280980394518636,38.39325248702207,33.2829019994949,41.73641744071124,-10,-0.33,0.33,10,35,25,34.67,35.33,45,3.1622776601683795,3.1622776601683795,3.1622776601683795,3.1622776601683795
13,13,0.2555210000136867,q,44.0,Unlimited Time,l,44.010012439232035,34.75480948873552,29.757196750707095,30.22194186234987,29.757196750707095,34.75480948873552,30.22194186234987,44.010012439232035,-10,-0.33,0.33,10,35,25,34.67,35.33,45,3.1622776601683795,3.1622776601683795,3.1622776601683795,3.1622776601683795
13,14,0.12151069997344166,o,19.9,Unlimited Time,l,42.61409457810415,34.58252761753244,19.869104856663434,35.803593884214706,19.869104856663434,34.58252761753244,35.803593884214706,42.61409457810415,-10,-0.33,0.33,10,35,25,34.67,35.33,45,3.1622776601683795,3.1622776601683795,3.1622776601683795,3.1622776601683795
13,15,0.13410650001605973,o,28.9,Unlimited Time,l,43.12996379294791,32.60477287070379,28.87397497397442,37.28240967716073,28.87397497397442,32.60477287070379,37.28240967716073,43.12996379294791,-10,-0.33,0.33,10,35,25,34.67,35.33,45,3.1622776601683795,3.1622776601683795,3.1622776601683795,3.1622776601683795
13,16,0.1304544999729842,p,35.0,Unlimited Time,l,43.97697505612525,30.748603994788766,16.199631365372078,34.965145603904375,16.199631365372078,30.748603994788766,34.965145603904375,43.97697505612525,-10,-0.33,0.33,10,35,25,34.67,35.33,45,3.1622776601683795,3.1622776601683795,3.1622776601683795,3.1622776601683795
13,17,0.14139919995795935,p,31.4,Unlimited Time,l,48.07085595993259,38.860452741374374,17.474781630524845,31.362185592576175,17.474781630524845,38.860452741374374,31.362185592576175,48.07085595993259,-10,-0.33,0.33,10,35,25,34.67,35.33,45,3.1622776601683795,3.1622776601683795,3.1622776601683795,3.1622776601683795
13,18,0.07279560004826635,p,31.4,Unlimited Time,l,45.07294733833529,33.64296288713297,22.108724995286202,31.420503161020083,22.108724995286202,33.64296288713297,31.420503161020083,45.07294733833529,-10,-0.33,0.33,10,35,25,34.67,35.33,45,3.1622776601683795,3.1622776601683795,3.1622776601683795,3.1622776601683795
13,19,0.09676649997709319,p,33.3,Unlimited Time,l,42.29232598282883,32.6763725910784,24.651741208810325,33.309337660520534,24.651741208810325,32.6763725910784,33.309337660520534,42.29232598282883,-10,-0.33,0.33,10,35,25,34.67,35.33,45,3.1622776601683795,3.1622776601683795,3.1622776601683795,3.1622776601683795
13,20,0.08912189997499809,p,34.8,Unlimited Time,l,46.716807282097015,36.77623920595678,26.608322678290786,34.84570858846333,26.608322678290786,36.77623920595678,34.84570858846333,46.716807282097015,-10,-0.33,0.33,10,35,25,34.67,35.33,45,3.1622776601683795,3.1622776601683795,3.1622776601683795,3.1622776601683795
14,1,0.2392139000003226,p,34.4,Limited Time,e,44.27436282433556,30.064799740516847,33.59538810441929,34.413769879704596,33.59538810441929,34.413769879704596,30.064799740516847,44.27436282433556,0,0,0,0,35,35,35,35,35,3.1622776601683795,6.324555320336759,8.366600265340756,10
14,2,0.10639840003568679,p,39.2,Limited Time,e,36.465849573802025,54.060071033198525,35.75046373679935,39.187943246953516,35.75046373679935,39.187943246953516,54.060071033198525,36.465849573802025,0,0,0,0,35,35,35,35,35,3.1622776601683795,6.324555320336759,8.366600265340756,10
14,3,0.09334900003159419,p,31.7,Limited Time,e,38.69519201663304,28.781090084578896,33.61731817949252,31.722223129690924,33.61731817949252,31.722223129690924,28.781090084578896,38.69519201663304,0,0,0,0,35,35,35,35,35,3.1622776601683795,6.324555320336759,8.366600265340756,10
14,4,0.07240569998975843,p,33.6,Limited Time,e,31.080464255766337,25.094556378547423,29.82910001494114,33.64407542776785,29.82910001494114,33.64407542776785,25.094556378547423,31.080464255766337,0,0,0,0,35,35,35,35,35,3.1622776601683795,6.324555320336759,8.366600265340756,10
14,5,0.08109600003808737,p,27.7,Limited Time,e,30.179863330212267,41.4984929240064,33.67422652199511,27.655667741246997,33.67422652199511,27.655667741246997,41.4984929240064,30.179863330212267,0,0,0,0,35,35,35,35,35,3.1622776601683795,6.324555320336759,8.366600265340756,10
14,6,0.08939300000201911,p,36.7,Limited Time,e,54.99893616312055,15.926363259683459,31.023681759904584,36.68289170073787,31.023681759904584,36.68289170073787,15.926363259683459,54.99893616312055,0,0,0,0,35,35,35,35,35,3.1622776601683795,6.324555320336759,8.366600265340756,10
14,7,0.09349160001147538,o,34.5,Limited Time,e,15.951002050524078,30.309165746974873,34.54498858126246,31.719724752214617,34.54498858126246,31.719724752214617,30.309165746974873,15.951002050524078,0,0,0,0,35,35,35,35,35,3.1622776601683795,6.324555320336759,8.366600265340756,10
14,8,0.1230142000131309,o,40.3,Limited Time,e,24.91514897149953,33.45188240191257,40.34722978526774,21.6129211623035,40.34722978526774,21.6129211623035,33.45188240191257,24.91514897149953,0,0,0,0,35,35,35,35,35,3.1622776601683795,6.324555320336759,8.366600265340756,10
14,9,0.10642880003433675,o,35.4,Limited Time,e,18.357205425207955,33.31655053219864,35.36144220273489,43.902371636635394,35.36144220273489,43.902371636635394,33.31655053219864,18.357205425207955,0,0,0,0,35,35,35,35,35,3.1622776601683795,6.324555320336759,8.366600265340756,10
14,10,0.08155369997257367,o,32.5,Limited Time,e,19.88652130280242,14.565509318924608,32.5288960557557,40.89303239575584,32.5288960557557,40.89303239575584,14.565509318924608,19.88652130280242,0,0,0,0,35,35,35,35,35,3.1622776601683795,6.324555320336759,8.366600265340756,10
14,11,0.04002079996280372,w,22.6,Limited Time,e,42.90730938741807,22.593928981187446,35.19443372460657,42.55614256323046,35.19443372460657,42.55614256323046,22.593928981187446,42.90730938741807,0,0,0,0,35,35,35,35,35,3.1622776601683795,6.324555320336759,8.366600265340756,10
14,12,0.12188750004861504,w,43.9,Limited Time,e,24.998778929296634,43.8714443992574,37.517934452976114,25.647763365292224,37.517934452976114,25.647763365292224,43.8714443992574,24.998778929296634,0,0,0,0,35,35,35,35,35,3.1622776601683795,6.324555320336759,8.366600265340756,10
14,13,0.14322239998728037,w,32.8,Limited Time,e,32.345003543950924,32.75750299220033,38.31168853793646,36.89645144122098,38.31168853793646,36.89645144122098,32.75750299220033,32.345003543950924,0,0,0,0,35,35,35,35,35,3.1622776601683795,6.324555320336759,8.366600265340756,10
14,14,0.019238999986555427,q,25.2,Limited Time,e,25.177058332748864,41.078018647924615,33.33438764478754,42.51747337394745,33.33438764478754,42.51747337394745,41.078018647924615,25.177058332748864,0,0,0,0,35,35,35,35,35,3.1622776601683795,6.324555320336759,8.366600265340756,10
14,15,0.15059239999391139,p,28.9,Limited Time,e,30.71291610572395,34.54306999958507,38.56867466267656,28.903566929176264,38.56867466267656,28.903566929176264,34.54306999958507,30.71291610572395,0,0,0,0,35,35,35,35,35,3.1622776601683795,6.324555320336759,8.366600265340756,10
14,16,0.14413600001716986,p,35.4,Limited Time,e,11.042453097750379,36.091628255049066,35.58231677072335,35.41581677350842,35.58231677072335,35.41581677350842,36.091628255049066,11.042453097750379,0,0,0,0,35,35,35,35,35,3.1622776601683795,6.324555320336759,8.366600265340756,10
14,17,0.11210160003975034,p,38.9,Limited Time,e,36.458308186528,44.00798929507666,36.91037475627812,38.86105245511115,36.91037475627812,38.86105245511115,44.00798929507666,36.458308186528,0,0,0,0,35,35,35,35,35,3.1622776601683795,6.324555320336759,8.366600265340756,10
14,18,0.11120009998558089,p,35.7,Limited Time,e,15.390686008663476,22.99222328433649,36.24735691027156,35.734745134847465,36.24735691027156,35.734745134847465,22.99222328433649,15.390686008663476,0,0,0,0,35,35,35,35,35,3.1622776601683795,6.324555320336759,8.366600265340756,10
14,19,0.09976099996129051,p,47.1,Limited Time,e,33.46035964546314,39.39031663167007,39.040576579715434,47.10139268721384,39.040576579715434,47.10139268721384,39.39031663167007,33.46035964546314,0,0,0,0,35,35,35,35,35,3.1622776601683795,6.324555320336759,8.366600265340756,10
14,20,0.09017670003231615,p,27.1,Limited Time,e,39.61895813977769,24.528027316828215,31.580658482002526,27.064167977291685,31.580658482002526,27.064167977291685,24.528027316828215,39.61895813977769,0,0,0,0,35,35,35,35,35,3.1622776601683795,6.324555320336759,8.366600265340756,10
15,1,0.207394800032489,p,30.1,Unlimited Time,e,34.413769879704596,33.59538810441929,44.27436282433556,30.064799740516847,33.59538810441929,34.413769879704596,30.064799740516847,44.27436282433556,0,0,0,0,35,35,35,35,35,3.1622776601683795,6.324555320336759,8.366600265340756,10
15,2,0.12392410001484677,p,54.1,Unlimited Time,e,39.187943246953516,35.75046373679935,36.465849573802025,54.060071033198525,35.75046373679935,39.187943246953516,54.060071033198525,36.465849573802025,0,0,0,0,35,35,35,35,35,3.1622776601683795,6.324555320336759,8.366600265340756,10
15,3,0.12386809999588877,p,28.8,Unlimited Time,e,31.722223129690924,33.61731817949252,38.69519201663304,28.781090084578896,33.61731817949252,31.722223129690924,28.781090084578896,38.69519201663304,0,0,0,0,35,35,35,35,35,3.1622776601683795,6.324555320336759,8.366600265340756,10
15,4,0.16977290000068024,w,29.8,Unlimited Time,e,33.64407542776785,29.82910001494114,31.080464255766337,25.094556378547423,29.82910001494114,33.64407542776785,25.094556378547423,31.080464255766337,0,0,0,0,35,35,35,35,35,3.1622776601683795,6.324555320336759,8.366600265340756,10
15,5,0.09562829998321831,w,33.7,Unlimited Time,e,27.655667741246997,33.67422652199511,30.179863330212267,41.4984929240064,33.67422652199511,27.655667741246997,41.4984929240064,30.179863330212267,0,0,0,0,35,35,35,35,35,3.1622776601683795,6.324555320336759,8.366600265340756,10
15,6,0.10321359999943525,o,55.0,Unlimited Time,e,36.68289170073787,31.023681759904584,54.99893616312055,15.926363259683459,31.023681759904584,36.68289170073787,15.926363259683459,54.99893616312055,0,0,0,0,35,35,35,35,35,3.1622776601683795,6.324555320336759,8.366600265340756,10
15,7,0.12135549995582551,o,16.0,Unlimited Time,e,31.719724752214617,34.54498858126246,15.951002050524078,30.309165746974873,34.54498858126246,31.719724752214617,30.309165746974873,15.951002050524078,0,0,0,0,35,35,35,35,35,3.1622776601683795,6.324555320336759,8.366600265340756,10
15,8,0.10696609999286011,o,24.9,Unlimited Time,e,21.6129211623035,40.34722978526774,24.91514897149953,33.45188240191257,40.34722978526774,21.6129211623035,33.45188240191257,24.91514897149953,0,0,0,0,35,35,35,35,35,3.1622776601683795,6.324555320336759,8.366600265340756,10
15,9,0.09972669999115169,p,33.3,Unlimited Time,e,43.902371636635394,35.36144220273489,18.357205425207955,33.31655053219864,35.36144220273489,43.902371636635394,33.31655053219864,18.357205425207955,0,0,0,0,35,35,35,35,35,3.1622776601683795,6.324555320336759,8.366600265340756,10
15,10,0.13357870001345873,p,14.6,Unlimited Time,e,40.89303239575584,32.5288960557557,19.88652130280242,14.565509318924608,32.5288960557557,40.89303239575584,14.565509318924608,19.88652130280242,0,0,0,0,35,35,35,35,35,3.1622776601683795,6.324555320336759,8.366600265340756,10
15,11,0.14663490001112223,p,22.6,Unlimited Time,e,42.55614256323046,35.19443372460657,42.90730938741807,22.593928981187446,35.19443372460657,42.55614256323046,22.593928981187446,42.90730938741807,0,0,0,0,35,35,35,35,35,3.1622776601683795,6.324555320336759,8.366600265340756,10
15,12,0.11642769997706637,p,43.9,Unlimited Time,e,25.647763365292224,37.517934452976114,24.998778929296634,43.8714443992574,37.517934452976114,25.647763365292224,43.8714443992574,24.998778929296634,0,0,0,0,35,35,35,35,35,3.1622776601683795,6.324555320336759,8.366600265340756,10
15,13,0.23296900000423193,q,36.9,Unlimited Time,e,36.89645144122098,38.31168853793646,32.345003543950924,32.75750299220033,38.31168853793646,36.89645144122098,32.75750299220033,32.345003543950924,0,0,0,0,35,35,35,35,35,3.1622776601683795,6.324555320336759,8.366600265340756,10
15,14,0.02185650001047179,p,41.1,Unlimited Time,e,42.51747337394745,33.33438764478754,25.177058332748864,41.078018647924615,33.33438764478754,42.51747337394745,41.078018647924615,25.177058332748864,0,0,0,0,35,35,35,35,35,3.1622776601683795,6.324555320336759,8.366600265340756,10
15,15,0.1214633000199683,q,28.9,Unlimited Time,e,28.903566929176264,38.56867466267656,30.71291610572395,34.54306999958507,38.56867466267656,28.903566929176264,34.54306999958507,30.71291610572395,0,0,0,0,35,35,35,35,35,3.1622776601683795,6.324555320336759,8.366600265340756,10
15,16,0.09513229998992756,o,11.0,Unlimited Time,e,35.41581677350842,35.58231677072335,11.042453097750379,36.091628255049066,35.58231677072335,35.41581677350842,36.091628255049066,11.042453097750379,0,0,0,0,35,35,35,35,35,3.1622776601683795,6.324555320336759,8.366600265340756,10
15,17,0.004742800025269389,w,36.9,Unlimited Time,e,38.86105245511115,36.91037475627812,36.458308186528,44.00798929507666,36.91037475627812,38.86105245511115,44.00798929507666,36.458308186528,0,0,0,0,35,35,35,35,35,3.1622776601683795,6.324555320336759,8.366600265340756,10
15,18,0.02107710001291707,w,36.2,Unlimited Time,e,35.734745134847465,36.24735691027156,15.390686008663476,22.99222328433649,36.24735691027156,35.734745134847465,22.99222328433649,15.390686008663476,0,0,0,0,35,35,35,35,35,3.1622776601683795,6.324555320336759,8.366600265340756,10
15,19,0.12066170002799481,o,33.5,Unlimited Time,e,47.10139268721384,39.040576579715434,33.46035964546314,39.39031663167007,39.040576579715434,47.10139268721384,39.39031663167007,33.46035964546314,0,0,0,0,35,35,35,35,35,3.1622776601683795,6.324555320336759,8.366600265340756,10
15,20,0.10901690000900999,o,39.6,Unlimited Time,e,27.064167977291685,31.580658482002526,39.61895813977769,24.528027316828215,31.580658482002526,27.064167977291685,24.528027316828215,39.61895813977769,0,0,0,0,35,35,35,35,35,3.1622776601683795,6.324555320336759,8.366600265340756,10
16,1,0.21664729999611154,o,27.8,Limited Time,l,33.54769331484146,49.24603373587326,27.78947591814128,38.86037494122692,27.78947591814128,38.86037494122692,33.54769331484146,49.24603373587326,-10,-0.33,0.33,10,35,25,34.67,35.33,45,3.1622776601683795,3.1622776601683795,3.1622776601683795,3.1622776601683795
16,2,0.005464899993967265,w,45.4,Limited Time,l,32.456569110967834,45.401871845809296,22.748056853172525,27.484244790901123,22.748056853172525,27.484244790901123,32.456569110967834,45.401871845809296,-10,-0.33,0.33,10,35,25,34.67,35.33,45,3.1622776601683795,3.1622776601683795,3.1622776601683795,3.1622776601683795
16,3,0.10565320000750944,w,44.2,Limited Time,l,36.40675573470436,44.23195478137022,24.92647033656969,35.77846721393405,24.92647033656969,35.77846721393405,36.40675573470436,44.23195478137022,-10,-0.33,0.33,10,35,25,34.67,35.33,45,3.1622776601683795,3.1622776601683795,3.1622776601683795,3.1622776601683795
16,4,0.10543340002186596,w,41.1,Limited Time,l,32.149031648750814,41.11491291178429,22.16728689428431,36.159271120168626,22.16728689428431,36.159271120168626,32.149031648750814,41.11491291178429,-10,-0.33,0.33,10,35,25,34.67,35.33,45,3.1622776601683795,3.1622776601683795,3.1622776601683795,3.1622776601683795
16,5,0.11760080000385642,w,47.2,Limited Time,l,32.66250089530695,47.15813122199993,23.355775318227046,34.929168179191926,23.355775318227046,34.929168179191926,32.66250089530695,47.15813122199993,-10,-0.33,0.33,10,35,25,34.67,35.33,45,3.1622776601683795,3.1622776601683795,3.1622776601683795,3.1622776601683795
16,6,0.07612460001837462,w,47.5,Limited Time,l,38.473414156063015,47.51615416721934,27.77498035228823,35.48077575921707,27.77498035228823,35.48077575921707,38.473414156063015,47.51615416721934,-10,-0.33,0.33,10,35,25,34.67,35.33,45,3.1622776601683795,3.1622776601683795,3.1622776601683795,3.1622776601683795
16,7,0.12167919997591525,w,46.7,Limited Time,l,38.84790101064496,46.71794586523114,28.18189919555092,34.433649266348716,28.18189919555092,34.433649266348716,38.84790101064496,46.71794586523114,-10,-0.33,0.33,10,35,25,34.67,35.33,45,3.1622776601683795,3.1622776601683795,3.1622776601683795,3.1622776601683795
16,8,0.08003949996782467,w,47.6,Limited Time,l,35.203235240370795,47.60199230090408,26.423193013949902,37.500015486762315,26.423193013949902,37.500015486762315,35.203235240370795,47.60199230090408,-10,-0.33,0.33,10,35,25,34.67,35.33,45,3.1622776601683795,3.1622776601683795,3.1622776601683795,3.1622776601683795
16,9,0.1506037000217475,p,31.4,Limited Time,l,38.852622593655965,40.091875817420274,21.762544210728777,31.438018312559375,21.762544210728777,31.438018312559375,38.852622593655965,40.091875817420274,-10,-0.33,0.33,10,35,25,34.67,35.33,45,3.1622776601683795,3.1622776601683795,3.1622776601683795,3.1622776601683795
16,10,0.1009425999945961,p,33.7,Limited Time,l,37.35827531539389,40.830311624730626,23.055863347178793,33.655097361511814,23.055863347178793,33.655097361511814,37.35827531539389,40.830311624730626,-10,-0.33,0.33,10,35,25,34.67,35.33,45,3.1622776601683795,3.1622776601683795,3.1622776601683795,3.1622776601683795
16,11,0.08830180001677945,p,35.6,Limited Time,l,30.35783585074163,50.19361759044042,33.92314327754387,35.60224158511852,33.92314327754387,35.60224158511852,30.35783585074163,50.19361759044042,-10,-0.33,0.33,10,35,25,34.67,35.33,45,3.1622776601683795,3.1622776601683795,3.1622776601683795,3.1622776601683795
16,12,0.018430900003295392,q,33.3,Limited Time,l,33.2829019994949,41.73641744071124,29.280980394518636,38.39325248702207,29.280980394518636,38.39325248702207,33.2829019994949,41.73641744071124,-10,-0.33,0.33,10,35,25,34.67,35.33,45,3.1622776601683795,3.1622776601683795,3.1622776601683795,3.1622776601683795
16,13,0.15097179997246712,q,30.2,Limited Time,l,30.22194186234987,44.010012439232035,29.757196750707095,34.75480948873552,29.757196750707095,34.75480948873552,30.22194186234987,44.010012439232035,-10,-0.33,0.33,10,35,25,34.67,35.33,45,3.1622776601683795,3.1622776601683795,3.1622776601683795,3.1622776601683795
16,14,0.13981359999161214,q,35.8,Limited Time,l,35.803593884214706,42.61409457810415,19.869104856663434,34.58252761753244,19.869104856663434,34.58252761753244,35.803593884214706,42.61409457810415,-10,-0.33,0.33,10,35,25,34.67,35.33,45,3.1622776601683795,3.1622776601683795,3.1622776601683795,3.1622776601683795
16,15,0.06792989996029064,o,28.9,Limited Time,l,37.28240967716073,43.12996379294791,28.87397497397442,32.60477287070379,28.87397497397442,32.60477287070379,37.28240967716073,43.12996379294791,-10,-0.33,0.33,10,35,25,34.67,35.33,45,3.1622776601683795,3.1622776601683795,3.1622776601683795,3.1622776601683795
16,16,0.10124570003245026,o,16.2,Limited Time,l,34.965145603904375,43.97697505612525,16.199631365372078,30.748603994788766,16.199631365372078,30.748603994788766,34.965145603904375,43.97697505612525,-10,-0.33,0.33,10,35,25,34.67,35.33,45,3.1622776601683795,3.1622776601683795,3.1622776601683795,3.1622776601683795
16,17,0.10190960002364591,o,17.5,Limited Time,l,31.362185592576175,48.07085595993259,17.474781630524845,38.860452741374374,17.474781630524845,38.860452741374374,31.362185592576175,48.07085595993259,-10,-0.33,0.33,10,35,25,34.67,35.33,45,3.1622776601683795,3.1622776601683795,3.1622776601683795,3.1622776601683795
16,18,0.03957710001850501,w,45.1,Limited Time,l,31.420503161020083,45.07294733833529,22.108724995286202,33.64296288713297,22.108724995286202,33.64296288713297,31.420503161020083,45.07294733833529,-10,-0.33,0.33,10,35,25,34.67,35.33,45,3.1622776601683795,3.1622776601683795,3.1622776601683795,3.1622776601683795
16,19,0.15587240003515035,w,42.3,Limited Time,l,33.309337660520534,42.29232598282883,24.651741208810325,32.6763725910784,24.651741208810325,32.6763725910784,33.309337660520534,42.29232598282883,-10,-0.33,0.33,10,35,25,34.67,35.33,45,3.1622776601683795,3.1622776601683795,3.1622776601683795,3.1622776601683795
16,20,0.14291339996270835,w,46.7,Limited Time,l,34.84570858846333,46.716807282097015,26.608322678290786,36.77623920595678,26.608322678290786,36.77623920595678,34.84570858846333,46.716807282097015,-10,-0.33,0.33,10,35,25,34.67,35.33,45,3.1622776601683795,3.1622776601683795,3.1622776601683795,3.1622776601683795
