Round Number,Trial Number,Reaction Time,Choice,Reward,Time Condition,Payoff Condition,Q mapped,W mapped,O mapped,P mapped,One value,Two value,Three value,Four value,One mean,Two mean,Three mean,Four mean,Mean Shift,One shifted mean,Two shifted mean,Three shifted mean,Four shifted mean,One SD,Two SD,Three SD,Four SD
1,1,0.3123877000180073,q,59.2,Unlimited Time,i,59.2297783633396,70.2344342192917,72.8613873271142,44.502540659121074,44.502540659121074,59.2297783633396,70.2344342192917,72.8613873271142,-10,-10,10,10,54,44,44,64,64,3.1622776601683795,10,3.1622776601683795,10
1,2,0.2366626999573782,w,62.1,Unlimited Time,i,52.27340501664413,62.08657410949119,67.81544421412016,40.349038292976715,40.349038292976715,52.27340501664413,62.08657410949119,67.81544421412016,-10,-10,10,10,54,44,44,64,64,3.1622776601683795,10,3.1622776601683795,10
1,3,0.23217130004195496,o,47.9,Unlimited Time,i,63.13114765586103,64.12098507715235,47.86712806100873,42.09723740751581,42.09723740751581,63.13114765586103,64.12098507715235,47.86712806100873,-10,-10,10,10,54,44,44,64,64,3.1622776601683795,10,3.1622776601683795,10
1,4,0.20743289997335523,p,44.7,Unlimited Time,i,28.0787138707568,63.118243446351435,68.89536142336948,44.68116894190515,44.68116894190515,28.0787138707568,63.118243446351435,68.89536142336948,-10,-10,10,10,54,44,44,64,64,3.1622776601683795,10,3.1622776601683795,10
1,5,0.36203870002646,q,40.5,Unlimited Time,i,40.50426047298983,68.40392027395174,60.129015169824214,46.46185724844552,46.46185724844552,40.50426047298983,68.40392027395174,60.129015169824214,-10,-10,10,10,54,44,44,64,64,3.1622776601683795,10,3.1622776601683795,10
1,6,0.2497315999935381,w,64.6,Unlimited Time,i,41.18659821687336,64.62987097486126,51.06549113986095,42.678618409620896,42.678618409620896,41.18659821687336,64.62987097486126,51.06549113986095,-10,-10,10,10,54,44,44,64,64,3.1622776601683795,10,3.1622776601683795,10
1,7,0.22012710000853986,o,53.3,Unlimited Time,i,41.32852456135256,65.92364412822543,53.25419941433155,48.09652464945086,48.09652464945086,41.32852456135256,65.92364412822543,53.25419941433155,-10,-10,10,10,54,44,44,64,64,3.1622776601683795,10,3.1622776601683795,10
1,8,0.20778229995630682,p,45.3,Unlimited Time,i,58.282608831796495,67.74083897433468,49.8339785667339,45.2641408242477,45.2641408242477,58.282608831796495,67.74083897433468,49.8339785667339,-10,-10,10,10,54,44,44,64,64,3.1622776601683795,10,3.1622776601683795,10
1,9,0.32453220000024885,q,52.4,Unlimited Time,i,52.36270693956282,58.200095891644466,47.56783328156098,48.42199890022373,48.42199890022373,52.36270693956282,58.200095891644466,47.56783328156098,-10,-10,10,10,54,44,44,64,64,3.1622776601683795,10,3.1622776601683795,10
1,10,0.23812279995763674,w,62.2,Unlimited Time,i,37.9856859393803,62.198501794870474,51.03526949250589,46.17026890063563,46.17026890063563,37.9856859393803,62.198501794870474,51.03526949250589,-10,-10,10,10,54,44,44,64,64,3.1622776601683795,10,3.1622776601683795,10
1,11,0.1326328999712132,o,63.3,Unlimited Time,i,36.98625952501776,65.2011419716564,63.27229694341661,44.95005291244839,44.95005291244839,36.98625952501776,65.2011419716564,63.27229694341661,-10,-10,10,10,54,44,44,64,64,3.1622776601683795,10,3.1622776601683795,10
1,12,0.1078121000318788,p,44.5,Unlimited Time,i,70.08028055239225,55.62347101386009,58.57608418079955,44.53478385385076,44.53478385385076,70.08028055239225,55.62347101386009,58.57608418079955,-10,-10,10,10,54,44,44,64,64,3.1622776601683795,10,3.1622776601683795,10
1,13,0.13786760001676157,q,40.0,Unlimited Time,i,40.018419209975725,62.39969520969737,53.88502728023238,44.09411764579424,44.09411764579424,40.018419209975725,62.39969520969737,53.88502728023238,-10,-10,10,10,54,44,44,64,64,3.1622776601683795,10,3.1622776601683795,10
1,14,0.15735669998684898,w,59.6,Unlimited Time,i,32.2654648528928,59.5807357421373,70.02939416517307,47.275226435447216,47.275226435447216,32.2654648528928,59.5807357421373,70.02939416517307,-10,-10,10,10,54,44,44,64,64,3.1622776601683795,10,3.1622776601683795,10
1,15,0.13826959999278188,o,50.6,Unlimited Time,i,37.750930379954625,59.801051804536165,50.57260101569783,47.88771698103841,47.88771698103841,37.750930379954625,59.801051804536165,50.57260101569783,-10,-10,10,10,54,44,44,64,64,3.1622776601683795,10,3.1622776601683795,10
1,16,0.1824549000011757,p,43.8,Unlimited Time,i,65.83604545001297,65.14310725802123,58.53179481671883,43.84549802298278,43.84549802298278,65.83604545001297,65.14310725802123,58.53179481671883,-10,-10,10,10,54,44,44,64,64,3.1622776601683795,10,3.1622776601683795,10
1,17,0.19569969997974113,q,55.9,Unlimited Time,i,55.85663155434213,64.82966585841606,73.68588566971184,46.30420625766824,46.30420625766824,55.85663155434213,64.82966585841606,73.68588566971184,-10,-10,10,10,54,44,44,64,64,3.1622776601683795,10,3.1622776601683795,10
1,18,0.15519209997728467,w,67.2,Unlimited Time,i,46.39823459588004,67.16134806159093,65.68892409622579,49.465116629645465,49.465116629645465,46.39823459588004,67.16134806159093,65.68892409622579,-10,-10,10,10,54,44,44,64,64,3.1622776601683795,10,3.1622776601683795,10
1,19,0.12064799998188391,o,62.4,Unlimited Time,i,33.99718379141218,65.13224304996747,62.41823469676309,39.388510961055445,39.388510961055445,33.99718379141218,65.13224304996747,62.41823469676309,-10,-10,10,10,54,44,44,64,64,3.1622776601683795,10,3.1622776601683795,10
1,20,0.20866249996470287,p,43.1,Unlimited Time,i,42.16932788470483,60.565552040616254,75.52706551763339,43.14378700404761,43.14378700404761,42.16932788470483,60.565552040616254,75.52706551763339,-10,-10,10,10,54,44,44,64,64,3.1622776601683795,10,3.1622776601683795,10
2,1,,,0.0,Limited Time,l,68.39369865047684,55.39431312144205,44.69760139911731,50.10090197000972,44.69760139911731,55.39431312144205,50.10090197000972,68.39369865047684,-10,-0.33,0.33,10,54,44,53.67,54.33,64,3.1622776601683795,3.1622776601683795,3.1622776601683795,3.1622776601683795
2,2,0.2921593000064604,w,50.8,Limited Time,l,62.45179974781436,50.7682744410921,48.511684683272755,54.6521512901729,48.511684683272755,50.7682744410921,54.6521512901729,62.45179974781436,-10,-0.33,0.33,10,54,44,53.67,54.33,64,3.1622776601683795,3.1622776601683795,3.1622776601683795,3.1622776601683795
2,3,0.19730150001123548,o,45.2,Limited Time,l,61.69800231028729,52.57922901490742,45.22756518899374,52.186192269925456,45.22756518899374,52.57922901490742,52.186192269925456,61.69800231028729,-10,-0.33,0.33,10,54,44,53.67,54.33,64,3.1622776601683795,3.1622776601683795,3.1622776601683795,3.1622776601683795
2,4,0.18876709998585284,p,51.8,Limited Time,l,70.66578870082523,51.94753067400972,40.86024034842812,51.77841165971519,40.86024034842812,51.94753067400972,51.77841165971519,70.66578870082523,-10,-0.33,0.33,10,54,44,53.67,54.33,64,3.1622776601683795,3.1622776601683795,3.1622776601683795,3.1622776601683795
2,5,0.24225019995355979,q,68.6,Limited Time,l,68.56171088760985,54.925508989980784,45.3558533936012,59.125663905720074,45.3558533936012,54.925508989980784,59.125663905720074,68.56171088760985,-10,-0.33,0.33,10,54,44,53.67,54.33,64,3.1622776601683795,3.1622776601683795,3.1622776601683795,3.1622776601683795
2,6,0.23318469995865598,w,49.5,Limited Time,l,68.63256424400292,49.50310949674758,47.821317686881436,57.38965613751475,47.821317686881436,49.50310949674758,57.38965613751475,68.63256424400292,-10,-0.33,0.33,10,54,44,53.67,54.33,64,3.1622776601683795,3.1622776601683795,3.1622776601683795,3.1622776601683795
2,7,0.19265280000399798,o,46.0,Limited Time,l,64.81232344701496,56.51341472537707,46.00063431480557,60.695354494576684,46.00063431480557,56.51341472537707,60.695354494576684,64.81232344701496,-10,-0.33,0.33,10,54,44,53.67,54.33,64,3.1622776601683795,3.1622776601683795,3.1622776601683795,3.1622776601683795
2,8,0.19751099997665733,p,61.2,Limited Time,l,60.33503218483017,59.436442650421505,42.906232588014774,61.24026555369278,42.906232588014774,59.436442650421505,61.24026555369278,60.33503218483017,-10,-0.33,0.33,10,54,44,53.67,54.33,64,3.1622776601683795,3.1622776601683795,3.1622776601683795,3.1622776601683795
2,9,0.13879860000452027,q,67.8,Limited Time,l,67.79678798003721,54.629127043140215,43.89059284508986,57.88664990959963,43.89059284508986,54.629127043140215,57.88664990959963,67.79678798003721,-10,-0.33,0.33,10,54,44,53.67,54.33,64,3.1622776601683795,3.1622776601683795,3.1622776601683795,3.1622776601683795
2,10,0.14306640002178028,q,61.1,Limited Time,l,61.12235325309351,53.9644901447273,44.19103512943785,52.46925148241261,44.19103512943785,53.9644901447273,52.46925148241261,61.12235325309351,-10,-0.33,0.33,10,54,44,53.67,54.33,64,3.1622776601683795,3.1622776601683795,3.1622776601683795,3.1622776601683795
2,11,0.17198679997818545,q,69.3,Limited Time,l,69.346379406207,55.21214706813559,43.247486822000994,54.414740926016854,43.247486822000994,55.21214706813559,54.414740926016854,69.346379406207,-10,-0.33,0.33,10,54,44,53.67,54.33,64,3.1622776601683795,3.1622776601683795,3.1622776601683795,3.1622776601683795
2,12,0.054954999999608845,q,64.2,Limited Time,l,64.21427493177126,56.06878982873325,49.58067969048513,46.838707851989206,49.58067969048513,56.06878982873325,46.838707851989206,64.21427493177126,-10,-0.33,0.33,10,54,44,53.67,54.33,64,3.1622776601683795,3.1622776601683795,3.1622776601683795,3.1622776601683795
2,13,0.1420102000120096,q,58.4,Limited Time,l,58.41259391097687,53.148319381917204,49.17123901897971,52.272025319051345,49.17123901897971,53.148319381917204,52.272025319051345,58.41259391097687,-10,-0.33,0.33,10,54,44,53.67,54.33,64,3.1622776601683795,3.1622776601683795,3.1622776601683795,3.1622776601683795
2,14,0.1473132999963127,q,56.9,Limited Time,l,56.92882047237895,53.45227973284512,46.22047910833484,54.61727796856731,46.22047910833484,53.45227973284512,54.61727796856731,56.92882047237895,-10,-0.33,0.33,10,54,44,53.67,54.33,64,3.1622776601683795,3.1622776601683795,3.1622776601683795,3.1622776601683795
2,15,0.1391038000001572,q,63.8,Limited Time,l,63.77668176061194,52.31468852895241,45.75438151678916,55.814776797278675,45.75438151678916,52.31468852895241,55.814776797278675,63.77668176061194,-10,-0.33,0.33,10,54,44,53.67,54.33,64,3.1622776601683795,3.1622776601683795,3.1622776601683795,3.1622776601683795
2,16,0.08005579997552559,q,66.6,Limited Time,l,66.63578624136821,56.78392953633747,45.63543669213867,53.859216142715056,45.63543669213867,56.78392953633747,53.859216142715056,66.63578624136821,-10,-0.33,0.33,10,54,44,53.67,54.33,64,3.1622776601683795,3.1622776601683795,3.1622776601683795,3.1622776601683795
2,17,0.1012701999861747,q,67.9,Limited Time,l,67.87585150595129,50.68826277543698,45.427321669188665,51.188537013465506,45.427321669188665,50.68826277543698,51.188537013465506,67.87585150595129,-10,-0.33,0.33,10,54,44,53.67,54.33,64,3.1622776601683795,3.1622776601683795,3.1622776601683795,3.1622776601683795
2,18,0.12707499996758997,q,69.3,Limited Time,l,69.27159986690812,54.5727644288363,44.20358450443156,58.95373375268081,44.20358450443156,54.5727644288363,58.95373375268081,69.27159986690812,-10,-0.33,0.33,10,54,44,53.67,54.33,64,3.1622776601683795,3.1622776601683795,3.1622776601683795,3.1622776601683795
2,19,0.02240190003067255,q,61.4,Limited Time,l,61.42146772756906,53.163716063114194,43.98433715675675,57.7186504354243,43.98433715675675,53.163716063114194,57.7186504354243,61.42146772756906,-10,-0.33,0.33,10,54,44,53.67,54.33,64,3.1622776601683795,3.1622776601683795,3.1622776601683795,3.1622776601683795
2,20,0.05606569995870814,q,64.2,Limited Time,l,64.2186490443425,52.923702492418435,48.12165447107,52.45186639799198,48.12165447107,52.923702492418435,52.45186639799198,64.2186490443425,-10,-0.33,0.33,10,54,44,53.67,54.33,64,3.1622776601683795,3.1622776601683795,3.1622776601683795,3.1622776601683795
3,1,0.42767710000043735,q,61.9,Unlimited Time,e,61.9349549666767,51.434459306717656,54.7772286063217,61.33750793963492,51.434459306717656,61.9349549666767,54.7772286063217,61.33750793963492,0,0,0,0,54,54,54,54,54,3.1622776601683795,6.324555320336759,8.366600265340756,10
3,2,0.16484839998884127,w,54.3,Unlimited Time,e,49.85616396805996,54.32440719742532,59.01343202041274,60.93981637512652,54.32440719742532,49.85616396805996,59.01343202041274,60.93981637512652,0,0,0,0,54,54,54,54,54,3.1622776601683795,6.324555320336759,8.366600265340756,10
3,3,0.16928610001923516,o,50.6,Unlimited Time,e,52.897358405171005,53.57243122272745,50.62226774043485,61.78931658990848,53.57243122272745,52.897358405171005,50.62226774043485,61.78931658990848,0,0,0,0,54,54,54,54,54,3.1622776601683795,6.324555320336759,8.366600265340756,10
3,4,0.11957979999715462,p,44.0,Unlimited Time,e,50.442757089393986,55.0895235673631,33.28575431506434,43.97794094284771,55.0895235673631,50.442757089393986,33.28575431506434,43.97794094284771,0,0,0,0,54,54,54,54,54,3.1622776601683795,6.324555320336759,8.366600265340756,10
3,5,0.10141139995539561,q,59.9,Unlimited Time,e,59.942810017630414,51.16572620939649,54.29293356315593,68.4078829472501,51.16572620939649,59.942810017630414,54.29293356315593,68.4078829472501,0,0,0,0,54,54,54,54,54,3.1622776601683795,6.324555320336759,8.366600265340756,10
3,6,0.16839840001193807,w,54.4,Unlimited Time,e,57.393700189146536,54.43310172886701,63.42725450574265,42.84247871939727,54.43310172886701,57.393700189146536,63.42725450574265,42.84247871939727,0,0,0,0,54,54,54,54,54,3.1622776601683795,6.324555320336759,8.366600265340756,10
3,7,0.00689840002451092,o,55.3,Unlimited Time,e,54.47846765210366,55.9441222073417,55.32468290936897,56.773858519206094,55.9441222073417,54.47846765210366,55.32468290936897,56.773858519206094,0,0,0,0,54,54,54,54,54,3.1622776601683795,6.324555320336759,8.366600265340756,10
3,8,0.1607808000408113,q,64.8,Unlimited Time,e,64.82863164905191,51.570519014358304,46.14559450726795,53.33550472341652,51.570519014358304,64.82863164905191,46.14559450726795,53.33550472341652,0,0,0,0,54,54,54,54,54,3.1622776601683795,6.324555320336759,8.366600265340756,10
3,9,0.1031566999736242,p,51.4,Unlimited Time,e,46.88449302603366,57.06237613375034,55.80368079556695,51.41104685313018,57.06237613375034,46.88449302603366,55.80368079556695,51.41104685313018,0,0,0,0,54,54,54,54,54,3.1622776601683795,6.324555320336759,8.366600265340756,10
3,10,0.09402669995324686,w,50.2,Unlimited Time,e,57.55916389517467,50.237446782170096,47.14367155344127,45.99807174083269,50.237446782170096,57.55916389517467,47.14367155344127,45.99807174083269,0,0,0,0,54,54,54,54,54,3.1622776601683795,6.324555320336759,8.366600265340756,10
3,11,0.003861200006213039,o,58.2,Unlimited Time,e,47.53340049437749,50.89274646589142,58.19415135920574,42.83277058280109,50.89274646589142,47.53340049437749,58.19415135920574,42.83277058280109,0,0,0,0,54,54,54,54,54,3.1622776601683795,6.324555320336759,8.366600265340756,10
3,12,0.1071284000063315,q,60.9,Unlimited Time,e,60.89505546356313,52.999307406274866,67.99527682433339,56.470442147059345,52.999307406274866,60.89505546356313,67.99527682433339,56.470442147059345,0,0,0,0,54,54,54,54,54,3.1622776601683795,6.324555320336759,8.366600265340756,10
3,13,0.3737991999951191,w,58.2,Unlimited Time,e,48.81884620307252,58.185707987072895,58.19576468381404,39.64702453584708,58.185707987072895,48.81884620307252,58.19576468381404,39.64702453584708,0,0,0,0,54,54,54,54,54,3.1622776601683795,6.324555320336759,8.366600265340756,10
3,14,0.04900679999263957,o,32.2,Unlimited Time,e,46.112202861413515,55.379941534244466,32.18680266176774,56.52309642008432,55.379941534244466,46.112202861413515,32.18680266176774,56.52309642008432,0,0,0,0,54,54,54,54,54,3.1622776601683795,6.324555320336759,8.366600265340756,10
3,15,0.0818427000194788,q,59.2,Unlimited Time,e,59.189181046335364,55.876428785517575,56.303828305799854,53.033448474923766,55.876428785517575,59.189181046335364,56.303828305799854,53.033448474923766,0,0,0,0,54,54,54,54,54,3.1622776601683795,6.324555320336759,8.366600265340756,10
3,16,0.3448385000228882,w,51.0,Unlimited Time,e,49.93226240481921,50.98652120331665,53.42163583424517,57.00724758076867,50.98652120331665,49.93226240481921,53.42163583424517,57.00724758076867,0,0,0,0,54,54,54,54,54,3.1622776601683795,6.324555320336759,8.366600265340756,10
3,17,0.3910493000294082,q,53.6,Unlimited Time,e,53.60445320019274,59.20807603479897,39.9563204929003,53.754295291361345,59.20807603479897,53.60445320019274,39.9563204929003,53.754295291361345,0,0,0,0,54,54,54,54,54,3.1622776601683795,6.324555320336759,8.366600265340756,10
3,18,0.3880873000016436,w,55.7,Unlimited Time,e,44.326861262727505,55.671163382678934,45.57770149610231,54.27472707148374,55.671163382678934,44.326861262727505,45.57770149610231,54.27472707148374,0,0,0,0,54,54,54,54,54,3.1622776601683795,6.324555320336759,8.366600265340756,10
3,19,0.37148910004179925,q,42.6,Unlimited Time,e,42.58684607541167,55.55582600329808,58.67348743817081,63.04247213708867,55.55582600329808,42.58684607541167,58.67348743817081,63.04247213708867,0,0,0,0,54,54,54,54,54,3.1622776601683795,6.324555320336759,8.366600265340756,10
3,20,0.24664450000273064,w,52.5,Unlimited Time,e,48.64866027090167,52.480213545947336,54.17040261145671,75.41576441915167,52.480213545947336,48.64866027090167,54.17040261145671,75.41576441915167,0,0,0,0,54,54,54,54,54,3.1622776601683795,6.324555320336759,8.366600265340756,10
4,1,0.3079728999873623,q,68.4,Limited Time,l,68.39369865047684,55.39431312144205,44.69760139911731,50.10090197000972,44.69760139911731,55.39431312144205,50.10090197000972,68.39369865047684,-10,-0.33,0.33,10,54,44,53.67,54.33,64,3.1622776601683795,3.1622776601683795,3.1622776601683795,3.1622776601683795
4,2,0.0328324000001885,w,50.8,Limited Time,l,62.45179974781436,50.7682744410921,48.511684683272755,54.6521512901729,48.511684683272755,50.7682744410921,54.6521512901729,62.45179974781436,-10,-0.33,0.33,10,54,44,53.67,54.33,64,3.1622776601683795,3.1622776601683795,3.1622776601683795,3.1622776601683795
4,3,0.3666207999922335,p,52.2,Limited Time,l,61.69800231028729,52.57922901490742,45.22756518899374,52.186192269925456,45.22756518899374,52.57922901490742,52.186192269925456,61.69800231028729,-10,-0.33,0.33,10,54,44,53.67,54.33,64,3.1622776601683795,3.1622776601683795,3.1622776601683795,3.1622776601683795
4,4,0.02942340000299737,q,70.7,Limited Time,l,70.66578870082523,51.94753067400972,40.86024034842812,51.77841165971519,40.86024034842812,51.94753067400972,51.77841165971519,70.66578870082523,-10,-0.33,0.33,10,54,44,53.67,54.33,64,3.1622776601683795,3.1622776601683795,3.1622776601683795,3.1622776601683795
4,5,0.013191199977882206,w,54.9,Limited Time,l,68.56171088760985,54.925508989980784,45.3558533936012,59.125663905720074,45.3558533936012,54.925508989980784,59.125663905720074,68.56171088760985,-10,-0.33,0.33,10,54,44,53.67,54.33,64,3.1622776601683795,3.1622776601683795,3.1622776601683795,3.1622776601683795
4,6,0.25026179995620623,p,57.4,Limited Time,l,68.63256424400292,49.50310949674758,47.821317686881436,57.38965613751475,47.821317686881436,49.50310949674758,57.38965613751475,68.63256424400292,-10,-0.33,0.33,10,54,44,53.67,54.33,64,3.1622776601683795,3.1622776601683795,3.1622776601683795,3.1622776601683795
4,7,0.08107640000525862,q,64.8,Limited Time,l,64.81232344701496,56.51341472537707,46.00063431480557,60.695354494576684,46.00063431480557,56.51341472537707,60.695354494576684,64.81232344701496,-10,-0.33,0.33,10,54,44,53.67,54.33,64,3.1622776601683795,3.1622776601683795,3.1622776601683795,3.1622776601683795
4,8,0.32495229999767616,o,42.9,Limited Time,l,60.33503218483017,59.436442650421505,42.906232588014774,61.24026555369278,42.906232588014774,59.436442650421505,61.24026555369278,60.33503218483017,-10,-0.33,0.33,10,54,44,53.67,54.33,64,3.1622776601683795,3.1622776601683795,3.1622776601683795,3.1622776601683795
4,9,,,0.0,Limited Time,l,67.79678798003721,54.629127043140215,43.89059284508986,57.88664990959963,43.89059284508986,54.629127043140215,57.88664990959963,67.79678798003721,-10,-0.33,0.33,10,54,44,53.67,54.33,64,3.1622776601683795,3.1622776601683795,3.1622776601683795,3.1622776601683795
4,10,0.0465280000353232,w,54.0,Limited Time,l,61.12235325309351,53.9644901447273,44.19103512943785,52.46925148241261,44.19103512943785,53.9644901447273,52.46925148241261,61.12235325309351,-10,-0.33,0.33,10,54,44,53.67,54.33,64,3.1622776601683795,3.1622776601683795,3.1622776601683795,3.1622776601683795
4,11,0.3632676000124775,o,43.2,Limited Time,l,69.346379406207,55.21214706813559,43.247486822000994,54.414740926016854,43.247486822000994,55.21214706813559,54.414740926016854,69.346379406207,-10,-0.33,0.33,10,54,44,53.67,54.33,64,3.1622776601683795,3.1622776601683795,3.1622776601683795,3.1622776601683795
4,12,0.013943600002676249,p,46.8,Limited Time,l,64.21427493177126,56.06878982873325,49.58067969048513,46.838707851989206,49.58067969048513,56.06878982873325,46.838707851989206,64.21427493177126,-10,-0.33,0.33,10,54,44,53.67,54.33,64,3.1622776601683795,3.1622776601683795,3.1622776601683795,3.1622776601683795
4,13,0.3391587000223808,p,52.3,Limited Time,l,58.41259391097687,53.148319381917204,49.17123901897971,52.272025319051345,49.17123901897971,53.148319381917204,52.272025319051345,58.41259391097687,-10,-0.33,0.33,10,54,44,53.67,54.33,64,3.1622776601683795,3.1622776601683795,3.1622776601683795,3.1622776601683795
4,14,,,0.0,Limited Time,l,56.92882047237895,53.45227973284512,46.22047910833484,54.61727796856731,46.22047910833484,53.45227973284512,54.61727796856731,56.92882047237895,-10,-0.33,0.33,10,54,44,53.67,54.33,64,3.1622776601683795,3.1622776601683795,3.1622776601683795,3.1622776601683795
4,15,0.18079459998989478,o,45.8,Limited Time,l,63.77668176061194,52.31468852895241,45.75438151678916,55.814776797278675,45.75438151678916,52.31468852895241,55.814776797278675,63.77668176061194,-10,-0.33,0.33,10,54,44,53.67,54.33,64,3.1622776601683795,3.1622776601683795,3.1622776601683795,3.1622776601683795
4,16,0.06330829998478293,o,45.6,Limited Time,l,66.63578624136821,56.78392953633747,45.63543669213867,53.859216142715056,45.63543669213867,56.78392953633747,53.859216142715056,66.63578624136821,-10,-0.33,0.33,10,54,44,53.67,54.33,64,3.1622776601683795,3.1622776601683795,3.1622776601683795,3.1622776601683795
4,17,0.039412699989043176,o,45.4,Limited Time,l,67.87585150595129,50.68826277543698,45.427321669188665,51.188537013465506,45.427321669188665,50.68826277543698,51.188537013465506,67.87585150595129,-10,-0.33,0.33,10,54,44,53.67,54.33,64,3.1622776601683795,3.1622776601683795,3.1622776601683795,3.1622776601683795
4,18,0.16817419999279082,w,54.6,Limited Time,l,69.27159986690812,54.5727644288363,44.20358450443156,58.95373375268081,44.20358450443156,54.5727644288363,58.95373375268081,69.27159986690812,-10,-0.33,0.33,10,54,44,53.67,54.33,64,3.1622776601683795,3.1622776601683795,3.1622776601683795,3.1622776601683795
4,19,0.12583969999104738,w,53.2,Limited Time,l,61.42146772756906,53.163716063114194,43.98433715675675,57.7186504354243,43.98433715675675,53.163716063114194,57.7186504354243,61.42146772756906,-10,-0.33,0.33,10,54,44,53.67,54.33,64,3.1622776601683795,3.1622776601683795,3.1622776601683795,3.1622776601683795
4,20,0.13405039999634027,w,52.9,Limited Time,l,64.2186490443425,52.923702492418435,48.12165447107,52.45186639799198,48.12165447107,52.923702492418435,52.45186639799198,64.2186490443425,-10,-0.33,0.33,10,54,44,53.67,54.33,64,3.1622776601683795,3.1622776601683795,3.1622776601683795,3.1622776601683795
5,1,0.32288360001984984,q,55.4,Unlimited Time,l,55.39431312144205,50.10090197000972,44.69760139911731,68.39369865047684,44.69760139911731,55.39431312144205,50.10090197000972,68.39369865047684,-10,-0.33,0.33,10,54,44,53.67,54.33,64,3.1622776601683795,3.1622776601683795,3.1622776601683795,3.1622776601683795
5,2,0.10967400000663474,w,54.7,Unlimited Time,l,50.7682744410921,54.6521512901729,48.511684683272755,62.45179974781436,48.511684683272755,50.7682744410921,54.6521512901729,62.45179974781436,-10,-0.33,0.33,10,54,44,53.67,54.33,64,3.1622776601683795,3.1622776601683795,3.1622776601683795,3.1622776601683795
5,3,0.026535699958913028,o,45.2,Unlimited Time,l,52.57922901490742,52.186192269925456,45.22756518899374,61.69800231028729,45.22756518899374,52.57922901490742,52.186192269925456,61.69800231028729,-10,-0.33,0.33,10,54,44,53.67,54.33,64,3.1622776601683795,3.1622776601683795,3.1622776601683795,3.1622776601683795
5,4,0.10073460004059598,p,70.7,Unlimited Time,l,51.94753067400972,51.77841165971519,40.86024034842812,70.66578870082523,40.86024034842812,51.94753067400972,51.77841165971519,70.66578870082523,-10,-0.33,0.33,10,54,44,53.67,54.33,64,3.1622776601683795,3.1622776601683795,3.1622776601683795,3.1622776601683795
5,5,0.04344700003275648,p,68.6,Unlimited Time,l,54.925508989980784,59.125663905720074,45.3558533936012,68.56171088760985,45.3558533936012,54.925508989980784,59.125663905720074,68.56171088760985,-10,-0.33,0.33,10,54,44,53.67,54.33,64,3.1622776601683795,3.1622776601683795,3.1622776601683795,3.1622776601683795
5,6,0.1396695000003092,p,68.6,Unlimited Time,l,49.50310949674758,57.38965613751475,47.821317686881436,68.63256424400292,47.821317686881436,49.50310949674758,57.38965613751475,68.63256424400292,-10,-0.33,0.33,10,54,44,53.67,54.33,64,3.1622776601683795,3.1622776601683795,3.1622776601683795,3.1622776601683795
5,7,0.14863740000873804,o,46.0,Unlimited Time,l,56.51341472537707,60.695354494576684,46.00063431480557,64.81232344701496,46.00063431480557,56.51341472537707,60.695354494576684,64.81232344701496,-10,-0.33,0.33,10,54,44,53.67,54.33,64,3.1622776601683795,3.1622776601683795,3.1622776601683795,3.1622776601683795
5,8,0.08142750000115484,w,61.2,Unlimited Time,l,59.436442650421505,61.24026555369278,42.906232588014774,60.33503218483017,42.906232588014774,59.436442650421505,61.24026555369278,60.33503218483017,-10,-0.33,0.33,10,54,44,53.67,54.33,64,3.1622776601683795,3.1622776601683795,3.1622776601683795,3.1622776601683795
5,9,0.13898859999608248,q,54.6,Unlimited Time,l,54.629127043140215,57.88664990959963,43.89059284508986,67.79678798003721,43.89059284508986,54.629127043140215,57.88664990959963,67.79678798003721,-10,-0.33,0.33,10,54,44,53.67,54.33,64,3.1622776601683795,3.1622776601683795,3.1622776601683795,3.1622776601683795
5,10,0.5977667000261135,p,61.1,Unlimited Time,l,53.9644901447273,52.46925148241261,44.19103512943785,61.12235325309351,44.19103512943785,53.9644901447273,52.46925148241261,61.12235325309351,-10,-0.33,0.33,10,54,44,53.67,54.33,64,3.1622776601683795,3.1622776601683795,3.1622776601683795,3.1622776601683795
5,11,0.12390940001932904,o,43.2,Unlimited Time,l,55.21214706813559,54.414740926016854,43.247486822000994,69.346379406207,43.247486822000994,55.21214706813559,54.414740926016854,69.346379406207,-10,-0.33,0.33,10,54,44,53.67,54.33,64,3.1622776601683795,3.1622776601683795,3.1622776601683795,3.1622776601683795
5,12,0.08612649998394772,w,46.8,Unlimited Time,l,56.06878982873325,46.838707851989206,49.58067969048513,64.21427493177126,49.58067969048513,56.06878982873325,46.838707851989206,64.21427493177126,-10,-0.33,0.33,10,54,44,53.67,54.33,64,3.1622776601683795,3.1622776601683795,3.1622776601683795,3.1622776601683795
5,13,0.08197539998218417,q,53.1,Unlimited Time,l,53.148319381917204,52.272025319051345,49.17123901897971,58.41259391097687,49.17123901897971,53.148319381917204,52.272025319051345,58.41259391097687,-10,-0.33,0.33,10,54,44,53.67,54.33,64,3.1622776601683795,3.1622776601683795,3.1622776601683795,3.1622776601683795
5,14,0.4951868999633007,w,54.6,Unlimited Time,l,53.45227973284512,54.61727796856731,46.22047910833484,56.92882047237895,46.22047910833484,53.45227973284512,54.61727796856731,56.92882047237895,-10,-0.33,0.33,10,54,44,53.67,54.33,64,3.1622776601683795,3.1622776601683795,3.1622776601683795,3.1622776601683795
5,15,0.052941599977202713,o,45.8,Unlimited Time,l,52.31468852895241,55.814776797278675,45.75438151678916,63.77668176061194,45.75438151678916,52.31468852895241,55.814776797278675,63.77668176061194,-10,-0.33,0.33,10,54,44,53.67,54.33,64,3.1622776601683795,3.1622776601683795,3.1622776601683795,3.1622776601683795
5,16,0.26972489996114746,q,56.8,Unlimited Time,l,56.78392953633747,53.859216142715056,45.63543669213867,66.63578624136821,45.63543669213867,56.78392953633747,53.859216142715056,66.63578624136821,-10,-0.33,0.33,10,54,44,53.67,54.33,64,3.1622776601683795,3.1622776601683795,3.1622776601683795,3.1622776601683795
5,17,0.319363999995403,o,45.4,Unlimited Time,l,50.68826277543698,51.188537013465506,45.427321669188665,67.87585150595129,45.427321669188665,50.68826277543698,51.188537013465506,67.87585150595129,-10,-0.33,0.33,10,54,44,53.67,54.33,64,3.1622776601683795,3.1622776601683795,3.1622776601683795,3.1622776601683795
5,18,0.05699780001305044,q,54.6,Unlimited Time,l,54.5727644288363,58.95373375268081,44.20358450443156,69.27159986690812,44.20358450443156,54.5727644288363,58.95373375268081,69.27159986690812,-10,-0.33,0.33,10,54,44,53.67,54.33,64,3.1622776601683795,3.1622776601683795,3.1622776601683795,3.1622776601683795
5,19,0.024087199999485165,o,44.0,Unlimited Time,l,53.163716063114194,57.7186504354243,43.98433715675675,61.42146772756906,43.98433715675675,53.163716063114194,57.7186504354243,61.42146772756906,-10,-0.33,0.33,10,54,44,53.67,54.33,64,3.1622776601683795,3.1622776601683795,3.1622776601683795,3.1622776601683795
5,20,0.036910600028932095,q,52.9,Unlimited Time,l,52.923702492418435,52.45186639799198,48.12165447107,64.2186490443425,48.12165447107,52.923702492418435,52.45186639799198,64.2186490443425,-10,-0.33,0.33,10,54,44,53.67,54.33,64,3.1622776601683795,3.1622776601683795,3.1622776601683795,3.1622776601683795
6,1,0.23620139999547973,q,61.5,Limited Time,h,61.494831309679434,86.85149765519084,39.38314482165392,40.38926513954168,40.38926513954168,39.38314482165392,61.494831309679434,86.85149765519084,-10,-0.33,0.33,10,54,44,53.67,54.33,64,10,10,10,10
6,2,0.2152267000055872,p,34.9,Limited Time,h,47.555108728910966,54.78991987644584,62.48437024256843,34.942336469116924,34.942336469116924,62.48437024256843,47.555108728910966,54.78991987644584,-10,-0.33,0.33,10,54,44,53.67,54.33,64,10,10,10,10
6,3,0.2652953999931924,w,58.7,Limited Time,h,35.16347400266635,58.70585887098021,44.21560605720498,31.247428744135338,31.247428744135338,44.21560605720498,35.16347400266635,58.70585887098021,-10,-0.33,0.33,10,54,44,53.67,54.33,64,10,10,10,10
6,4,0.165129600034561,q,64.1,Limited Time,h,64.11246718581319,47.722298468163146,55.94342090462652,56.85985093066177,56.85985093066177,55.94342090462652,64.11246718581319,47.722298468163146,-10,-0.33,0.33,10,54,44,53.67,54.33,64,10,10,10,10
6,5,0.01664599997457117,w,62.6,Limited Time,h,62.53521576545651,62.5762845737221,50.24602667142493,39.574124046053086,39.574124046053086,50.24602667142493,62.53521576545651,62.5762845737221,-10,-0.33,0.33,10,54,44,53.67,54.33,64,10,10,10,10
6,6,0.2790163999889046,q,64.2,Limited Time,h,64.20533729655315,55.61089095982725,69.77198611340447,36.63917383669845,36.63917383669845,69.77198611340447,64.20533729655315,55.61089095982725,-10,-0.33,0.33,10,54,44,53.67,54.33,64,10,10,10,10
6,7,0.08795139996800572,o,45.1,Limited Time,h,55.138122968671766,68.53472421587098,45.13284970994942,55.87353208331462,55.87353208331462,45.13284970994942,55.138122968671766,68.53472421587098,-10,-0.33,0.33,10,54,44,53.67,54.33,64,10,10,10,10
6,8,0.13006150000728667,o,60.5,Limited Time,h,59.66306748649859,72.18242152585317,60.45007448507382,49.34634032919852,49.34634032919852,60.45007448507382,59.66306748649859,72.18242152585317,-10,-0.33,0.33,10,54,44,53.67,54.33,64,10,10,10,10
6,9,0.22412170004099607,q,40.0,Limited Time,h,40.03557369459612,76.78544111671724,59.72934432024753,53.099630193176424,53.099630193176424,59.72934432024753,40.03557369459612,76.78544111671724,-10,-0.33,0.33,10,54,44,53.67,54.33,64,10,10,10,10
6,10,0.1958474999992177,p,34.4,Limited Time,h,58.50963291474409,68.4328779788805,52.622619297516735,34.3892003265997,34.3892003265997,52.622619297516735,58.50963291474409,68.4328779788805,-10,-0.33,0.33,10,54,44,53.67,54.33,64,10,10,10,10
6,11,0.08871010004077107,w,64.1,Limited Time,h,89.02880195928464,64.13487726963967,65.95435093429042,61.699456650822036,61.699456650822036,65.95435093429042,89.02880195928464,64.13487726963967,-10,-0.33,0.33,10,54,44,53.67,54.33,64,10,10,10,10
6,12,0.12998379999771714,p,64.4,Limited Time,h,47.82788639817243,61.49389034044442,62.52697523203456,64.36028036889897,64.36028036889897,62.52697523203456,47.82788639817243,61.49389034044442,-10,-0.33,0.33,10,54,44,53.67,54.33,64,10,10,10,10
6,13,0.13752190000377595,p,45.4,Limited Time,h,44.06287741858208,79.38551846677929,51.36979589749609,45.41824822540151,45.41824822540151,51.36979589749609,44.06287741858208,79.38551846677929,-10,-0.33,0.33,10,54,44,53.67,54.33,64,10,10,10,10
6,14,0.01706819998798892,q,63.7,Limited Time,h,63.65561352727048,75.32801750797765,42.778019634329326,43.57038289564123,43.57038289564123,42.778019634329326,63.65561352727048,75.32801750797765,-10,-0.33,0.33,10,54,44,53.67,54.33,64,10,10,10,10
6,15,0.01659519999520853,p,22.3,Limited Time,h,66.56668063594611,61.127609923755124,43.629477662982666,22.329288247061125,22.329288247061125,43.629477662982666,66.56668063594611,61.127609923755124,-10,-0.33,0.33,10,54,44,53.67,54.33,64,10,10,10,10
6,16,0.01692269998602569,q,64.1,Limited Time,h,64.1453219116839,80.73687011447589,62.778502783013316,34.06502114320663,34.06502114320663,62.778502783013316,64.1453219116839,80.73687011447589,-10,-0.33,0.33,10,54,44,53.67,54.33,64,10,10,10,10
6,17,0.08010709995869547,p,46.2,Limited Time,h,61.82331140237084,52.782660935133975,50.16827968308157,46.17601654251885,46.17601654251885,50.16827968308157,61.82331140237084,52.782660935133975,-10,-0.33,0.33,10,54,44,53.67,54.33,64,10,10,10,10
6,18,0.06353320000926033,q,47.1,Limited Time,h,47.09101814431814,53.92047438296433,57.7830382316571,48.46395655845929,48.46395655845929,57.7830382316571,47.09101814431814,53.92047438296433,-10,-0.33,0.33,10,54,44,53.67,54.33,64,10,10,10,10
6,19,0.02530729997670278,p,51.5,Limited Time,h,54.508008852683666,64.38025061046257,52.108769111916466,51.515240686210646,51.515240686210646,52.108769111916466,54.508008852683666,64.38025061046257,-10,-0.33,0.33,10,54,44,53.67,54.33,64,10,10,10,10
6,20,0.05862820002948865,p,35.0,Limited Time,h,69.51651762268057,85.82504409693433,32.981800736547726,35.002801334345264,35.002801334345264,32.981800736547726,69.51651762268057,85.82504409693433,-10,-0.33,0.33,10,54,44,53.67,54.33,64,10,10,10,10
7,1,0.6796124000102282,o,54.8,Unlimited Time,e,51.434459306717656,61.33750793963492,54.7772286063217,61.9349549666767,51.434459306717656,61.9349549666767,54.7772286063217,61.33750793963492,0,0,0,0,54,54,54,54,54,3.1622776601683795,6.324555320336759,8.366600265340756,10
7,2,0.08008130005327985,o,59.0,Unlimited Time,e,54.32440719742532,60.93981637512652,59.01343202041274,49.85616396805996,54.32440719742532,49.85616396805996,59.01343202041274,60.93981637512652,0,0,0,0,54,54,54,54,54,3.1622776601683795,6.324555320336759,8.366600265340756,10
7,3,0.08102000004146248,o,50.6,Unlimited Time,e,53.57243122272745,61.78931658990848,50.62226774043485,52.897358405171005,53.57243122272745,52.897358405171005,50.62226774043485,61.78931658990848,0,0,0,0,54,54,54,54,54,3.1622776601683795,6.324555320336759,8.366600265340756,10
7,4,0.08049970003776252,p,50.4,Unlimited Time,e,55.0895235673631,43.97794094284771,33.28575431506434,50.442757089393986,55.0895235673631,50.442757089393986,33.28575431506434,43.97794094284771,0,0,0,0,54,54,54,54,54,3.1622776601683795,6.324555320336759,8.366600265340756,10
7,5,0.16733769996790215,p,59.9,Unlimited Time,e,51.16572620939649,68.4078829472501,54.29293356315593,59.942810017630414,51.16572620939649,59.942810017630414,54.29293356315593,68.4078829472501,0,0,0,0,54,54,54,54,54,3.1622776601683795,6.324555320336759,8.366600265340756,10
7,6,0.13106129999505356,p,57.4,Unlimited Time,e,54.43310172886701,42.84247871939727,63.42725450574265,57.393700189146536,54.43310172886701,57.393700189146536,63.42725450574265,42.84247871939727,0,0,0,0,54,54,54,54,54,3.1622776601683795,6.324555320336759,8.366600265340756,10
7,7,0.01791860000230372,p,54.5,Unlimited Time,e,55.9441222073417,56.773858519206094,55.32468290936897,54.47846765210366,55.9441222073417,54.47846765210366,55.32468290936897,56.773858519206094,0,0,0,0,54,54,54,54,54,3.1622776601683795,6.324555320336759,8.366600265340756,10
7,8,0.26824770000530407,p,64.8,Unlimited Time,e,51.570519014358304,53.33550472341652,46.14559450726795,64.82863164905191,51.570519014358304,64.82863164905191,46.14559450726795,53.33550472341652,0,0,0,0,54,54,54,54,54,3.1622776601683795,6.324555320336759,8.366600265340756,10
7,9,0.6308633000007831,p,46.9,Unlimited Time,e,57.06237613375034,51.41104685313018,55.80368079556695,46.88449302603366,57.06237613375034,46.88449302603366,55.80368079556695,51.41104685313018,0,0,0,0,54,54,54,54,54,3.1622776601683795,6.324555320336759,8.366600265340756,10
7,10,0.13040830002864823,p,57.6,Unlimited Time,e,50.237446782170096,45.99807174083269,47.14367155344127,57.55916389517467,50.237446782170096,57.55916389517467,47.14367155344127,45.99807174083269,0,0,0,0,54,54,54,54,54,3.1622776601683795,6.324555320336759,8.366600265340756,10
7,11,0.6306118999491446,p,47.5,Unlimited Time,e,50.89274646589142,42.83277058280109,58.19415135920574,47.53340049437749,50.89274646589142,47.53340049437749,58.19415135920574,42.83277058280109,0,0,0,0,54,54,54,54,54,3.1622776601683795,6.324555320336759,8.366600265340756,10
7,12,0.5679116999963298,p,60.9,Unlimited Time,e,52.999307406274866,56.470442147059345,67.99527682433339,60.89505546356313,52.999307406274866,60.89505546356313,67.99527682433339,56.470442147059345,0,0,0,0,54,54,54,54,54,3.1622776601683795,6.324555320336759,8.366600265340756,10
7,13,0.13105440000072122,p,48.8,Unlimited Time,e,58.185707987072895,39.64702453584708,58.19576468381404,48.81884620307252,58.185707987072895,48.81884620307252,58.19576468381404,39.64702453584708,0,0,0,0,54,54,54,54,54,3.1622776601683795,6.324555320336759,8.366600265340756,10
7,14,0.43097049999050796,p,46.1,Unlimited Time,e,55.379941534244466,56.52309642008432,32.18680266176774,46.112202861413515,55.379941534244466,46.112202861413515,32.18680266176774,56.52309642008432,0,0,0,0,54,54,54,54,54,3.1622776601683795,6.324555320336759,8.366600265340756,10
7,15,0.3310078000067733,p,59.2,Unlimited Time,e,55.876428785517575,53.033448474923766,56.303828305799854,59.189181046335364,55.876428785517575,59.189181046335364,56.303828305799854,53.033448474923766,0,0,0,0,54,54,54,54,54,3.1622776601683795,6.324555320336759,8.366600265340756,10
7,16,0.5559535000356846,p,49.9,Unlimited Time,e,50.98652120331665,57.00724758076867,53.42163583424517,49.93226240481921,50.98652120331665,49.93226240481921,53.42163583424517,57.00724758076867,0,0,0,0,54,54,54,54,54,3.1622776601683795,6.324555320336759,8.366600265340756,10
7,17,0.1981491000042297,p,53.6,Unlimited Time,e,59.20807603479897,53.754295291361345,39.9563204929003,53.60445320019274,59.20807603479897,53.60445320019274,39.9563204929003,53.754295291361345,0,0,0,0,54,54,54,54,54,3.1622776601683795,6.324555320336759,8.366600265340756,10
7,18,0.33128669997677207,p,44.3,Unlimited Time,e,55.671163382678934,54.27472707148374,45.57770149610231,44.326861262727505,55.671163382678934,44.326861262727505,45.57770149610231,54.27472707148374,0,0,0,0,54,54,54,54,54,3.1622776601683795,6.324555320336759,8.366600265340756,10
7,19,0.4431746000191197,p,42.6,Unlimited Time,e,55.55582600329808,63.04247213708867,58.67348743817081,42.58684607541167,55.55582600329808,42.58684607541167,58.67348743817081,63.04247213708867,0,0,0,0,54,54,54,54,54,3.1622776601683795,6.324555320336759,8.366600265340756,10
7,20,0.4899320999975316,p,48.6,Unlimited Time,e,52.480213545947336,75.41576441915167,54.17040261145671,48.64866027090167,52.480213545947336,48.64866027090167,54.17040261145671,75.41576441915167,0,0,0,0,54,54,54,54,54,3.1622776601683795,6.324555320336759,8.366600265340756,10
8,1,,,0.0,Limited Time,i,44.502540659121074,72.8613873271142,59.2297783633396,70.2344342192917,44.502540659121074,59.2297783633396,70.2344342192917,72.8613873271142,-10,-10,10,10,54,44,44,64,64,3.1622776601683795,10,3.1622776601683795,10
8,2,0.060959699971135706,o,52.3,Limited Time,i,40.349038292976715,67.81544421412016,52.27340501664413,62.08657410949119,40.349038292976715,52.27340501664413,62.08657410949119,67.81544421412016,-10,-10,10,10,54,44,44,64,64,3.1622776601683795,10,3.1622776601683795,10
8,3,0.23651900002732873,o,63.1,Limited Time,i,42.09723740751581,47.86712806100873,63.13114765586103,64.12098507715235,42.09723740751581,63.13114765586103,64.12098507715235,47.86712806100873,-10,-10,10,10,54,44,44,64,64,3.1622776601683795,10,3.1622776601683795,10
8,4,0.11620390001917258,o,28.1,Limited Time,i,44.68116894190515,68.89536142336948,28.0787138707568,63.118243446351435,44.68116894190515,28.0787138707568,63.118243446351435,68.89536142336948,-10,-10,10,10,54,44,44,64,64,3.1622776601683795,10,3.1622776601683795,10
8,5,0.040411600028164685,p,68.4,Limited Time,i,46.46185724844552,60.129015169824214,40.50426047298983,68.40392027395174,46.46185724844552,40.50426047298983,68.40392027395174,60.129015169824214,-10,-10,10,10,54,44,44,64,64,3.1622776601683795,10,3.1622776601683795,10
8,6,0.19505719997687265,p,64.6,Limited Time,i,42.678618409620896,51.06549113986095,41.18659821687336,64.62987097486126,42.678618409620896,41.18659821687336,64.62987097486126,51.06549113986095,-10,-10,10,10,54,44,44,64,64,3.1622776601683795,10,3.1622776601683795,10
8,7,0.04853010002989322,p,65.9,Limited Time,i,48.09652464945086,53.25419941433155,41.32852456135256,65.92364412822543,48.09652464945086,41.32852456135256,65.92364412822543,53.25419941433155,-10,-10,10,10,54,44,44,64,64,3.1622776601683795,10,3.1622776601683795,10
8,8,0.015189600002486259,o,58.3,Limited Time,i,45.2641408242477,49.8339785667339,58.282608831796495,67.74083897433468,45.2641408242477,58.282608831796495,67.74083897433468,49.8339785667339,-10,-10,10,10,54,44,44,64,64,3.1622776601683795,10,3.1622776601683795,10
8,9,0.1543369999853894,p,58.2,Limited Time,i,48.42199890022373,47.56783328156098,52.36270693956282,58.200095891644466,48.42199890022373,52.36270693956282,58.200095891644466,47.56783328156098,-10,-10,10,10,54,44,44,64,64,3.1622776601683795,10,3.1622776601683795,10
8,10,0.09120419999817386,p,62.2,Limited Time,i,46.17026890063563,51.03526949250589,37.9856859393803,62.198501794870474,46.17026890063563,37.9856859393803,62.198501794870474,51.03526949250589,-10,-10,10,10,54,44,44,64,64,3.1622776601683795,10,3.1622776601683795,10
8,11,0.09573269996326417,p,65.2,Limited Time,i,44.95005291244839,63.27229694341661,36.98625952501776,65.2011419716564,44.95005291244839,36.98625952501776,65.2011419716564,63.27229694341661,-10,-10,10,10,54,44,44,64,64,3.1622776601683795,10,3.1622776601683795,10
8,12,0.17433700000401586,p,55.6,Limited Time,i,44.53478385385076,58.57608418079955,70.08028055239225,55.62347101386009,44.53478385385076,70.08028055239225,55.62347101386009,58.57608418079955,-10,-10,10,10,54,44,44,64,64,3.1622776601683795,10,3.1622776601683795,10
8,13,0.0206330000073649,p,62.4,Limited Time,i,44.09411764579424,53.88502728023238,40.018419209975725,62.39969520969737,44.09411764579424,40.018419209975725,62.39969520969737,53.88502728023238,-10,-10,10,10,54,44,44,64,64,3.1622776601683795,10,3.1622776601683795,10
8,14,0.15487510000821203,p,59.6,Limited Time,i,47.275226435447216,70.02939416517307,32.2654648528928,59.5807357421373,47.275226435447216,32.2654648528928,59.5807357421373,70.02939416517307,-10,-10,10,10,54,44,44,64,64,3.1622776601683795,10,3.1622776601683795,10
8,15,0.015460799972061068,p,59.8,Limited Time,i,47.88771698103841,50.57260101569783,37.750930379954625,59.801051804536165,47.88771698103841,37.750930379954625,59.801051804536165,50.57260101569783,-10,-10,10,10,54,44,44,64,64,3.1622776601683795,10,3.1622776601683795,10
8,16,0.03034930001012981,p,65.1,Limited Time,i,43.84549802298278,58.53179481671883,65.83604545001297,65.14310725802123,43.84549802298278,65.83604545001297,65.14310725802123,58.53179481671883,-10,-10,10,10,54,44,44,64,64,3.1622776601683795,10,3.1622776601683795,10
8,17,0.036725500016473234,p,64.8,Limited Time,i,46.30420625766824,73.68588566971184,55.85663155434213,64.82966585841606,46.30420625766824,55.85663155434213,64.82966585841606,73.68588566971184,-10,-10,10,10,54,44,44,64,64,3.1622776601683795,10,3.1622776601683795,10
8,18,0.03053160000126809,o,46.4,Limited Time,i,49.465116629645465,65.68892409622579,46.39823459588004,67.16134806159093,49.465116629645465,46.39823459588004,67.16134806159093,65.68892409622579,-10,-10,10,10,54,44,44,64,64,3.1622776601683795,10,3.1622776601683795,10
8,19,0.01332720002392307,o,34.0,Limited Time,i,39.388510961055445,62.41823469676309,33.99718379141218,65.13224304996747,39.388510961055445,33.99718379141218,65.13224304996747,62.41823469676309,-10,-10,10,10,54,44,44,64,64,3.1622776601683795,10,3.1622776601683795,10
8,20,0.07456700003240258,p,60.6,Limited Time,i,43.14378700404761,75.52706551763339,42.16932788470483,60.565552040616254,43.14378700404761,42.16932788470483,60.565552040616254,75.52706551763339,-10,-10,10,10,54,44,44,64,64,3.1622776601683795,10,3.1622776601683795,10
9,1,0.04798590001882985,o,44.5,Unlimited Time,i,72.8613873271142,59.2297783633396,44.502540659121074,70.2344342192917,44.502540659121074,59.2297783633396,70.2344342192917,72.8613873271142,-10,-10,10,10,54,44,44,64,64,3.1622776601683795,10,3.1622776601683795,10
9,2,0.018799600016791373,o,40.3,Unlimited Time,i,67.81544421412016,52.27340501664413,40.349038292976715,62.08657410949119,40.349038292976715,52.27340501664413,62.08657410949119,67.81544421412016,-10,-10,10,10,54,44,44,64,64,3.1622776601683795,10,3.1622776601683795,10
9,3,0.04313790000742301,p,64.1,Unlimited Time,i,47.86712806100873,63.13114765586103,42.09723740751581,64.12098507715235,42.09723740751581,63.13114765586103,64.12098507715235,47.86712806100873,-10,-10,10,10,54,44,44,64,64,3.1622776601683795,10,3.1622776601683795,10
9,4,0.29761509998934343,q,68.9,Unlimited Time,i,68.89536142336948,28.0787138707568,44.68116894190515,63.118243446351435,44.68116894190515,28.0787138707568,63.118243446351435,68.89536142336948,-10,-10,10,10,54,44,44,64,64,3.1622776601683795,10,3.1622776601683795,10
9,5,0.4269761000177823,w,40.5,Unlimited Time,i,60.129015169824214,40.50426047298983,46.46185724844552,68.40392027395174,46.46185724844552,40.50426047298983,68.40392027395174,60.129015169824214,-10,-10,10,10,54,44,44,64,64,3.1622776601683795,10,3.1622776601683795,10
9,6,0.08983549999538809,p,64.6,Unlimited Time,i,51.06549113986095,41.18659821687336,42.678618409620896,64.62987097486126,42.678618409620896,41.18659821687336,64.62987097486126,51.06549113986095,-10,-10,10,10,54,44,44,64,64,3.1622776601683795,10,3.1622776601683795,10
9,7,0.06034969998290762,o,48.1,Unlimited Time,i,53.25419941433155,41.32852456135256,48.09652464945086,65.92364412822543,48.09652464945086,41.32852456135256,65.92364412822543,53.25419941433155,-10,-10,10,10,54,44,44,64,64,3.1622776601683795,10,3.1622776601683795,10
9,8,0.21587389998603612,q,49.8,Unlimited Time,i,49.8339785667339,58.282608831796495,45.2641408242477,67.74083897433468,45.2641408242477,58.282608831796495,67.74083897433468,49.8339785667339,-10,-10,10,10,54,44,44,64,64,3.1622776601683795,10,3.1622776601683795,10
9,9,0.031714399985503405,w,52.4,Unlimited Time,i,47.56783328156098,52.36270693956282,48.42199890022373,58.200095891644466,48.42199890022373,52.36270693956282,58.200095891644466,47.56783328156098,-10,-10,10,10,54,44,44,64,64,3.1622776601683795,10,3.1622776601683795,10
9,10,0.031244899961166084,q,51.0,Unlimited Time,i,51.03526949250589,37.9856859393803,46.17026890063563,62.198501794870474,46.17026890063563,37.9856859393803,62.198501794870474,51.03526949250589,-10,-10,10,10,54,44,44,64,64,3.1622776601683795,10,3.1622776601683795,10
9,11,0.006913800025358796,w,37.0,Unlimited Time,i,63.27229694341661,36.98625952501776,44.95005291244839,65.2011419716564,44.95005291244839,36.98625952501776,65.2011419716564,63.27229694341661,-10,-10,10,10,54,44,44,64,64,3.1622776601683795,10,3.1622776601683795,10
9,12,0.26122349995421246,o,44.5,Unlimited Time,i,58.57608418079955,70.08028055239225,44.53478385385076,55.62347101386009,44.53478385385076,70.08028055239225,55.62347101386009,58.57608418079955,-10,-10,10,10,54,44,44,64,64,3.1622776601683795,10,3.1622776601683795,10
9,13,0.10180329997092485,p,62.4,Unlimited Time,i,53.88502728023238,40.018419209975725,44.09411764579424,62.39969520969737,44.09411764579424,40.018419209975725,62.39969520969737,53.88502728023238,-10,-10,10,10,54,44,44,64,64,3.1622776601683795,10,3.1622776601683795,10
9,14,0.06915219995426014,w,32.3,Unlimited Time,i,70.02939416517307,32.2654648528928,47.275226435447216,59.5807357421373,47.275226435447216,32.2654648528928,59.5807357421373,70.02939416517307,-10,-10,10,10,54,44,44,64,64,3.1622776601683795,10,3.1622776601683795,10
9,15,0.057741800032090396,q,50.6,Unlimited Time,i,50.57260101569783,37.750930379954625,47.88771698103841,59.801051804536165,47.88771698103841,37.750930379954625,59.801051804536165,50.57260101569783,-10,-10,10,10,54,44,44,64,64,3.1622776601683795,10,3.1622776601683795,10
9,16,0.21145539998542517,p,65.1,Unlimited Time,i,58.53179481671883,65.83604545001297,43.84549802298278,65.14310725802123,43.84549802298278,65.83604545001297,65.14310725802123,58.53179481671883,-10,-10,10,10,54,44,44,64,64,3.1622776601683795,10,3.1622776601683795,10
9,17,0.027820800023619086,o,46.3,Unlimited Time,i,73.68588566971184,55.85663155434213,46.30420625766824,64.82966585841606,46.30420625766824,55.85663155434213,64.82966585841606,73.68588566971184,-10,-10,10,10,54,44,44,64,64,3.1622776601683795,10,3.1622776601683795,10
9,18,0.16532119998009875,q,65.7,Unlimited Time,i,65.68892409622579,46.39823459588004,49.465116629645465,67.16134806159093,49.465116629645465,46.39823459588004,67.16134806159093,65.68892409622579,-10,-10,10,10,54,44,44,64,64,3.1622776601683795,10,3.1622776601683795,10
9,19,0.15795699995942414,w,34.0,Unlimited Time,i,62.41823469676309,33.99718379141218,39.388510961055445,65.13224304996747,39.388510961055445,33.99718379141218,65.13224304996747,62.41823469676309,-10,-10,10,10,54,44,44,64,64,3.1622776601683795,10,3.1622776601683795,10
9,20,0.3120801000040956,w,42.2,Unlimited Time,i,75.52706551763339,42.16932788470483,43.14378700404761,60.565552040616254,43.14378700404761,42.16932788470483,60.565552040616254,75.52706551763339,-10,-10,10,10,54,44,44,64,64,3.1622776601683795,10,3.1622776601683795,10
10,1,,,0.0,Limited Time,h,61.494831309679434,86.85149765519084,39.38314482165392,40.38926513954168,40.38926513954168,39.38314482165392,61.494831309679434,86.85149765519084,-10,-0.33,0.33,10,54,44,53.67,54.33,64,10,10,10,10
10,2,0.18740920000709593,w,54.8,Limited Time,h,47.555108728910966,54.78991987644584,62.48437024256843,34.942336469116924,34.942336469116924,62.48437024256843,47.555108728910966,54.78991987644584,-10,-0.33,0.33,10,54,44,53.67,54.33,64,10,10,10,10
10,3,0.06641339999623597,p,31.2,Limited Time,h,35.16347400266635,58.70585887098021,44.21560605720498,31.247428744135338,31.247428744135338,44.21560605720498,35.16347400266635,58.70585887098021,-10,-0.33,0.33,10,54,44,53.67,54.33,64,10,10,10,10
10,4,0.04098430002341047,o,55.9,Limited Time,h,64.11246718581319,47.722298468163146,55.94342090462652,56.85985093066177,56.85985093066177,55.94342090462652,64.11246718581319,47.722298468163146,-10,-0.33,0.33,10,54,44,53.67,54.33,64,10,10,10,10
10,5,0.05759440001565963,q,62.5,Limited Time,h,62.53521576545651,62.5762845737221,50.24602667142493,39.574124046053086,39.574124046053086,50.24602667142493,62.53521576545651,62.5762845737221,-10,-0.33,0.33,10,54,44,53.67,54.33,64,10,10,10,10
10,6,0.107196600001771,p,36.6,Limited Time,h,64.20533729655315,55.61089095982725,69.77198611340447,36.63917383669845,36.63917383669845,69.77198611340447,64.20533729655315,55.61089095982725,-10,-0.33,0.33,10,54,44,53.67,54.33,64,10,10,10,10
10,7,0.03315280005335808,o,45.1,Limited Time,h,55.138122968671766,68.53472421587098,45.13284970994942,55.87353208331462,55.87353208331462,45.13284970994942,55.138122968671766,68.53472421587098,-10,-0.33,0.33,10,54,44,53.67,54.33,64,10,10,10,10
10,8,0.10399049997795373,q,59.7,Limited Time,h,59.66306748649859,72.18242152585317,60.45007448507382,49.34634032919852,49.34634032919852,60.45007448507382,59.66306748649859,72.18242152585317,-10,-0.33,0.33,10,54,44,53.67,54.33,64,10,10,10,10
10,9,0.14119880000362173,p,53.1,Limited Time,h,40.03557369459612,76.78544111671724,59.72934432024753,53.099630193176424,53.099630193176424,59.72934432024753,40.03557369459612,76.78544111671724,-10,-0.33,0.33,10,54,44,53.67,54.33,64,10,10,10,10
10,10,0.04525520000606775,p,34.4,Limited Time,h,58.50963291474409,68.4328779788805,52.622619297516735,34.3892003265997,34.3892003265997,52.622619297516735,58.50963291474409,68.4328779788805,-10,-0.33,0.33,10,54,44,53.67,54.33,64,10,10,10,10
10,11,0.07496339996578172,p,61.7,Limited Time,h,89.02880195928464,64.13487726963967,65.95435093429042,61.699456650822036,61.699456650822036,65.95435093429042,89.02880195928464,64.13487726963967,-10,-0.33,0.33,10,54,44,53.67,54.33,64,10,10,10,10
10,12,0.13383970002178103,w,61.5,Limited Time,h,47.82788639817243,61.49389034044442,62.52697523203456,64.36028036889897,64.36028036889897,62.52697523203456,47.82788639817243,61.49389034044442,-10,-0.33,0.33,10,54,44,53.67,54.33,64,10,10,10,10
10,13,0.042233999993186444,p,45.4,Limited Time,h,44.06287741858208,79.38551846677929,51.36979589749609,45.41824822540151,45.41824822540151,51.36979589749609,44.06287741858208,79.38551846677929,-10,-0.33,0.33,10,54,44,53.67,54.33,64,10,10,10,10
10,14,0.03310820000478998,w,75.3,Limited Time,h,63.65561352727048,75.32801750797765,42.778019634329326,43.57038289564123,43.57038289564123,42.778019634329326,63.65561352727048,75.32801750797765,-10,-0.33,0.33,10,54,44,53.67,54.33,64,10,10,10,10
10,15,0.004589499963913113,p,22.3,Limited Time,h,66.56668063594611,61.127609923755124,43.629477662982666,22.329288247061125,22.329288247061125,43.629477662982666,66.56668063594611,61.127609923755124,-10,-0.33,0.33,10,54,44,53.67,54.33,64,10,10,10,10
10,16,0.029689399991184473,w,80.7,Limited Time,h,64.1453219116839,80.73687011447589,62.778502783013316,34.06502114320663,34.06502114320663,62.778502783013316,64.1453219116839,80.73687011447589,-10,-0.33,0.33,10,54,44,53.67,54.33,64,10,10,10,10
10,17,,,0.0,Limited Time,h,61.82331140237084,52.782660935133975,50.16827968308157,46.17601654251885,46.17601654251885,50.16827968308157,61.82331140237084,52.782660935133975,-10,-0.33,0.33,10,54,44,53.67,54.33,64,10,10,10,10
10,18,0.0013799999724142253,p,48.5,Limited Time,h,47.09101814431814,53.92047438296433,57.7830382316571,48.46395655845929,48.46395655845929,57.7830382316571,47.09101814431814,53.92047438296433,-10,-0.33,0.33,10,54,44,53.67,54.33,64,10,10,10,10
10,19,0.1506627999478951,q,54.5,Limited Time,h,54.508008852683666,64.38025061046257,52.108769111916466,51.515240686210646,51.515240686210646,52.108769111916466,54.508008852683666,64.38025061046257,-10,-0.33,0.33,10,54,44,53.67,54.33,64,10,10,10,10
10,20,0.014037100016139448,p,35.0,Limited Time,h,69.51651762268057,85.82504409693433,32.981800736547726,35.002801334345264,35.002801334345264,32.981800736547726,69.51651762268057,85.82504409693433,-10,-0.33,0.33,10,54,44,53.67,54.33,64,10,10,10,10
11,1,0.2226920000393875,q,61.5,Unlimited Time,h,61.494831309679434,39.38314482165392,40.38926513954168,86.85149765519084,40.38926513954168,39.38314482165392,61.494831309679434,86.85149765519084,-10,-0.33,0.33,10,54,44,53.67,54.33,64,10,10,10,10
11,2,0.08453300001565367,o,34.9,Unlimited Time,h,47.555108728910966,62.48437024256843,34.942336469116924,54.78991987644584,34.942336469116924,62.48437024256843,47.555108728910966,54.78991987644584,-10,-0.33,0.33,10,54,44,53.67,54.33,64,10,10,10,10
11,3,0.05586859997129068,q,35.2,Unlimited Time,h,35.16347400266635,44.21560605720498,31.247428744135338,58.70585887098021,31.247428744135338,44.21560605720498,35.16347400266635,58.70585887098021,-10,-0.33,0.33,10,54,44,53.67,54.33,64,10,10,10,10
11,4,0.009993799962103367,q,64.1,Unlimited Time,h,64.11246718581319,55.94342090462652,56.85985093066177,47.722298468163146,56.85985093066177,55.94342090462652,64.11246718581319,47.722298468163146,-10,-0.33,0.33,10,54,44,53.67,54.33,64,10,10,10,10
11,5,0.0771579000283964,o,39.6,Unlimited Time,h,62.53521576545651,50.24602667142493,39.574124046053086,62.5762845737221,39.574124046053086,50.24602667142493,62.53521576545651,62.5762845737221,-10,-0.33,0.33,10,54,44,53.67,54.33,64,10,10,10,10
11,6,0.05177119997097179,q,64.2,Unlimited Time,h,64.20533729655315,69.77198611340447,36.63917383669845,55.61089095982725,36.63917383669845,69.77198611340447,64.20533729655315,55.61089095982725,-10,-0.33,0.33,10,54,44,53.67,54.33,64,10,10,10,10
11,7,0.030898099998012185,q,55.1,Unlimited Time,h,55.138122968671766,45.13284970994942,55.87353208331462,68.53472421587098,55.87353208331462,45.13284970994942,55.138122968671766,68.53472421587098,-10,-0.33,0.33,10,54,44,53.67,54.33,64,10,10,10,10
11,8,0.01937039999756962,q,59.7,Unlimited Time,h,59.66306748649859,60.45007448507382,49.34634032919852,72.18242152585317,49.34634032919852,60.45007448507382,59.66306748649859,72.18242152585317,-10,-0.33,0.33,10,54,44,53.67,54.33,64,10,10,10,10
11,9,0.14399120002053678,p,76.8,Unlimited Time,h,40.03557369459612,59.72934432024753,53.099630193176424,76.78544111671724,53.099630193176424,59.72934432024753,40.03557369459612,76.78544111671724,-10,-0.33,0.33,10,54,44,53.67,54.33,64,10,10,10,10
11,10,0.1013439999660477,o,34.4,Unlimited Time,h,58.50963291474409,52.622619297516735,34.3892003265997,68.4328779788805,34.3892003265997,52.622619297516735,58.50963291474409,68.4328779788805,-10,-0.33,0.33,10,54,44,53.67,54.33,64,10,10,10,10
11,11,0.08158820000244305,o,61.7,Unlimited Time,h,89.02880195928464,65.95435093429042,61.699456650822036,64.13487726963967,61.699456650822036,65.95435093429042,89.02880195928464,64.13487726963967,-10,-0.33,0.33,10,54,44,53.67,54.33,64,10,10,10,10
11,12,0.05821559997275472,p,61.5,Unlimited Time,h,47.82788639817243,62.52697523203456,64.36028036889897,61.49389034044442,64.36028036889897,62.52697523203456,47.82788639817243,61.49389034044442,-10,-0.33,0.33,10,54,44,53.67,54.33,64,10,10,10,10
11,13,0.06039119994966313,w,51.4,Unlimited Time,h,44.06287741858208,51.36979589749609,45.41824822540151,79.38551846677929,45.41824822540151,51.36979589749609,44.06287741858208,79.38551846677929,-10,-0.33,0.33,10,54,44,53.67,54.33,64,10,10,10,10
11,14,0.07775999995646998,p,75.3,Unlimited Time,h,63.65561352727048,42.778019634329326,43.57038289564123,75.32801750797765,43.57038289564123,42.778019634329326,63.65561352727048,75.32801750797765,-10,-0.33,0.33,10,54,44,53.67,54.33,64,10,10,10,10
11,15,0.03950539999641478,w,43.6,Unlimited Time,h,66.56668063594611,43.629477662982666,22.329288247061125,61.127609923755124,22.329288247061125,43.629477662982666,66.56668063594611,61.127609923755124,-10,-0.33,0.33,10,54,44,53.67,54.33,64,10,10,10,10
11,16,0.06111419998342171,w,62.8,Unlimited Time,h,64.1453219116839,62.778502783013316,34.06502114320663,80.73687011447589,34.06502114320663,62.778502783013316,64.1453219116839,80.73687011447589,-10,-0.33,0.33,10,54,44,53.67,54.33,64,10,10,10,10
11,17,0.04015880002407357,w,50.2,Unlimited Time,h,61.82331140237084,50.16827968308157,46.17601654251885,52.782660935133975,46.17601654251885,50.16827968308157,61.82331140237084,52.782660935133975,-10,-0.33,0.33,10,54,44,53.67,54.33,64,10,10,10,10
11,18,0.060842800012324005,w,57.8,Unlimited Time,h,47.09101814431814,57.7830382316571,48.46395655845929,53.92047438296433,48.46395655845929,57.7830382316571,47.09101814431814,53.92047438296433,-10,-0.33,0.33,10,54,44,53.67,54.33,64,10,10,10,10
11,19,0.030016400036402047,p,64.4,Unlimited Time,h,54.508008852683666,52.108769111916466,51.515240686210646,64.38025061046257,51.515240686210646,52.108769111916466,54.508008852683666,64.38025061046257,-10,-0.33,0.33,10,54,44,53.67,54.33,64,10,10,10,10
11,20,0.027944199973717332,o,35.0,Unlimited Time,h,69.51651762268057,32.981800736547726,35.002801334345264,85.82504409693433,35.002801334345264,32.981800736547726,69.51651762268057,85.82504409693433,-10,-0.33,0.33,10,54,44,53.67,54.33,64,10,10,10,10
12,1,0.3574605999747291,w,61.9,Limited Time,e,61.33750793963492,61.9349549666767,54.7772286063217,51.434459306717656,51.434459306717656,61.9349549666767,54.7772286063217,61.33750793963492,0,0,0,0,54,54,54,54,54,3.1622776601683795,6.324555320336759,8.366600265340756,10
12,2,0.02028899994911626,p,54.3,Limited Time,e,60.93981637512652,49.85616396805996,59.01343202041274,54.32440719742532,54.32440719742532,49.85616396805996,59.01343202041274,60.93981637512652,0,0,0,0,54,54,54,54,54,3.1622776601683795,6.324555320336759,8.366600265340756,10
12,3,0.09284160000970587,o,50.6,Limited Time,e,61.78931658990848,52.897358405171005,50.62226774043485,53.57243122272745,53.57243122272745,52.897358405171005,50.62226774043485,61.78931658990848,0,0,0,0,54,54,54,54,54,3.1622776601683795,6.324555320336759,8.366600265340756,10
12,4,0.007980700000189245,q,44.0,Limited Time,e,43.97794094284771,50.442757089393986,33.28575431506434,55.0895235673631,55.0895235673631,50.442757089393986,33.28575431506434,43.97794094284771,0,0,0,0,54,54,54,54,54,3.1622776601683795,6.324555320336759,8.366600265340756,10
12,5,0.07047929998952895,p,51.2,Limited Time,e,68.4078829472501,59.942810017630414,54.29293356315593,51.16572620939649,51.16572620939649,59.942810017630414,54.29293356315593,68.4078829472501,0,0,0,0,54,54,54,54,54,3.1622776601683795,6.324555320336759,8.366600265340756,10
12,6,0.031975399993825704,p,54.4,Limited Time,e,42.84247871939727,57.393700189146536,63.42725450574265,54.43310172886701,54.43310172886701,57.393700189146536,63.42725450574265,42.84247871939727,0,0,0,0,54,54,54,54,54,3.1622776601683795,6.324555320336759,8.366600265340756,10
12,7,0.013783099944703281,q,56.8,Limited Time,e,56.773858519206094,54.47846765210366,55.32468290936897,55.9441222073417,55.9441222073417,54.47846765210366,55.32468290936897,56.773858519206094,0,0,0,0,54,54,54,54,54,3.1622776601683795,6.324555320336759,8.366600265340756,10
12,8,0.025441400008276105,p,51.6,Limited Time,e,53.33550472341652,64.82863164905191,46.14559450726795,51.570519014358304,51.570519014358304,64.82863164905191,46.14559450726795,53.33550472341652,0,0,0,0,54,54,54,54,54,3.1622776601683795,6.324555320336759,8.366600265340756,10
12,9,0.08322490000864491,p,57.1,Limited Time,e,51.41104685313018,46.88449302603366,55.80368079556695,57.06237613375034,57.06237613375034,46.88449302603366,55.80368079556695,51.41104685313018,0,0,0,0,54,54,54,54,54,3.1622776601683795,6.324555320336759,8.366600265340756,10
12,10,0.0421026999829337,w,57.6,Limited Time,e,45.99807174083269,57.55916389517467,47.14367155344127,50.237446782170096,50.237446782170096,57.55916389517467,47.14367155344127,45.99807174083269,0,0,0,0,54,54,54,54,54,3.1622776601683795,6.324555320336759,8.366600265340756,10
12,11,0.08454670000355691,p,50.9,Limited Time,e,42.83277058280109,47.53340049437749,58.19415135920574,50.89274646589142,50.89274646589142,47.53340049437749,58.19415135920574,42.83277058280109,0,0,0,0,54,54,54,54,54,3.1622776601683795,6.324555320336759,8.366600265340756,10
12,12,0.11343199998373166,p,53.0,Limited Time,e,56.470442147059345,60.89505546356313,67.99527682433339,52.999307406274866,52.999307406274866,60.89505546356313,67.99527682433339,56.470442147059345,0,0,0,0,54,54,54,54,54,3.1622776601683795,6.324555320336759,8.366600265340756,10
12,13,0.10035600000992417,p,58.2,Limited Time,e,39.64702453584708,48.81884620307252,58.19576468381404,58.185707987072895,58.185707987072895,48.81884620307252,58.19576468381404,39.64702453584708,0,0,0,0,54,54,54,54,54,3.1622776601683795,6.324555320336759,8.366600265340756,10
12,14,0.10360570001648739,p,55.4,Limited Time,e,56.52309642008432,46.112202861413515,32.18680266176774,55.379941534244466,55.379941534244466,46.112202861413515,32.18680266176774,56.52309642008432,0,0,0,0,54,54,54,54,54,3.1622776601683795,6.324555320336759,8.366600265340756,10
12,15,0.10477219999302179,p,55.9,Limited Time,e,53.033448474923766,59.189181046335364,56.303828305799854,55.876428785517575,55.876428785517575,59.189181046335364,56.303828305799854,53.033448474923766,0,0,0,0,54,54,54,54,54,3.1622776601683795,6.324555320336759,8.366600265340756,10
12,16,0.08330810000188649,w,49.9,Limited Time,e,57.00724758076867,49.93226240481921,53.42163583424517,50.98652120331665,50.98652120331665,49.93226240481921,53.42163583424517,57.00724758076867,0,0,0,0,54,54,54,54,54,3.1622776601683795,6.324555320336759,8.366600265340756,10
12,17,0.04625330003909767,o,40.0,Limited Time,e,53.754295291361345,53.60445320019274,39.9563204929003,59.20807603479897,59.20807603479897,53.60445320019274,39.9563204929003,53.754295291361345,0,0,0,0,54,54,54,54,54,3.1622776601683795,6.324555320336759,8.366600265340756,10
12,18,0.10969020001357421,o,45.6,Limited Time,e,54.27472707148374,44.326861262727505,45.57770149610231,55.671163382678934,55.671163382678934,44.326861262727505,45.57770149610231,54.27472707148374,0,0,0,0,54,54,54,54,54,3.1622776601683795,6.324555320336759,8.366600265340756,10
12,19,0.14992029999848455,o,58.7,Limited Time,e,63.04247213708867,42.58684607541167,58.67348743817081,55.55582600329808,55.55582600329808,42.58684607541167,58.67348743817081,63.04247213708867,0,0,0,0,54,54,54,54,54,3.1622776601683795,6.324555320336759,8.366600265340756,10
12,20,0.05061010003555566,o,54.2,Limited Time,e,75.41576441915167,48.64866027090167,54.17040261145671,52.480213545947336,52.480213545947336,48.64866027090167,54.17040261145671,75.41576441915167,0,0,0,0,54,54,54,54,54,3.1622776601683795,6.324555320336759,8.366600265340756,10
13,1,0.2674747999990359,w,39.4,Unlimited Time,h,86.85149765519084,39.38314482165392,40.38926513954168,61.494831309679434,40.38926513954168,39.38314482165392,61.494831309679434,86.85149765519084,-10,-0.33,0.33,10,54,44,53.67,54.33,64,10,10,10,10
13,2,0.14309829997364432,w,62.5,Unlimited Time,h,54.78991987644584,62.48437024256843,34.942336469116924,47.555108728910966,34.942336469116924,62.48437024256843,47.555108728910966,54.78991987644584,-10,-0.33,0.33,10,54,44,53.67,54.33,64,10,10,10,10
13,3,0.00047389999963343143,o,31.2,Unlimited Time,h,58.70585887098021,44.21560605720498,31.247428744135338,35.16347400266635,31.247428744135338,44.21560605720498,35.16347400266635,58.70585887098021,-10,-0.33,0.33,10,54,44,53.67,54.33,64,10,10,10,10
13,4,0.0102006999659352,w,55.9,Unlimited Time,h,47.722298468163146,55.94342090462652,56.85985093066177,64.11246718581319,56.85985093066177,55.94342090462652,64.11246718581319,47.722298468163146,-10,-0.33,0.33,10,54,44,53.67,54.33,64,10,10,10,10
13,5,0.0010939000057987869,w,50.2,Unlimited Time,h,62.5762845737221,50.24602667142493,39.574124046053086,62.53521576545651,39.574124046053086,50.24602667142493,62.53521576545651,62.5762845737221,-10,-0.33,0.33,10,54,44,53.67,54.33,64,10,10,10,10
13,6,0.05629069998394698,q,55.6,Unlimited Time,h,55.61089095982725,69.77198611340447,36.63917383669845,64.20533729655315,36.63917383669845,69.77198611340447,64.20533729655315,55.61089095982725,-10,-0.33,0.33,10,54,44,53.67,54.33,64,10,10,10,10
13,7,0.14687090000370517,p,55.1,Unlimited Time,h,68.53472421587098,45.13284970994942,55.87353208331462,55.138122968671766,55.87353208331462,45.13284970994942,55.138122968671766,68.53472421587098,-10,-0.33,0.33,10,54,44,53.67,54.33,64,10,10,10,10
13,8,0.10546819999581203,w,60.5,Unlimited Time,h,72.18242152585317,60.45007448507382,49.34634032919852,59.66306748649859,49.34634032919852,60.45007448507382,59.66306748649859,72.18242152585317,-10,-0.33,0.33,10,54,44,53.67,54.33,64,10,10,10,10
13,9,0.18439919996308163,o,53.1,Unlimited Time,h,76.78544111671724,59.72934432024753,53.099630193176424,40.03557369459612,53.099630193176424,59.72934432024753,40.03557369459612,76.78544111671724,-10,-0.33,0.33,10,54,44,53.67,54.33,64,10,10,10,10
13,10,0.05579280003439635,w,52.6,Unlimited Time,h,68.4328779788805,52.622619297516735,34.3892003265997,58.50963291474409,34.3892003265997,52.622619297516735,58.50963291474409,68.4328779788805,-10,-0.33,0.33,10,54,44,53.67,54.33,64,10,10,10,10
13,11,0.06070579995866865,w,66.0,Unlimited Time,h,64.13487726963967,65.95435093429042,61.699456650822036,89.02880195928464,61.699456650822036,65.95435093429042,89.02880195928464,64.13487726963967,-10,-0.33,0.33,10,54,44,53.67,54.33,64,10,10,10,10
13,12,0.12673189997440204,w,62.5,Unlimited Time,h,61.49389034044442,62.52697523203456,64.36028036889897,47.82788639817243,64.36028036889897,62.52697523203456,47.82788639817243,61.49389034044442,-10,-0.33,0.33,10,54,44,53.67,54.33,64,10,10,10,10
13,13,0.2277239999966696,w,51.4,Unlimited Time,h,79.38551846677929,51.36979589749609,45.41824822540151,44.06287741858208,45.41824822540151,51.36979589749609,44.06287741858208,79.38551846677929,-10,-0.33,0.33,10,54,44,53.67,54.33,64,10,10,10,10
13,14,0.6150319000007585,w,42.8,Unlimited Time,h,75.32801750797765,42.778019634329326,43.57038289564123,63.65561352727048,43.57038289564123,42.778019634329326,63.65561352727048,75.32801750797765,-10,-0.33,0.33,10,54,44,53.67,54.33,64,10,10,10,10
13,15,0.8680206999997608,w,43.6,Unlimited Time,h,61.127609923755124,43.629477662982666,22.329288247061125,66.56668063594611,22.329288247061125,43.629477662982666,66.56668063594611,61.127609923755124,-10,-0.33,0.33,10,54,44,53.67,54.33,64,10,10,10,10
13,16,0.1944004000397399,w,62.8,Unlimited Time,h,80.73687011447589,62.778502783013316,34.06502114320663,64.1453219116839,34.06502114320663,62.778502783013316,64.1453219116839,80.73687011447589,-10,-0.33,0.33,10,54,44,53.67,54.33,64,10,10,10,10
13,17,0.07799930003238842,w,50.2,Unlimited Time,h,52.782660935133975,50.16827968308157,46.17601654251885,61.82331140237084,46.17601654251885,50.16827968308157,61.82331140237084,52.782660935133975,-10,-0.33,0.33,10,54,44,53.67,54.33,64,10,10,10,10
13,18,0.2277784000034444,w,57.8,Unlimited Time,h,53.92047438296433,57.7830382316571,48.46395655845929,47.09101814431814,48.46395655845929,57.7830382316571,47.09101814431814,53.92047438296433,-10,-0.33,0.33,10,54,44,53.67,54.33,64,10,10,10,10
13,19,0.1026737000211142,w,52.1,Unlimited Time,h,64.38025061046257,52.108769111916466,51.515240686210646,54.508008852683666,51.515240686210646,52.108769111916466,54.508008852683666,64.38025061046257,-10,-0.33,0.33,10,54,44,53.67,54.33,64,10,10,10,10
13,20,0.12017760000890121,w,33.0,Unlimited Time,h,85.82504409693433,32.981800736547726,35.002801334345264,69.51651762268057,35.002801334345264,32.981800736547726,69.51651762268057,85.82504409693433,-10,-0.33,0.33,10,54,44,53.67,54.33,64,10,10,10,10
14,1,0.24982860003365204,q,59.2,Limited Time,i,59.2297783633396,72.8613873271142,44.502540659121074,70.2344342192917,44.502540659121074,59.2297783633396,70.2344342192917,72.8613873271142,-10,-10,10,10,54,44,44,64,64,3.1622776601683795,10,3.1622776601683795,10
14,2,0.06655240000691265,q,52.3,Limited Time,i,52.27340501664413,67.81544421412016,40.349038292976715,62.08657410949119,40.349038292976715,52.27340501664413,62.08657410949119,67.81544421412016,-10,-10,10,10,54,44,44,64,64,3.1622776601683795,10,3.1622776601683795,10
14,3,0.1918422000017017,q,63.1,Limited Time,i,63.13114765586103,47.86712806100873,42.09723740751581,64.12098507715235,42.09723740751581,63.13114765586103,64.12098507715235,47.86712806100873,-10,-10,10,10,54,44,44,64,64,3.1622776601683795,10,3.1622776601683795,10
14,4,0.1707637999788858,q,28.1,Limited Time,i,28.0787138707568,68.89536142336948,44.68116894190515,63.118243446351435,44.68116894190515,28.0787138707568,63.118243446351435,68.89536142336948,-10,-10,10,10,54,44,44,64,64,3.1622776601683795,10,3.1622776601683795,10
14,5,0.028916899987962097,q,40.5,Limited Time,i,40.50426047298983,60.129015169824214,46.46185724844552,68.40392027395174,46.46185724844552,40.50426047298983,68.40392027395174,60.129015169824214,-10,-10,10,10,54,44,44,64,64,3.1622776601683795,10,3.1622776601683795,10
14,6,0.07490349997533485,w,51.1,Limited Time,i,41.18659821687336,51.06549113986095,42.678618409620896,64.62987097486126,42.678618409620896,41.18659821687336,64.62987097486126,51.06549113986095,-10,-10,10,10,54,44,44,64,64,3.1622776601683795,10,3.1622776601683795,10
14,7,0.1966260999906808,w,53.3,Limited Time,i,41.32852456135256,53.25419941433155,48.09652464945086,65.92364412822543,48.09652464945086,41.32852456135256,65.92364412822543,53.25419941433155,-10,-10,10,10,54,44,44,64,64,3.1622776601683795,10,3.1622776601683795,10
14,8,0.024445599992759526,w,49.8,Limited Time,i,58.282608831796495,49.8339785667339,45.2641408242477,67.74083897433468,45.2641408242477,58.282608831796495,67.74083897433468,49.8339785667339,-10,-10,10,10,54,44,44,64,64,3.1622776601683795,10,3.1622776601683795,10
14,9,0.19645840005250648,w,47.6,Limited Time,i,52.36270693956282,47.56783328156098,48.42199890022373,58.200095891644466,48.42199890022373,52.36270693956282,58.200095891644466,47.56783328156098,-10,-10,10,10,54,44,44,64,64,3.1622776601683795,10,3.1622776601683795,10
14,10,0.1505000000470318,w,51.0,Limited Time,i,37.9856859393803,51.03526949250589,46.17026890063563,62.198501794870474,46.17026890063563,37.9856859393803,62.198501794870474,51.03526949250589,-10,-10,10,10,54,44,44,64,64,3.1622776601683795,10,3.1622776601683795,10
14,11,0.1128690000041388,o,45.0,Limited Time,i,36.98625952501776,63.27229694341661,44.95005291244839,65.2011419716564,44.95005291244839,36.98625952501776,65.2011419716564,63.27229694341661,-10,-10,10,10,54,44,44,64,64,3.1622776601683795,10,3.1622776601683795,10
14,12,0.038488199992571026,o,44.5,Limited Time,i,70.08028055239225,58.57608418079955,44.53478385385076,55.62347101386009,44.53478385385076,70.08028055239225,55.62347101386009,58.57608418079955,-10,-10,10,10,54,44,44,64,64,3.1622776601683795,10,3.1622776601683795,10
14,13,0.08005250000860542,o,44.1,Limited Time,i,40.018419209975725,53.88502728023238,44.09411764579424,62.39969520969737,44.09411764579424,40.018419209975725,62.39969520969737,53.88502728023238,-10,-10,10,10,54,44,44,64,64,3.1622776601683795,10,3.1622776601683795,10
14,14,0.0744018999976106,p,59.6,Limited Time,i,32.2654648528928,70.02939416517307,47.275226435447216,59.5807357421373,47.275226435447216,32.2654648528928,59.5807357421373,70.02939416517307,-10,-10,10,10,54,44,44,64,64,3.1622776601683795,10,3.1622776601683795,10
14,15,0.07209079997846857,p,59.8,Limited Time,i,37.750930379954625,50.57260101569783,47.88771698103841,59.801051804536165,47.88771698103841,37.750930379954625,59.801051804536165,50.57260101569783,-10,-10,10,10,54,44,44,64,64,3.1622776601683795,10,3.1622776601683795,10
14,16,0.18074500001966953,p,65.1,Limited Time,i,65.83604545001297,58.53179481671883,43.84549802298278,65.14310725802123,43.84549802298278,65.83604545001297,65.14310725802123,58.53179481671883,-10,-10,10,10,54,44,44,64,64,3.1622776601683795,10,3.1622776601683795,10
14,17,0.06411160004790872,p,64.8,Limited Time,i,55.85663155434213,73.68588566971184,46.30420625766824,64.82966585841606,46.30420625766824,55.85663155434213,64.82966585841606,73.68588566971184,-10,-10,10,10,54,44,44,64,64,3.1622776601683795,10,3.1622776601683795,10
14,18,0.06418700003996491,p,67.2,Limited Time,i,46.39823459588004,65.68892409622579,49.465116629645465,67.16134806159093,49.465116629645465,46.39823459588004,67.16134806159093,65.68892409622579,-10,-10,10,10,54,44,44,64,64,3.1622776601683795,10,3.1622776601683795,10
14,19,0.08866409998154268,p,65.1,Limited Time,i,33.99718379141218,62.41823469676309,39.388510961055445,65.13224304996747,39.388510961055445,33.99718379141218,65.13224304996747,62.41823469676309,-10,-10,10,10,54,44,44,64,64,3.1622776601683795,10,3.1622776601683795,10
14,20,0.055129800050053746,p,60.6,Limited Time,i,42.16932788470483,75.52706551763339,43.14378700404761,60.565552040616254,43.14378700404761,42.16932788470483,60.565552040616254,75.52706551763339,-10,-10,10,10,54,44,44,64,64,3.1622776601683795,10,3.1622776601683795,10
15,1,0.24688859999878332,p,68.4,Unlimited Time,l,55.39431312144205,50.10090197000972,44.69760139911731,68.39369865047684,44.69760139911731,55.39431312144205,50.10090197000972,68.39369865047684,-10,-0.33,0.33,10,54,44,53.67,54.33,64,3.1622776601683795,3.1622776601683795,3.1622776601683795,3.1622776601683795
15,2,0.13518959999782965,p,62.5,Unlimited Time,l,50.7682744410921,54.6521512901729,48.511684683272755,62.45179974781436,48.511684683272755,50.7682744410921,54.6521512901729,62.45179974781436,-10,-0.33,0.33,10,54,44,53.67,54.33,64,3.1622776601683795,3.1622776601683795,3.1622776601683795,3.1622776601683795
15,3,0.5681449000257999,o,45.2,Unlimited Time,l,52.57922901490742,52.186192269925456,45.22756518899374,61.69800231028729,45.22756518899374,52.57922901490742,52.186192269925456,61.69800231028729,-10,-0.33,0.33,10,54,44,53.67,54.33,64,3.1622776601683795,3.1622776601683795,3.1622776601683795,3.1622776601683795
15,4,0.006140499957837164,p,70.7,Unlimited Time,l,51.94753067400972,51.77841165971519,40.86024034842812,70.66578870082523,40.86024034842812,51.94753067400972,51.77841165971519,70.66578870082523,-10,-0.33,0.33,10,54,44,53.67,54.33,64,3.1622776601683795,3.1622776601683795,3.1622776601683795,3.1622776601683795
15,5,0.047718099958729,o,45.4,Unlimited Time,l,54.925508989980784,59.125663905720074,45.3558533936012,68.56171088760985,45.3558533936012,54.925508989980784,59.125663905720074,68.56171088760985,-10,-0.33,0.33,10,54,44,53.67,54.33,64,3.1622776601683795,3.1622776601683795,3.1622776601683795,3.1622776601683795
15,6,0.06781999999657273,o,47.8,Unlimited Time,l,49.50310949674758,57.38965613751475,47.821317686881436,68.63256424400292,47.821317686881436,49.50310949674758,57.38965613751475,68.63256424400292,-10,-0.33,0.33,10,54,44,53.67,54.33,64,3.1622776601683795,3.1622776601683795,3.1622776601683795,3.1622776601683795
15,7,0.10640989994863048,p,64.8,Unlimited Time,l,56.51341472537707,60.695354494576684,46.00063431480557,64.81232344701496,46.00063431480557,56.51341472537707,60.695354494576684,64.81232344701496,-10,-0.33,0.33,10,54,44,53.67,54.33,64,3.1622776601683795,3.1622776601683795,3.1622776601683795,3.1622776601683795
15,8,0.023173300025518984,p,60.3,Unlimited Time,l,59.436442650421505,61.24026555369278,42.906232588014774,60.33503218483017,42.906232588014774,59.436442650421505,61.24026555369278,60.33503218483017,-10,-0.33,0.33,10,54,44,53.67,54.33,64,3.1622776601683795,3.1622776601683795,3.1622776601683795,3.1622776601683795
15,9,0.06136069999774918,p,67.8,Unlimited Time,l,54.629127043140215,57.88664990959963,43.89059284508986,67.79678798003721,43.89059284508986,54.629127043140215,57.88664990959963,67.79678798003721,-10,-0.33,0.33,10,54,44,53.67,54.33,64,3.1622776601683795,3.1622776601683795,3.1622776601683795,3.1622776601683795
15,10,0.027450499997939914,p,61.1,Unlimited Time,l,53.9644901447273,52.46925148241261,44.19103512943785,61.12235325309351,44.19103512943785,53.9644901447273,52.46925148241261,61.12235325309351,-10,-0.33,0.33,10,54,44,53.67,54.33,64,3.1622776601683795,3.1622776601683795,3.1622776601683795,3.1622776601683795
15,11,0.1269736999529414,o,43.2,Unlimited Time,l,55.21214706813559,54.414740926016854,43.247486822000994,69.346379406207,43.247486822000994,55.21214706813559,54.414740926016854,69.346379406207,-10,-0.33,0.33,10,54,44,53.67,54.33,64,3.1622776601683795,3.1622776601683795,3.1622776601683795,3.1622776601683795
15,12,0.06490620004478842,o,49.6,Unlimited Time,l,56.06878982873325,46.838707851989206,49.58067969048513,64.21427493177126,49.58067969048513,56.06878982873325,46.838707851989206,64.21427493177126,-10,-0.33,0.33,10,54,44,53.67,54.33,64,3.1622776601683795,3.1622776601683795,3.1622776601683795,3.1622776601683795
15,13,0.05694260000018403,o,49.2,Unlimited Time,l,53.148319381917204,52.272025319051345,49.17123901897971,58.41259391097687,49.17123901897971,53.148319381917204,52.272025319051345,58.41259391097687,-10,-0.33,0.33,10,54,44,53.67,54.33,64,3.1622776601683795,3.1622776601683795,3.1622776601683795,3.1622776601683795
15,14,0.17320019996259362,o,46.2,Unlimited Time,l,53.45227973284512,54.61727796856731,46.22047910833484,56.92882047237895,46.22047910833484,53.45227973284512,54.61727796856731,56.92882047237895,-10,-0.33,0.33,10,54,44,53.67,54.33,64,3.1622776601683795,3.1622776601683795,3.1622776601683795,3.1622776601683795
15,15,0.060598299955017865,p,63.8,Unlimited Time,l,52.31468852895241,55.814776797278675,45.75438151678916,63.77668176061194,45.75438151678916,52.31468852895241,55.814776797278675,63.77668176061194,-10,-0.33,0.33,10,54,44,53.67,54.33,64,3.1622776601683795,3.1622776601683795,3.1622776601683795,3.1622776601683795
15,16,0.15163109998684376,p,66.6,Unlimited Time,l,56.78392953633747,53.859216142715056,45.63543669213867,66.63578624136821,45.63543669213867,56.78392953633747,53.859216142715056,66.63578624136821,-10,-0.33,0.33,10,54,44,53.67,54.33,64,3.1622776601683795,3.1622776601683795,3.1622776601683795,3.1622776601683795
15,17,0.031901200010906905,p,67.9,Unlimited Time,l,50.68826277543698,51.188537013465506,45.427321669188665,67.87585150595129,45.427321669188665,50.68826277543698,51.188537013465506,67.87585150595129,-10,-0.33,0.33,10,54,44,53.67,54.33,64,3.1622776601683795,3.1622776601683795,3.1622776601683795,3.1622776601683795
15,18,0.006455900031141937,o,44.2,Unlimited Time,l,54.5727644288363,58.95373375268081,44.20358450443156,69.27159986690812,44.20358450443156,54.5727644288363,58.95373375268081,69.27159986690812,-10,-0.33,0.33,10,54,44,53.67,54.33,64,3.1622776601683795,3.1622776601683795,3.1622776601683795,3.1622776601683795
15,19,0.18611190002411604,o,44.0,Unlimited Time,l,53.163716063114194,57.7186504354243,43.98433715675675,61.42146772756906,43.98433715675675,53.163716063114194,57.7186504354243,61.42146772756906,-10,-0.33,0.33,10,54,44,53.67,54.33,64,3.1622776601683795,3.1622776601683795,3.1622776601683795,3.1622776601683795
15,20,0.0947992000146769,o,48.1,Unlimited Time,l,52.923702492418435,52.45186639799198,48.12165447107,64.2186490443425,48.12165447107,52.923702492418435,52.45186639799198,64.2186490443425,-10,-0.33,0.33,10,54,44,53.67,54.33,64,3.1622776601683795,3.1622776601683795,3.1622776601683795,3.1622776601683795
16,1,,,0.0,Limited Time,e,54.7772286063217,61.33750793963492,51.434459306717656,61.9349549666767,51.434459306717656,61.9349549666767,54.7772286063217,61.33750793963492,0,0,0,0,54,54,54,54,54,3.1622776601683795,6.324555320336759,8.366600265340756,10
16,2,0.08271679998142645,w,60.9,Limited Time,e,59.01343202041274,60.93981637512652,54.32440719742532,49.85616396805996,54.32440719742532,49.85616396805996,59.01343202041274,60.93981637512652,0,0,0,0,54,54,54,54,54,3.1622776601683795,6.324555320336759,8.366600265340756,10
16,3,0.154145399981644,w,61.8,Limited Time,e,50.62226774043485,61.78931658990848,53.57243122272745,52.897358405171005,53.57243122272745,52.897358405171005,50.62226774043485,61.78931658990848,0,0,0,0,54,54,54,54,54,3.1622776601683795,6.324555320336759,8.366600265340756,10
16,4,0.1050567000056617,o,55.1,Limited Time,e,33.28575431506434,43.97794094284771,55.0895235673631,50.442757089393986,55.0895235673631,50.442757089393986,33.28575431506434,43.97794094284771,0,0,0,0,54,54,54,54,54,3.1622776601683795,6.324555320336759,8.366600265340756,10
16,5,0.12976950005395338,o,51.2,Limited Time,e,54.29293356315593,68.4078829472501,51.16572620939649,59.942810017630414,51.16572620939649,59.942810017630414,54.29293356315593,68.4078829472501,0,0,0,0,54,54,54,54,54,3.1622776601683795,6.324555320336759,8.366600265340756,10
16,6,0.09905229997821152,q,63.4,Limited Time,e,63.42725450574265,42.84247871939727,54.43310172886701,57.393700189146536,54.43310172886701,57.393700189146536,63.42725450574265,42.84247871939727,0,0,0,0,54,54,54,54,54,3.1622776601683795,6.324555320336759,8.366600265340756,10
16,7,0.11528610001550987,p,54.5,Limited Time,e,55.32468290936897,56.773858519206094,55.9441222073417,54.47846765210366,55.9441222073417,54.47846765210366,55.32468290936897,56.773858519206094,0,0,0,0,54,54,54,54,54,3.1622776601683795,6.324555320336759,8.366600265340756,10
16,8,0.05995870003243908,p,64.8,Limited Time,e,46.14559450726795,53.33550472341652,51.570519014358304,64.82863164905191,51.570519014358304,64.82863164905191,46.14559450726795,53.33550472341652,0,0,0,0,54,54,54,54,54,3.1622776601683795,6.324555320336759,8.366600265340756,10
16,9,0.20273469999665394,o,57.1,Limited Time,e,55.80368079556695,51.41104685313018,57.06237613375034,46.88449302603366,57.06237613375034,46.88449302603366,55.80368079556695,51.41104685313018,0,0,0,0,54,54,54,54,54,3.1622776601683795,6.324555320336759,8.366600265340756,10
16,10,0.005555399984586984,w,46.0,Limited Time,e,47.14367155344127,45.99807174083269,50.237446782170096,57.55916389517467,50.237446782170096,57.55916389517467,47.14367155344127,45.99807174083269,0,0,0,0,54,54,54,54,54,3.1622776601683795,6.324555320336759,8.366600265340756,10
16,11,0.09256449999520555,o,50.9,Limited Time,e,58.19415135920574,42.83277058280109,50.89274646589142,47.53340049437749,50.89274646589142,47.53340049437749,58.19415135920574,42.83277058280109,0,0,0,0,54,54,54,54,54,3.1622776601683795,6.324555320336759,8.366600265340756,10
16,12,0.046687599970027804,w,56.5,Limited Time,e,67.99527682433339,56.470442147059345,52.999307406274866,60.89505546356313,52.999307406274866,60.89505546356313,67.99527682433339,56.470442147059345,0,0,0,0,54,54,54,54,54,3.1622776601683795,6.324555320336759,8.366600265340756,10
16,13,0.05132909998064861,o,58.2,Limited Time,e,58.19576468381404,39.64702453584708,58.185707987072895,48.81884620307252,58.185707987072895,48.81884620307252,58.19576468381404,39.64702453584708,0,0,0,0,54,54,54,54,54,3.1622776601683795,6.324555320336759,8.366600265340756,10
16,14,0.08821200003148988,o,55.4,Limited Time,e,32.18680266176774,56.52309642008432,55.379941534244466,46.112202861413515,55.379941534244466,46.112202861413515,32.18680266176774,56.52309642008432,0,0,0,0,54,54,54,54,54,3.1622776601683795,6.324555320336759,8.366600265340756,10
16,15,0.09233339998172596,p,59.2,Limited Time,e,56.303828305799854,53.033448474923766,55.876428785517575,59.189181046335364,55.876428785517575,59.189181046335364,56.303828305799854,53.033448474923766,0,0,0,0,54,54,54,54,54,3.1622776601683795,6.324555320336759,8.366600265340756,10
16,16,0.058319800009485334,q,53.4,Limited Time,e,53.42163583424517,57.00724758076867,50.98652120331665,49.93226240481921,50.98652120331665,49.93226240481921,53.42163583424517,57.00724758076867,0,0,0,0,54,54,54,54,54,3.1622776601683795,6.324555320336759,8.366600265340756,10
16,17,0.17190789995947853,p,53.6,Limited Time,e,39.9563204929003,53.754295291361345,59.20807603479897,53.60445320019274,59.20807603479897,53.60445320019274,39.9563204929003,53.754295291361345,0,0,0,0,54,54,54,54,54,3.1622776601683795,6.324555320336759,8.366600265340756,10
16,18,0.06760909996228293,o,55.7,Limited Time,e,45.57770149610231,54.27472707148374,55.671163382678934,44.326861262727505,55.671163382678934,44.326861262727505,45.57770149610231,54.27472707148374,0,0,0,0,54,54,54,54,54,3.1622776601683795,6.324555320336759,8.366600265340756,10
16,19,0.15074829995865002,p,42.6,Limited Time,e,58.67348743817081,63.04247213708867,55.55582600329808,42.58684607541167,55.55582600329808,42.58684607541167,58.67348743817081,63.04247213708867,0,0,0,0,54,54,54,54,54,3.1622776601683795,6.324555320336759,8.366600265340756,10
16,20,0.025020600005518645,q,54.2,Limited Time,e,54.17040261145671,75.41576441915167,52.480213545947336,48.64866027090167,52.480213545947336,48.64866027090167,54.17040261145671,75.41576441915167,0,0,0,0,54,54,54,54,54,3.1622776601683795,6.324555320336759,8.366600265340756,10
