Round Number,Trial Number,Reaction Time,Choice,Reward,Time Condition,Payoff Condition,Q mapped,W mapped,O mapped,P mapped,One value,Two value,Three value,Four value,One mean,Two mean,Three mean,Four mean,Mean Shift,One shifted mean,Two shifted mean,Three shifted mean,Four shifted mean,One SD,Two SD,Three SD,Four SD
1,1,0.20313960005296394,q,28.4,Unlimited Time,h,28.357852885736424,55.071831613346625,35.928574521923764,39.10029005544475,28.357852885736424,39.10029005544475,35.928574521923764,55.071831613346625,-10,-0.33,0.33,10,49,39,48.67,49.33,59,10,10,10,10
1,2,0.2697415000293404,q,35.5,Unlimited Time,h,35.510437310706244,71.80230417978215,63.28607067974979,36.40305368072457,35.510437310706244,36.40305368072457,63.28607067974979,71.80230417978215,-10,-0.33,0.33,10,49,39,48.67,49.33,59,10,10,10,10
1,3,0.0953080999897793,q,45.5,Unlimited Time,h,45.53030224361865,61.880427418799734,40.90496841525654,56.33313303109392,45.53030224361865,56.33313303109392,40.90496841525654,61.880427418799734,-10,-0.33,0.33,10,49,39,48.67,49.33,59,10,10,10,10
1,4,0.1286417000228539,w,66.7,Unlimited Time,h,41.53942898845931,66.67332296030658,40.657046179558826,45.97624102940145,41.53942898845931,45.97624102940145,40.657046179558826,66.67332296030658,-10,-0.33,0.33,10,49,39,48.67,49.33,59,10,10,10,10
1,5,0.03652429999783635,w,63.3,Unlimited Time,h,30.229439945278557,63.28950321969711,67.79446456468162,48.78613892776537,30.229439945278557,48.78613892776537,67.79446456468162,63.28950321969711,-10,-0.33,0.33,10,49,39,48.67,49.33,59,10,10,10,10
1,6,0.1579378999886103,w,58.7,Unlimited Time,h,50.24082852296167,58.6894260349119,46.90201356150557,50.539779178509434,50.24082852296167,50.539779178509434,46.90201356150557,58.6894260349119,-10,-0.33,0.33,10,49,39,48.67,49.33,59,10,10,10,10
1,7,0.014224399987142533,w,46.6,Unlimited Time,h,33.88791167193286,46.59226472870969,46.407879503714526,60.25892051423622,33.88791167193286,60.25892051423622,46.407879503714526,46.59226472870969,-10,-0.33,0.33,10,49,39,48.67,49.33,59,10,10,10,10
1,8,0.11612780002178624,o,44.9,Unlimited Time,h,50.61953958977226,67.51779454178141,44.88890011167809,32.115422547858344,50.61953958977226,32.115422547858344,44.88890011167809,67.51779454178141,-10,-0.33,0.33,10,49,39,48.67,49.33,59,10,10,10,10
1,9,0.1574597000144422,o,55.0,Unlimited Time,h,49.18495159749773,45.42023179501106,54.9832358704721,49.225601252721546,49.18495159749773,49.225601252721546,54.9832358704721,45.42023179501106,-10,-0.33,0.33,10,49,39,48.67,49.33,59,10,10,10,10
1,10,0.26191199995810166,p,43.7,Unlimited Time,h,42.07814971922391,59.655838128769446,37.526820905788966,43.74112353637422,42.07814971922391,43.74112353637422,37.526820905788966,59.655838128769446,-10,-0.33,0.33,10,49,39,48.67,49.33,59,10,10,10,10
1,11,0.05345959996338934,o,57.6,Unlimited Time,h,59.46769173142992,54.35898263046277,57.60859175503981,43.49629985154201,59.46769173142992,43.49629985154201,57.60859175503981,54.35898263046277,-10,-0.33,0.33,10,49,39,48.67,49.33,59,10,10,10,10
1,12,0.00902310002129525,p,46.6,Unlimited Time,h,46.378968300740965,62.029381284059646,49.24239379589595,46.553935146681894,46.378968300740965,46.553935146681894,49.24239379589595,62.029381284059646,-10,-0.33,0.33,10,49,39,48.67,49.33,59,10,10,10,10
1,13,0.14929070003563538,p,49.8,Unlimited Time,h,27.10887740577332,59.136999275261395,62.387035178013925,49.75553209235187,27.10887740577332,49.75553209235187,62.387035178013925,59.136999275261395,-10,-0.33,0.33,10,49,39,48.67,49.33,59,10,10,10,10
1,14,0.28307950001908466,p,51.7,Unlimited Time,h,38.254957187398105,59.538826375696175,58.98168648169052,51.664815517058386,38.254957187398105,51.664815517058386,58.98168648169052,59.538826375696175,-10,-0.33,0.33,10,49,39,48.67,49.33,59,10,10,10,10
1,15,0.008018299995455891,p,52.4,Unlimited Time,h,39.67914371018341,67.52516603589046,58.64625300223932,52.43135147267548,39.67914371018341,52.43135147267548,58.64625300223932,67.52516603589046,-10,-0.33,0.33,10,49,39,48.67,49.33,59,10,10,10,10
1,16,0.03739180002594367,p,39.2,Unlimited Time,h,48.65115532727171,74.79139480279854,55.64460985204412,39.21453677460116,48.65115532727171,39.21453677460116,55.64460985204412,74.79139480279854,-10,-0.33,0.33,10,49,39,48.67,49.33,59,10,10,10,10
1,17,0.0708223000401631,p,55.3,Unlimited Time,h,27.367901783004175,68.60195446583992,36.31316564946642,55.25665617302698,27.367901783004175,55.25665617302698,36.31316564946642,68.60195446583992,-10,-0.33,0.33,10,49,39,48.67,49.33,59,10,10,10,10
1,18,0.1709073000238277,p,57.5,Unlimited Time,h,41.248578358108304,21.651287965890063,47.1003199190315,57.51331103499621,41.248578358108304,57.51331103499621,47.1003199190315,21.651287965890063,-10,-0.33,0.33,10,49,39,48.67,49.33,59,10,10,10,10
1,19,0.05872910004109144,p,32.8,Unlimited Time,h,56.330222459535946,40.56157341492947,68.89972362128863,32.83186826750554,56.330222459535946,32.83186826750554,68.89972362128863,40.56157341492947,-10,-0.33,0.33,10,49,39,48.67,49.33,59,10,10,10,10
1,20,0.4748715999885462,p,52.1,Unlimited Time,h,47.92423766816809,87.61952101903786,43.28179940438962,52.147065853164634,47.92423766816809,52.147065853164634,43.28179940438962,87.61952101903786,-10,-0.33,0.33,10,49,39,48.67,49.33,59,10,10,10,10
2,1,0.25028629996813834,q,65.5,Limited Time,i,65.45318152196089,69.05385735658174,36.625999749399995,20.822565371942186,36.625999749399995,20.822565371942186,65.45318152196089,69.05385735658174,-10,-10,10,10,49,39,39,59,59,3.1622776601683795,10,3.1622776601683795,10
2,2,,,0.0,Limited Time,i,53.52009205626034,55.37684409320525,40.061226495236035,39.062039052146055,40.061226495236035,39.062039052146055,53.52009205626034,55.37684409320525,-10,-10,10,10,49,39,39,59,59,3.1622776601683795,10,3.1622776601683795,10
2,3,0.18048899999121204,w,55.8,Limited Time,i,62.91819055251365,55.778085056112644,39.91042413599588,66.99778164575878,39.91042413599588,66.99778164575878,62.91819055251365,55.778085056112644,-10,-10,10,10,49,39,39,59,59,3.1622776601683795,10,3.1622776601683795,10
2,4,0.18837789999088272,w,39.7,Limited Time,i,63.219282216060265,39.717684840936826,34.08583285286506,66.6188635999381,34.08583285286506,66.6188635999381,63.219282216060265,39.717684840936826,-10,-10,10,10,49,39,39,59,59,3.1622776601683795,10,3.1622776601683795,10
2,5,0.14249459997517988,w,54.6,Limited Time,i,57.30838278743024,54.58132893214824,38.64050960653873,24.76624356928271,38.64050960653873,24.76624356928271,57.30838278743024,54.58132893214824,-10,-10,10,10,49,39,39,59,59,3.1622776601683795,10,3.1622776601683795,10
2,6,0.23339929996291175,w,56.4,Limited Time,i,59.42629850538813,56.39054712749741,42.3527039497851,54.03473473727202,42.3527039497851,54.03473473727202,59.42629850538813,56.39054712749741,-10,-10,10,10,49,39,39,59,59,3.1622776601683795,10,3.1622776601683795,10
2,7,0.16763439995702356,w,50.1,Limited Time,i,61.074145783266125,50.07102524237702,34.90626884552847,28.041557968662673,34.90626884552847,28.041557968662673,61.074145783266125,50.07102524237702,-10,-10,10,10,49,39,39,59,59,3.1622776601683795,10,3.1622776601683795,10
2,8,0.16339599998900667,w,58.3,Limited Time,i,56.05490136416921,58.30794579498182,35.75322943752079,54.91427078379698,35.75322943752079,54.91427078379698,56.05490136416921,58.30794579498182,-10,-10,10,10,49,39,39,59,59,3.1622776601683795,10,3.1622776601683795,10
2,9,0.15100849996088073,w,51.2,Limited Time,i,56.39121462844817,51.21039610428443,41.103779445154224,59.60953932742594,41.103779445154224,59.60953932742594,56.39121462844817,51.21039610428443,-10,-10,10,10,49,39,39,59,59,3.1622776601683795,10,3.1622776601683795,10
2,10,0.05125359998783097,w,46.7,Limited Time,i,59.21141238026464,46.70150302499768,36.67740141814559,47.69885897030235,36.67740141814559,47.69885897030235,59.21141238026464,46.70150302499768,-10,-10,10,10,49,39,39,59,59,3.1622776601683795,10,3.1622776601683795,10
2,11,0.13913600001251325,w,60.0,Limited Time,i,54.38130685429165,59.953631403599715,40.043190106234455,46.90125875542473,40.043190106234455,46.90125875542473,54.38130685429165,59.953631403599715,-10,-10,10,10,49,39,39,59,59,3.1622776601683795,10,3.1622776601683795,10
2,12,0.3427366999676451,q,61.8,Limited Time,i,61.8453050867935,64.18585323184953,41.02722333840693,28.86435689118122,41.02722333840693,28.86435689118122,61.8453050867935,64.18585323184953,-10,-10,10,10,49,39,39,59,59,3.1622776601683795,10,3.1622776601683795,10
2,13,0.1972548000048846,w,58.1,Limited Time,i,55.924941149164226,58.136063145550146,37.962579189483954,30.88115814576261,37.962579189483954,30.88115814576261,55.924941149164226,58.136063145550146,-10,-10,10,10,49,39,39,59,59,3.1622776601683795,10,3.1622776601683795,10
2,14,0.001213999988976866,p,59.4,Limited Time,i,61.47504702514441,48.39571526964872,40.0372768802815,59.43464466268557,40.0372768802815,59.43464466268557,61.47504702514441,48.39571526964872,-10,-10,10,10,49,39,39,59,59,3.1622776601683795,10,3.1622776601683795,10
2,15,0.027012999984435737,w,51.2,Limited Time,i,61.77833382384499,51.22515620861499,37.48782432994097,26.347751026753023,37.48782432994097,26.347751026753023,61.77833382384499,51.22515620861499,-10,-10,10,10,49,39,39,59,59,3.1622776601683795,10,3.1622776601683795,10
2,16,0.19985119998455048,o,38.4,Limited Time,i,59.18898241293487,51.09807030245632,38.41771661865462,40.82795336701799,38.41771661865462,40.82795336701799,59.18898241293487,51.09807030245632,-10,-10,10,10,49,39,39,59,59,3.1622776601683795,10,3.1622776601683795,10
2,17,0.0009443999733775854,w,54.3,Limited Time,i,52.7501898387025,54.304589540999736,41.37804030811611,38.871765623905404,41.37804030811611,38.871765623905404,52.7501898387025,54.304589540999736,-10,-10,10,10,49,39,39,59,59,3.1622776601683795,10,3.1622776601683795,10
2,18,0.039567200001329184,o,44.4,Limited Time,i,62.04987690805541,57.99825751440113,44.409044883191335,41.34700611103607,44.409044883191335,41.34700611103607,62.04987690805541,57.99825751440113,-10,-10,10,10,49,39,39,59,59,3.1622776601683795,10,3.1622776601683795,10
2,19,0.1683482999796979,o,39.0,Limited Time,i,60.867846018407555,67.36389748995727,39.03785091826544,39.984829161138116,39.03785091826544,39.984829161138116,60.867846018407555,67.36389748995727,-10,-10,10,10,49,39,39,59,59,3.1622776601683795,10,3.1622776601683795,10
2,20,0.06426180002745241,q,57.3,Limited Time,i,57.31412396157567,60.173195109736064,33.77741699146846,51.53401130428996,33.77741699146846,51.53401130428996,57.31412396157567,60.173195109736064,-10,-10,10,10,49,39,39,59,59,3.1622776601683795,10,3.1622776601683795,10
3,1,0.26818110002204776,w,51.2,Unlimited Time,l,41.64616958953955,51.24601361140417,56.879303865828724,50.46164226101737,41.64616958953955,50.46164226101737,51.24601361140417,56.879303865828724,-10,-0.33,0.33,10,49,39,48.67,49.33,59,3.1622776601683795,3.1622776601683795,3.1622776601683795,3.1622776601683795
3,2,0.16946180001832545,w,50.8,Unlimited Time,l,34.34789682202389,50.849226383358776,56.79819376761906,48.258039236610976,34.34789682202389,48.258039236610976,50.849226383358776,56.79819376761906,-10,-0.33,0.33,10,49,39,48.67,49.33,59,3.1622776601683795,3.1622776601683795,3.1622776601683795,3.1622776601683795
3,3,0.01973180001368746,o,56.5,Unlimited Time,l,41.31122358343647,48.79424561488598,56.47554837135552,46.588728911182834,41.31122358343647,46.588728911182834,48.79424561488598,56.47554837135552,-10,-0.33,0.33,10,49,39,48.67,49.33,59,3.1622776601683795,3.1622776601683795,3.1622776601683795,3.1622776601683795
3,4,0.13192229997366667,o,63.6,Unlimited Time,l,38.64920966763194,47.67562719990225,63.55325956494517,50.017013435665355,38.64920966763194,50.017013435665355,47.67562719990225,63.55325956494517,-10,-0.33,0.33,10,49,39,48.67,49.33,59,3.1622776601683795,3.1622776601683795,3.1622776601683795,3.1622776601683795
3,5,0.1065641000168398,o,62.7,Unlimited Time,l,33.906343969492966,49.34032969199539,62.714612723568266,48.969631627124336,33.906343969492966,48.969631627124336,49.34032969199539,62.714612723568266,-10,-0.33,0.33,10,49,39,48.67,49.33,59,3.1622776601683795,3.1622776601683795,3.1622776601683795,3.1622776601683795
3,6,0.13613589998567477,o,61.2,Unlimited Time,l,42.44170401248324,47.80563884258965,61.169676004036646,48.77332620621,42.44170401248324,48.77332620621,47.80563884258965,61.169676004036646,-10,-0.33,0.33,10,49,39,48.67,49.33,59,3.1622776601683795,3.1622776601683795,3.1622776601683795,3.1622776601683795
3,7,0.14377550000790507,o,58.7,Unlimited Time,l,39.2493447837475,51.87962835308952,58.702731335316,48.38805234352829,39.2493447837475,48.38805234352829,51.87962835308952,58.702731335316,-10,-0.33,0.33,10,49,39,48.67,49.33,59,3.1622776601683795,3.1622776601683795,3.1622776601683795,3.1622776601683795
3,8,0.1515147999743931,p,47.5,Unlimited Time,l,41.04027455744066,49.02681092698566,61.1080420129713,47.46296668307016,41.04027455744066,47.46296668307016,49.02681092698566,61.1080420129713,-10,-0.33,0.33,10,49,39,48.67,49.33,59,3.1622776601683795,3.1622776601683795,3.1622776601683795,3.1622776601683795
3,9,0.09206779999658465,p,50.3,Unlimited Time,l,40.49722131625131,47.33156567781046,56.90590239378993,50.25850909586793,40.49722131625131,50.25850909586793,47.33156567781046,56.90590239378993,-10,-0.33,0.33,10,49,39,48.67,49.33,59,3.1622776601683795,3.1622776601683795,3.1622776601683795,3.1622776601683795
3,10,0.07794990000547841,p,49.3,Unlimited Time,l,41.3633869465422,47.371094771776605,62.33611854682939,49.34513949675664,41.3633869465422,49.34513949675664,47.371094771776605,62.33611854682939,-10,-0.33,0.33,10,49,39,48.67,49.33,59,3.1622776601683795,3.1622776601683795,3.1622776601683795,3.1622776601683795
3,11,0.08800129999872297,p,50.4,Unlimited Time,l,40.66196635152252,50.84356244342575,57.78985761274131,50.43764965031108,40.66196635152252,50.43764965031108,50.84356244342575,57.78985761274131,-10,-0.33,0.33,10,49,39,48.67,49.33,59,3.1622776601683795,3.1622776601683795,3.1622776601683795,3.1622776601683795
3,12,0.10687389998929575,p,52.5,Unlimited Time,l,41.192957413967356,45.37383943734031,56.985889492959345,52.53070876602104,41.192957413967356,52.53070876602104,45.37383943734031,56.985889492959345,-10,-0.33,0.33,10,49,39,48.67,49.33,59,3.1622776601683795,3.1622776601683795,3.1622776601683795,3.1622776601683795
3,13,0.19977050001034513,o,60.5,Unlimited Time,l,39.55416680081228,44.53977563872985,60.4543719572815,47.46382624745868,39.55416680081228,47.46382624745868,44.53977563872985,60.4543719572815,-10,-0.33,0.33,10,49,39,48.67,49.33,59,3.1622776601683795,3.1622776601683795,3.1622776601683795,3.1622776601683795
3,14,0.15727919997880235,o,58.1,Unlimited Time,l,34.1691719455765,49.93337961410999,58.06283635349158,52.56899931696651,34.1691719455765,52.56899931696651,49.93337961410999,58.06283635349158,-10,-0.33,0.33,10,49,39,48.67,49.33,59,3.1622776601683795,3.1622776601683795,3.1622776601683795,3.1622776601683795
3,15,0.11197720002382994,o,59.5,Unlimited Time,l,34.62960227770055,52.80291192462133,59.50192399168233,51.21366080863394,34.62960227770055,51.21366080863394,52.80291192462133,59.50192399168233,-10,-0.33,0.33,10,49,39,48.67,49.33,59,3.1622776601683795,3.1622776601683795,3.1622776601683795,3.1622776601683795
3,16,0.07893840002361685,o,60.1,Unlimited Time,l,40.90730532537391,53.32909575723676,60.10603093079879,49.16266871621297,40.90730532537391,49.16266871621297,53.32909575723676,60.10603093079879,-10,-0.33,0.33,10,49,39,48.67,49.33,59,3.1622776601683795,3.1622776601683795,3.1622776601683795,3.1622776601683795
3,17,0.07826480001676828,w,49.9,Unlimited Time,l,37.48216270797577,49.937051486924396,55.891083557587,50.53368250275768,37.48216270797577,50.53368250275768,49.937051486924396,55.891083557587,-10,-0.33,0.33,10,49,39,48.67,49.33,59,3.1622776601683795,3.1622776601683795,3.1622776601683795,3.1622776601683795
3,18,0.11664829996880144,o,61.2,Unlimited Time,l,38.235659930003564,49.925743513852396,61.20073721845813,46.36049000312829,38.235659930003564,46.36049000312829,49.925743513852396,61.20073721845813,-10,-0.33,0.33,10,49,39,48.67,49.33,59,3.1622776601683795,3.1622776601683795,3.1622776601683795,3.1622776601683795
3,19,0.008856299973558635,w,50.5,Unlimited Time,l,39.37964566504206,50.545196549763624,64.95215387860016,48.538803027640476,39.37964566504206,48.538803027640476,50.545196549763624,64.95215387860016,-10,-0.33,0.33,10,49,39,48.67,49.33,59,3.1622776601683795,3.1622776601683795,3.1622776601683795,3.1622776601683795
3,20,0.0495935000362806,o,58.1,Unlimited Time,l,41.247771296267665,48.41783960033954,58.07068041526038,50.25461728514523,41.247771296267665,50.25461728514523,48.41783960033954,58.07068041526038,-10,-0.33,0.33,10,49,39,48.67,49.33,59,3.1622776601683795,3.1622776601683795,3.1622776601683795,3.1622776601683795
4,1,0.008152299968060106,o,50.5,Limited Time,l,51.24601361140417,41.64616958953955,50.46164226101737,56.879303865828724,41.64616958953955,50.46164226101737,51.24601361140417,56.879303865828724,-10,-0.33,0.33,10,49,39,48.67,49.33,59,3.1622776601683795,3.1622776601683795,3.1622776601683795,3.1622776601683795
4,2,0.030682899989187717,w,34.3,Limited Time,l,50.849226383358776,34.34789682202389,48.258039236610976,56.79819376761906,34.34789682202389,48.258039236610976,50.849226383358776,56.79819376761906,-10,-0.33,0.33,10,49,39,48.67,49.33,59,3.1622776601683795,3.1622776601683795,3.1622776601683795,3.1622776601683795
4,3,0.08824829995865002,o,46.6,Limited Time,l,48.79424561488598,41.31122358343647,46.588728911182834,56.47554837135552,41.31122358343647,46.588728911182834,48.79424561488598,56.47554837135552,-10,-0.33,0.33,10,49,39,48.67,49.33,59,3.1622776601683795,3.1622776601683795,3.1622776601683795,3.1622776601683795
4,4,0.09133450000081211,o,50.0,Limited Time,l,47.67562719990225,38.64920966763194,50.017013435665355,63.55325956494517,38.64920966763194,50.017013435665355,47.67562719990225,63.55325956494517,-10,-0.33,0.33,10,49,39,48.67,49.33,59,3.1622776601683795,3.1622776601683795,3.1622776601683795,3.1622776601683795
4,5,0.03347849997226149,w,33.9,Limited Time,l,49.34032969199539,33.906343969492966,48.969631627124336,62.714612723568266,33.906343969492966,48.969631627124336,49.34032969199539,62.714612723568266,-10,-0.33,0.33,10,49,39,48.67,49.33,59,3.1622776601683795,3.1622776601683795,3.1622776601683795,3.1622776601683795
4,6,0.016918799956329167,w,42.4,Limited Time,l,47.80563884258965,42.44170401248324,48.77332620621,61.169676004036646,42.44170401248324,48.77332620621,47.80563884258965,61.169676004036646,-10,-0.33,0.33,10,49,39,48.67,49.33,59,3.1622776601683795,3.1622776601683795,3.1622776601683795,3.1622776601683795
4,7,0.09316180000314489,o,48.4,Limited Time,l,51.87962835308952,39.2493447837475,48.38805234352829,58.702731335316,39.2493447837475,48.38805234352829,51.87962835308952,58.702731335316,-10,-0.33,0.33,10,49,39,48.67,49.33,59,3.1622776601683795,3.1622776601683795,3.1622776601683795,3.1622776601683795
4,8,0.10803070000838488,w,41.0,Limited Time,l,49.02681092698566,41.04027455744066,47.46296668307016,61.1080420129713,41.04027455744066,47.46296668307016,49.02681092698566,61.1080420129713,-10,-0.33,0.33,10,49,39,48.67,49.33,59,3.1622776601683795,3.1622776601683795,3.1622776601683795,3.1622776601683795
4,9,0.13325700000859797,o,50.3,Limited Time,l,47.33156567781046,40.49722131625131,50.25850909586793,56.90590239378993,40.49722131625131,50.25850909586793,47.33156567781046,56.90590239378993,-10,-0.33,0.33,10,49,39,48.67,49.33,59,3.1622776601683795,3.1622776601683795,3.1622776601683795,3.1622776601683795
4,10,0.018148999952245504,p,62.3,Limited Time,l,47.371094771776605,41.3633869465422,49.34513949675664,62.33611854682939,41.3633869465422,49.34513949675664,47.371094771776605,62.33611854682939,-10,-0.33,0.33,10,49,39,48.67,49.33,59,3.1622776601683795,3.1622776601683795,3.1622776601683795,3.1622776601683795
4,11,0.05017649999354035,q,50.8,Limited Time,l,50.84356244342575,40.66196635152252,50.43764965031108,57.78985761274131,40.66196635152252,50.43764965031108,50.84356244342575,57.78985761274131,-10,-0.33,0.33,10,49,39,48.67,49.33,59,3.1622776601683795,3.1622776601683795,3.1622776601683795,3.1622776601683795
4,12,0.0166233999771066,w,41.2,Limited Time,l,45.37383943734031,41.192957413967356,52.53070876602104,56.985889492959345,41.192957413967356,52.53070876602104,45.37383943734031,56.985889492959345,-10,-0.33,0.33,10,49,39,48.67,49.33,59,3.1622776601683795,3.1622776601683795,3.1622776601683795,3.1622776601683795
4,13,0.07953649997944012,o,47.5,Limited Time,l,44.53977563872985,39.55416680081228,47.46382624745868,60.4543719572815,39.55416680081228,47.46382624745868,44.53977563872985,60.4543719572815,-10,-0.33,0.33,10,49,39,48.67,49.33,59,3.1622776601683795,3.1622776601683795,3.1622776601683795,3.1622776601683795
4,14,0.13743019994581118,p,58.1,Limited Time,l,49.93337961410999,34.1691719455765,52.56899931696651,58.06283635349158,34.1691719455765,52.56899931696651,49.93337961410999,58.06283635349158,-10,-0.33,0.33,10,49,39,48.67,49.33,59,3.1622776601683795,3.1622776601683795,3.1622776601683795,3.1622776601683795
4,15,0.030585200001951307,q,52.8,Limited Time,l,52.80291192462133,34.62960227770055,51.21366080863394,59.50192399168233,34.62960227770055,51.21366080863394,52.80291192462133,59.50192399168233,-10,-0.33,0.33,10,49,39,48.67,49.33,59,3.1622776601683795,3.1622776601683795,3.1622776601683795,3.1622776601683795
4,16,0.01379370002541691,o,49.2,Limited Time,l,53.32909575723676,40.90730532537391,49.16266871621297,60.10603093079879,40.90730532537391,49.16266871621297,53.32909575723676,60.10603093079879,-10,-0.33,0.33,10,49,39,48.67,49.33,59,3.1622776601683795,3.1622776601683795,3.1622776601683795,3.1622776601683795
4,17,0.10114819998852909,o,50.5,Limited Time,l,49.937051486924396,37.48216270797577,50.53368250275768,55.891083557587,37.48216270797577,50.53368250275768,49.937051486924396,55.891083557587,-10,-0.33,0.33,10,49,39,48.67,49.33,59,3.1622776601683795,3.1622776601683795,3.1622776601683795,3.1622776601683795
4,18,0.01339799998095259,q,49.9,Limited Time,l,49.925743513852396,38.235659930003564,46.36049000312829,61.20073721845813,38.235659930003564,46.36049000312829,49.925743513852396,61.20073721845813,-10,-0.33,0.33,10,49,39,48.67,49.33,59,3.1622776601683795,3.1622776601683795,3.1622776601683795,3.1622776601683795
4,19,0.06370329996570945,w,39.4,Limited Time,l,50.545196549763624,39.37964566504206,48.538803027640476,64.95215387860016,39.37964566504206,48.538803027640476,50.545196549763624,64.95215387860016,-10,-0.33,0.33,10,49,39,48.67,49.33,59,3.1622776601683795,3.1622776601683795,3.1622776601683795,3.1622776601683795
4,20,0.0006658000056631863,o,50.3,Limited Time,l,48.41783960033954,41.247771296267665,50.25461728514523,58.07068041526038,41.247771296267665,50.25461728514523,48.41783960033954,58.07068041526038,-10,-0.33,0.33,10,49,39,48.67,49.33,59,3.1622776601683795,3.1622776601683795,3.1622776601683795,3.1622776601683795
5,1,0.1466754000284709,w,41.7,Unlimited Time,e,75.09104875891121,41.659911040141544,49.9322869155502,47.12714378996601,47.12714378996601,49.9322869155502,75.09104875891121,41.659911040141544,0,0,0,0,49,49,49,49,49,3.1622776601683795,6.324555320336759,8.366600265340756,10
5,2,0.030125899997074157,w,44.8,Unlimited Time,e,49.805964790564936,44.79191658263784,59.06460064222405,54.45543324234376,54.45543324234376,59.06460064222405,49.805964790564936,44.79191658263784,0,0,0,0,49,49,49,49,49,3.1622776601683795,6.324555320336759,8.366600265340756,10
5,3,0.11773599998559803,o,42.9,Unlimited Time,e,60.9908316860074,42.86637719106711,42.87702901093975,39.470038969925255,39.470038969925255,42.87702901093975,60.9908316860074,42.86637719106711,0,0,0,0,49,49,49,49,49,3.1622776601683795,6.324555320336759,8.366600265340756,10
5,4,0.05586849997052923,w,55.0,Unlimited Time,e,54.01669955870189,54.96693068993768,48.59626054003066,56.13573860581762,56.13573860581762,48.59626054003066,54.01669955870189,54.96693068993768,0,0,0,0,49,49,49,49,49,3.1622776601683795,6.324555320336759,8.366600265340756,10
5,5,0.07362290000310168,o,39.9,Unlimited Time,e,51.1799953330911,51.76116933460626,39.88561006522909,41.988315797287584,41.988315797287584,39.88561006522909,51.1799953330911,51.76116933460626,0,0,0,0,49,49,49,49,49,3.1622776601683795,6.324555320336759,8.366600265340756,10
5,6,0.08361799997510388,o,48.5,Unlimited Time,e,47.669728331855474,56.430328264008395,48.50638753128999,50.141760737489236,50.141760737489236,48.50638753128999,47.669728331855474,56.430328264008395,0,0,0,0,49,49,49,49,49,3.1622776601683795,6.324555320336759,8.366600265340756,10
5,7,0.03022449999116361,w,50.5,Unlimited Time,e,40.99747844684414,50.45137896680494,47.4434658573809,48.61308005505696,48.61308005505696,47.4434658573809,40.99747844684414,50.45137896680494,0,0,0,0,49,49,49,49,49,3.1622776601683795,6.324555320336759,8.366600265340756,10
5,8,0.030425200005993247,w,68.7,Unlimited Time,e,37.66404568864495,68.66182591140048,47.38475012554839,51.02042098728807,51.02042098728807,47.38475012554839,37.66404568864495,68.66182591140048,0,0,0,0,49,49,49,49,49,3.1622776601683795,6.324555320336759,8.366600265340756,10
5,9,0.0060813999734818935,q,57.8,Unlimited Time,e,57.78144687576517,70.62878386319574,47.58018437901692,53.570493509905184,53.570493509905184,47.58018437901692,57.78144687576517,70.62878386319574,0,0,0,0,49,49,49,49,49,3.1622776601683795,6.324555320336759,8.366600265340756,10
5,10,0.1471591999870725,p,46.0,Unlimited Time,e,59.81997871949868,51.68117145058015,47.87205658967068,46.03459024147812,46.03459024147812,47.87205658967068,59.81997871949868,51.68117145058015,0,0,0,0,49,49,49,49,49,3.1622776601683795,6.324555320336759,8.366600265340756,10
5,11,0.06957210000837222,w,53.1,Unlimited Time,e,43.60160673755799,53.051898062887574,39.56569671856809,50.21879721841347,50.21879721841347,39.56569671856809,43.60160673755799,53.051898062887574,0,0,0,0,49,49,49,49,49,3.1622776601683795,6.324555320336759,8.366600265340756,10
5,12,0.017653900024015456,q,44.6,Unlimited Time,e,44.64215635610625,46.69252226389089,47.55183726766111,42.050751657998205,42.050751657998205,47.55183726766111,44.64215635610625,46.69252226389089,0,0,0,0,49,49,49,49,49,3.1622776601683795,6.324555320336759,8.366600265340756,10
5,13,0.16834600002039224,p,46.3,Unlimited Time,e,71.2410659247077,39.290007020805994,47.47779350853173,46.288967875873404,46.288967875873404,47.47779350853173,71.2410659247077,39.290007020805994,0,0,0,0,49,49,49,49,49,3.1622776601683795,6.324555320336759,8.366600265340756,10
5,14,0.01787570002488792,w,31.3,Unlimited Time,e,46.00009226077343,31.334618714834967,51.628143819722574,46.51177944104281,46.51177944104281,51.628143819722574,46.00009226077343,31.334618714834967,0,0,0,0,49,49,49,49,49,3.1622776601683795,6.324555320336759,8.366600265340756,10
5,15,0.08098379999864846,o,49.2,Unlimited Time,e,57.52671035567282,52.92647193365833,49.189473740290225,48.80993702697999,48.80993702697999,49.189473740290225,57.52671035567282,52.92647193365833,0,0,0,0,49,49,49,49,49,3.1622776601683795,6.324555320336759,8.366600265340756,10
5,16,0.0560348000144586,q,61.6,Unlimited Time,e,61.638066865831746,60.06282945120321,51.238914175015964,44.719337460820405,44.719337460820405,51.238914175015964,61.638066865831746,60.06282945120321,0,0,0,0,49,49,49,49,49,3.1622776601683795,6.324555320336759,8.366600265340756,10
5,17,0.07120189996203408,p,48.1,Unlimited Time,e,45.76115706486362,42.89223275363615,49.65391641604719,48.094648047296346,48.094648047296346,49.65391641604719,45.76115706486362,42.89223275363615,0,0,0,0,49,49,49,49,49,3.1622776601683795,6.324555320336759,8.366600265340756,10
5,18,0.11835250002332032,p,51.6,Unlimited Time,e,62.46379028296877,54.210308073024265,41.79598000613228,51.57016479114286,51.57016479114286,41.79598000613228,62.46379028296877,54.210308073024265,0,0,0,0,49,49,49,49,49,3.1622776601683795,6.324555320336759,8.366600265340756,10
5,19,0.006455699971411377,o,56.2,Unlimited Time,e,51.81922821464964,57.812206075137354,56.20669538592405,53.05028251714437,53.05028251714437,56.20669538592405,51.81922821464964,57.812206075137354,0,0,0,0,49,49,49,49,49,3.1622776601683795,6.324555320336759,8.366600265340756,10
5,20,0.0345272000413388,w,57.0,Unlimited Time,e,40.275325003196855,57.01191224307408,52.206667617003774,49.723912903164035,49.723912903164035,52.206667617003774,40.275325003196855,57.01191224307408,0,0,0,0,49,49,49,49,49,3.1622776601683795,6.324555320336759,8.366600265340756,10
6,1,0.24791440000990406,o,41.7,Limited Time,e,49.9322869155502,75.09104875891121,41.659911040141544,47.12714378996601,47.12714378996601,49.9322869155502,75.09104875891121,41.659911040141544,0,0,0,0,49,49,49,49,49,3.1622776601683795,6.324555320336759,8.366600265340756,10
6,2,0.039684200019109994,w,49.8,Limited Time,e,59.06460064222405,49.805964790564936,44.79191658263784,54.45543324234376,54.45543324234376,59.06460064222405,49.805964790564936,44.79191658263784,0,0,0,0,49,49,49,49,49,3.1622776601683795,6.324555320336759,8.366600265340756,10
6,3,0.006639800034463406,w,61.0,Limited Time,e,42.87702901093975,60.9908316860074,42.86637719106711,39.470038969925255,39.470038969925255,42.87702901093975,60.9908316860074,42.86637719106711,0,0,0,0,49,49,49,49,49,3.1622776601683795,6.324555320336759,8.366600265340756,10
6,4,0.1320867000031285,p,56.1,Limited Time,e,48.59626054003066,54.01669955870189,54.96693068993768,56.13573860581762,56.13573860581762,48.59626054003066,54.01669955870189,54.96693068993768,0,0,0,0,49,49,49,49,49,3.1622776601683795,6.324555320336759,8.366600265340756,10
6,5,0.05329630000051111,w,51.2,Limited Time,e,39.88561006522909,51.1799953330911,51.76116933460626,41.988315797287584,41.988315797287584,39.88561006522909,51.1799953330911,51.76116933460626,0,0,0,0,49,49,49,49,49,3.1622776601683795,6.324555320336759,8.366600265340756,10
6,6,0.1413131999433972,p,50.1,Limited Time,e,48.50638753128999,47.669728331855474,56.430328264008395,50.141760737489236,50.141760737489236,48.50638753128999,47.669728331855474,56.430328264008395,0,0,0,0,49,49,49,49,49,3.1622776601683795,6.324555320336759,8.366600265340756,10
6,7,0.06933440000284463,q,47.4,Limited Time,e,47.4434658573809,40.99747844684414,50.45137896680494,48.61308005505696,48.61308005505696,47.4434658573809,40.99747844684414,50.45137896680494,0,0,0,0,49,49,49,49,49,3.1622776601683795,6.324555320336759,8.366600265340756,10
6,8,0.11510039999848232,p,51.0,Limited Time,e,47.38475012554839,37.66404568864495,68.66182591140048,51.02042098728807,51.02042098728807,47.38475012554839,37.66404568864495,68.66182591140048,0,0,0,0,49,49,49,49,49,3.1622776601683795,6.324555320336759,8.366600265340756,10
6,9,0.15402670000912622,o,70.6,Limited Time,e,47.58018437901692,57.78144687576517,70.62878386319574,53.570493509905184,53.570493509905184,47.58018437901692,57.78144687576517,70.62878386319574,0,0,0,0,49,49,49,49,49,3.1622776601683795,6.324555320336759,8.366600265340756,10
6,10,0.027639999985694885,q,47.9,Limited Time,e,47.87205658967068,59.81997871949868,51.68117145058015,46.03459024147812,46.03459024147812,47.87205658967068,59.81997871949868,51.68117145058015,0,0,0,0,49,49,49,49,49,3.1622776601683795,6.324555320336759,8.366600265340756,10
6,11,0.0868876000167802,w,43.6,Limited Time,e,39.56569671856809,43.60160673755799,53.051898062887574,50.21879721841347,50.21879721841347,39.56569671856809,43.60160673755799,53.051898062887574,0,0,0,0,49,49,49,49,49,3.1622776601683795,6.324555320336759,8.366600265340756,10
6,12,0.015371099987532943,o,46.7,Limited Time,e,47.55183726766111,44.64215635610625,46.69252226389089,42.050751657998205,42.050751657998205,47.55183726766111,44.64215635610625,46.69252226389089,0,0,0,0,49,49,49,49,49,3.1622776601683795,6.324555320336759,8.366600265340756,10
6,13,0.01605159998871386,w,71.2,Limited Time,e,47.47779350853173,71.2410659247077,39.290007020805994,46.288967875873404,46.288967875873404,47.47779350853173,71.2410659247077,39.290007020805994,0,0,0,0,49,49,49,49,49,3.1622776601683795,6.324555320336759,8.366600265340756,10
6,14,0.028573599993251264,q,51.6,Limited Time,e,51.628143819722574,46.00009226077343,31.334618714834967,46.51177944104281,46.51177944104281,51.628143819722574,46.00009226077343,31.334618714834967,0,0,0,0,49,49,49,49,49,3.1622776601683795,6.324555320336759,8.366600265340756,10
6,15,0.04997169994749129,o,52.9,Limited Time,e,49.189473740290225,57.52671035567282,52.92647193365833,48.80993702697999,48.80993702697999,49.189473740290225,57.52671035567282,52.92647193365833,0,0,0,0,49,49,49,49,49,3.1622776601683795,6.324555320336759,8.366600265340756,10
6,16,0.16650099999969825,w,61.6,Limited Time,e,51.238914175015964,61.638066865831746,60.06282945120321,44.719337460820405,44.719337460820405,51.238914175015964,61.638066865831746,60.06282945120321,0,0,0,0,49,49,49,49,49,3.1622776601683795,6.324555320336759,8.366600265340756,10
6,17,0.06632540002465248,q,49.7,Limited Time,e,49.65391641604719,45.76115706486362,42.89223275363615,48.094648047296346,48.094648047296346,49.65391641604719,45.76115706486362,42.89223275363615,0,0,0,0,49,49,49,49,49,3.1622776601683795,6.324555320336759,8.366600265340756,10
6,18,0.16596100002061576,o,54.2,Limited Time,e,41.79598000613228,62.46379028296877,54.210308073024265,51.57016479114286,51.57016479114286,41.79598000613228,62.46379028296877,54.210308073024265,0,0,0,0,49,49,49,49,49,3.1622776601683795,6.324555320336759,8.366600265340756,10
6,19,0.10466959996847436,o,57.8,Limited Time,e,56.20669538592405,51.81922821464964,57.812206075137354,53.05028251714437,53.05028251714437,56.20669538592405,51.81922821464964,57.812206075137354,0,0,0,0,49,49,49,49,49,3.1622776601683795,6.324555320336759,8.366600265340756,10
6,20,0.11649419995956123,o,57.0,Limited Time,e,52.206667617003774,40.275325003196855,57.01191224307408,49.723912903164035,49.723912903164035,52.206667617003774,40.275325003196855,57.01191224307408,0,0,0,0,49,49,49,49,49,3.1622776601683795,6.324555320336759,8.366600265340756,10
7,1,0.1715474000084214,o,39.1,Unlimited Time,h,55.071831613346625,28.357852885736424,39.10029005544475,35.928574521923764,28.357852885736424,39.10029005544475,35.928574521923764,55.071831613346625,-10,-0.33,0.33,10,49,39,48.67,49.33,59,10,10,10,10
7,2,0.007882599951699376,o,36.4,Unlimited Time,h,71.80230417978215,35.510437310706244,36.40305368072457,63.28607067974979,35.510437310706244,36.40305368072457,63.28607067974979,71.80230417978215,-10,-0.33,0.33,10,49,39,48.67,49.33,59,10,10,10,10
7,3,0.18738439999287948,o,56.3,Unlimited Time,h,61.880427418799734,45.53030224361865,56.33313303109392,40.90496841525654,45.53030224361865,56.33313303109392,40.90496841525654,61.880427418799734,-10,-0.33,0.33,10,49,39,48.67,49.33,59,10,10,10,10
7,4,0.05505169997923076,p,40.7,Unlimited Time,h,66.67332296030658,41.53942898845931,45.97624102940145,40.657046179558826,41.53942898845931,45.97624102940145,40.657046179558826,66.67332296030658,-10,-0.33,0.33,10,49,39,48.67,49.33,59,10,10,10,10
7,5,0.09675759996753186,p,67.8,Unlimited Time,h,63.28950321969711,30.229439945278557,48.78613892776537,67.79446456468162,30.229439945278557,48.78613892776537,67.79446456468162,63.28950321969711,-10,-0.33,0.33,10,49,39,48.67,49.33,59,10,10,10,10
7,6,0.01652590004960075,o,50.5,Unlimited Time,h,58.6894260349119,50.24082852296167,50.539779178509434,46.90201356150557,50.24082852296167,50.539779178509434,46.90201356150557,58.6894260349119,-10,-0.33,0.33,10,49,39,48.67,49.33,59,10,10,10,10
7,7,0.1472094000200741,o,60.3,Unlimited Time,h,46.59226472870969,33.88791167193286,60.25892051423622,46.407879503714526,33.88791167193286,60.25892051423622,46.407879503714526,46.59226472870969,-10,-0.33,0.33,10,49,39,48.67,49.33,59,10,10,10,10
7,8,0.16680420003831387,o,32.1,Unlimited Time,h,67.51779454178141,50.61953958977226,32.115422547858344,44.88890011167809,50.61953958977226,32.115422547858344,44.88890011167809,67.51779454178141,-10,-0.33,0.33,10,49,39,48.67,49.33,59,10,10,10,10
7,9,0.19732089998433366,o,49.2,Unlimited Time,h,45.42023179501106,49.18495159749773,49.225601252721546,54.9832358704721,49.18495159749773,49.225601252721546,54.9832358704721,45.42023179501106,-10,-0.33,0.33,10,49,39,48.67,49.33,59,10,10,10,10
7,10,0.10432620003120974,o,43.7,Unlimited Time,h,59.655838128769446,42.07814971922391,43.74112353637422,37.526820905788966,42.07814971922391,43.74112353637422,37.526820905788966,59.655838128769446,-10,-0.33,0.33,10,49,39,48.67,49.33,59,10,10,10,10
7,11,0.18387790000997484,o,43.5,Unlimited Time,h,54.35898263046277,59.46769173142992,43.49629985154201,57.60859175503981,59.46769173142992,43.49629985154201,57.60859175503981,54.35898263046277,-10,-0.33,0.33,10,49,39,48.67,49.33,59,10,10,10,10
7,12,0.14767530001699924,o,46.6,Unlimited Time,h,62.029381284059646,46.378968300740965,46.553935146681894,49.24239379589595,46.378968300740965,46.553935146681894,49.24239379589595,62.029381284059646,-10,-0.33,0.33,10,49,39,48.67,49.33,59,10,10,10,10
7,13,0.0050113999750465155,o,49.8,Unlimited Time,h,59.136999275261395,27.10887740577332,49.75553209235187,62.387035178013925,27.10887740577332,49.75553209235187,62.387035178013925,59.136999275261395,-10,-0.33,0.33,10,49,39,48.67,49.33,59,10,10,10,10
7,14,0.30921189999207854,o,51.7,Unlimited Time,h,59.538826375696175,38.254957187398105,51.664815517058386,58.98168648169052,38.254957187398105,51.664815517058386,58.98168648169052,59.538826375696175,-10,-0.33,0.33,10,49,39,48.67,49.33,59,10,10,10,10
7,15,0.10038540000095963,o,52.4,Unlimited Time,h,67.52516603589046,39.67914371018341,52.43135147267548,58.64625300223932,39.67914371018341,52.43135147267548,58.64625300223932,67.52516603589046,-10,-0.33,0.33,10,49,39,48.67,49.33,59,10,10,10,10
7,16,0.3836180999642238,o,39.2,Unlimited Time,h,74.79139480279854,48.65115532727171,39.21453677460116,55.64460985204412,48.65115532727171,39.21453677460116,55.64460985204412,74.79139480279854,-10,-0.33,0.33,10,49,39,48.67,49.33,59,10,10,10,10
7,17,0.12189579999540001,o,55.3,Unlimited Time,h,68.60195446583992,27.367901783004175,55.25665617302698,36.31316564946642,27.367901783004175,55.25665617302698,36.31316564946642,68.60195446583992,-10,-0.33,0.33,10,49,39,48.67,49.33,59,10,10,10,10
7,18,0.10895399999571964,o,57.5,Unlimited Time,h,21.651287965890063,41.248578358108304,57.51331103499621,47.1003199190315,41.248578358108304,57.51331103499621,47.1003199190315,21.651287965890063,-10,-0.33,0.33,10,49,39,48.67,49.33,59,10,10,10,10
7,19,0.12618409999413416,o,32.8,Unlimited Time,h,40.56157341492947,56.330222459535946,32.83186826750554,68.89972362128863,56.330222459535946,32.83186826750554,68.89972362128863,40.56157341492947,-10,-0.33,0.33,10,49,39,48.67,49.33,59,10,10,10,10
7,20,0.11372219998156652,o,52.1,Unlimited Time,h,87.61952101903786,47.92423766816809,52.147065853164634,43.28179940438962,47.92423766816809,52.147065853164634,43.28179940438962,87.61952101903786,-10,-0.33,0.33,10,49,39,48.67,49.33,59,10,10,10,10
8,1,,,0.0,Limited Time,l,50.46164226101737,51.24601361140417,41.64616958953955,56.879303865828724,41.64616958953955,50.46164226101737,51.24601361140417,56.879303865828724,-10,-0.33,0.33,10,49,39,48.67,49.33,59,3.1622776601683795,3.1622776601683795,3.1622776601683795,3.1622776601683795
8,2,,,0.0,Limited Time,l,48.258039236610976,50.849226383358776,34.34789682202389,56.79819376761906,34.34789682202389,48.258039236610976,50.849226383358776,56.79819376761906,-10,-0.33,0.33,10,49,39,48.67,49.33,59,3.1622776601683795,3.1622776601683795,3.1622776601683795,3.1622776601683795
8,3,0.051092499983496964,o,41.3,Limited Time,l,46.588728911182834,48.79424561488598,41.31122358343647,56.47554837135552,41.31122358343647,46.588728911182834,48.79424561488598,56.47554837135552,-10,-0.33,0.33,10,49,39,48.67,49.33,59,3.1622776601683795,3.1622776601683795,3.1622776601683795,3.1622776601683795
8,4,0.11419809999642894,o,38.6,Limited Time,l,50.017013435665355,47.67562719990225,38.64920966763194,63.55325956494517,38.64920966763194,50.017013435665355,47.67562719990225,63.55325956494517,-10,-0.33,0.33,10,49,39,48.67,49.33,59,3.1622776601683795,3.1622776601683795,3.1622776601683795,3.1622776601683795
8,5,0.04014419997110963,p,62.7,Limited Time,l,48.969631627124336,49.34032969199539,33.906343969492966,62.714612723568266,33.906343969492966,48.969631627124336,49.34032969199539,62.714612723568266,-10,-0.33,0.33,10,49,39,48.67,49.33,59,3.1622776601683795,3.1622776601683795,3.1622776601683795,3.1622776601683795
8,6,0.043519700004253536,p,61.2,Limited Time,l,48.77332620621,47.80563884258965,42.44170401248324,61.169676004036646,42.44170401248324,48.77332620621,47.80563884258965,61.169676004036646,-10,-0.33,0.33,10,49,39,48.67,49.33,59,3.1622776601683795,3.1622776601683795,3.1622776601683795,3.1622776601683795
8,7,0.0607185999979265,p,58.7,Limited Time,l,48.38805234352829,51.87962835308952,39.2493447837475,58.702731335316,39.2493447837475,48.38805234352829,51.87962835308952,58.702731335316,-10,-0.33,0.33,10,49,39,48.67,49.33,59,3.1622776601683795,3.1622776601683795,3.1622776601683795,3.1622776601683795
8,8,0.0733534999890253,p,61.1,Limited Time,l,47.46296668307016,49.02681092698566,41.04027455744066,61.1080420129713,41.04027455744066,47.46296668307016,49.02681092698566,61.1080420129713,-10,-0.33,0.33,10,49,39,48.67,49.33,59,3.1622776601683795,3.1622776601683795,3.1622776601683795,3.1622776601683795
8,9,0.09823449997929856,p,56.9,Limited Time,l,50.25850909586793,47.33156567781046,40.49722131625131,56.90590239378993,40.49722131625131,50.25850909586793,47.33156567781046,56.90590239378993,-10,-0.33,0.33,10,49,39,48.67,49.33,59,3.1622776601683795,3.1622776601683795,3.1622776601683795,3.1622776601683795
8,10,0.11400130001129583,p,62.3,Limited Time,l,49.34513949675664,47.371094771776605,41.3633869465422,62.33611854682939,41.3633869465422,49.34513949675664,47.371094771776605,62.33611854682939,-10,-0.33,0.33,10,49,39,48.67,49.33,59,3.1622776601683795,3.1622776601683795,3.1622776601683795,3.1622776601683795
8,11,0.06882539996877313,p,57.8,Limited Time,l,50.43764965031108,50.84356244342575,40.66196635152252,57.78985761274131,40.66196635152252,50.43764965031108,50.84356244342575,57.78985761274131,-10,-0.33,0.33,10,49,39,48.67,49.33,59,3.1622776601683795,3.1622776601683795,3.1622776601683795,3.1622776601683795
8,12,0.14484700001776218,p,57.0,Limited Time,l,52.53070876602104,45.37383943734031,41.192957413967356,56.985889492959345,41.192957413967356,52.53070876602104,45.37383943734031,56.985889492959345,-10,-0.33,0.33,10,49,39,48.67,49.33,59,3.1622776601683795,3.1622776601683795,3.1622776601683795,3.1622776601683795
8,13,0.11953540000831708,p,60.5,Limited Time,l,47.46382624745868,44.53977563872985,39.55416680081228,60.4543719572815,39.55416680081228,47.46382624745868,44.53977563872985,60.4543719572815,-10,-0.33,0.33,10,49,39,48.67,49.33,59,3.1622776601683795,3.1622776601683795,3.1622776601683795,3.1622776601683795
8,14,0.11535949999233708,p,58.1,Limited Time,l,52.56899931696651,49.93337961410999,34.1691719455765,58.06283635349158,34.1691719455765,52.56899931696651,49.93337961410999,58.06283635349158,-10,-0.33,0.33,10,49,39,48.67,49.33,59,3.1622776601683795,3.1622776601683795,3.1622776601683795,3.1622776601683795
8,15,0.06557839998276904,p,59.5,Limited Time,l,51.21366080863394,52.80291192462133,34.62960227770055,59.50192399168233,34.62960227770055,51.21366080863394,52.80291192462133,59.50192399168233,-10,-0.33,0.33,10,49,39,48.67,49.33,59,3.1622776601683795,3.1622776601683795,3.1622776601683795,3.1622776601683795
8,16,0.1403913000249304,p,60.1,Limited Time,l,49.16266871621297,53.32909575723676,40.90730532537391,60.10603093079879,40.90730532537391,49.16266871621297,53.32909575723676,60.10603093079879,-10,-0.33,0.33,10,49,39,48.67,49.33,59,3.1622776601683795,3.1622776601683795,3.1622776601683795,3.1622776601683795
8,17,0.15743510000174865,p,55.9,Limited Time,l,50.53368250275768,49.937051486924396,37.48216270797577,55.891083557587,37.48216270797577,50.53368250275768,49.937051486924396,55.891083557587,-10,-0.33,0.33,10,49,39,48.67,49.33,59,3.1622776601683795,3.1622776601683795,3.1622776601683795,3.1622776601683795
8,18,0.13224119995720685,p,61.2,Limited Time,l,46.36049000312829,49.925743513852396,38.235659930003564,61.20073721845813,38.235659930003564,46.36049000312829,49.925743513852396,61.20073721845813,-10,-0.33,0.33,10,49,39,48.67,49.33,59,3.1622776601683795,3.1622776601683795,3.1622776601683795,3.1622776601683795
8,19,0.12774859997443855,p,65.0,Limited Time,l,48.538803027640476,50.545196549763624,39.37964566504206,64.95215387860016,39.37964566504206,48.538803027640476,50.545196549763624,64.95215387860016,-10,-0.33,0.33,10,49,39,48.67,49.33,59,3.1622776601683795,3.1622776601683795,3.1622776601683795,3.1622776601683795
8,20,0.13787159998901188,p,58.1,Limited Time,l,50.25461728514523,48.41783960033954,41.247771296267665,58.07068041526038,41.247771296267665,50.25461728514523,48.41783960033954,58.07068041526038,-10,-0.33,0.33,10,49,39,48.67,49.33,59,3.1622776601683795,3.1622776601683795,3.1622776601683795,3.1622776601683795
9,1,0.2827895999653265,p,51.2,Unlimited Time,l,56.879303865828724,41.64616958953955,50.46164226101737,51.24601361140417,41.64616958953955,50.46164226101737,51.24601361140417,56.879303865828724,-10,-0.33,0.33,10,49,39,48.67,49.33,59,3.1622776601683795,3.1622776601683795,3.1622776601683795,3.1622776601683795
9,2,0.1333211999735795,p,50.8,Unlimited Time,l,56.79819376761906,34.34789682202389,48.258039236610976,50.849226383358776,34.34789682202389,48.258039236610976,50.849226383358776,56.79819376761906,-10,-0.33,0.33,10,49,39,48.67,49.33,59,3.1622776601683795,3.1622776601683795,3.1622776601683795,3.1622776601683795
9,3,0.05822259996784851,p,48.8,Unlimited Time,l,56.47554837135552,41.31122358343647,46.588728911182834,48.79424561488598,41.31122358343647,46.588728911182834,48.79424561488598,56.47554837135552,-10,-0.33,0.33,10,49,39,48.67,49.33,59,3.1622776601683795,3.1622776601683795,3.1622776601683795,3.1622776601683795
9,4,0.08740580000448972,p,47.7,Unlimited Time,l,63.55325956494517,38.64920966763194,50.017013435665355,47.67562719990225,38.64920966763194,50.017013435665355,47.67562719990225,63.55325956494517,-10,-0.33,0.33,10,49,39,48.67,49.33,59,3.1622776601683795,3.1622776601683795,3.1622776601683795,3.1622776601683795
9,5,0.09688620001543313,o,49.0,Unlimited Time,l,62.714612723568266,33.906343969492966,48.969631627124336,49.34032969199539,33.906343969492966,48.969631627124336,49.34032969199539,62.714612723568266,-10,-0.33,0.33,10,49,39,48.67,49.33,59,3.1622776601683795,3.1622776601683795,3.1622776601683795,3.1622776601683795
9,6,0.22904310002923012,o,48.8,Unlimited Time,l,61.169676004036646,42.44170401248324,48.77332620621,47.80563884258965,42.44170401248324,48.77332620621,47.80563884258965,61.169676004036646,-10,-0.33,0.33,10,49,39,48.67,49.33,59,3.1622776601683795,3.1622776601683795,3.1622776601683795,3.1622776601683795
9,7,0.1412283999961801,o,48.4,Unlimited Time,l,58.702731335316,39.2493447837475,48.38805234352829,51.87962835308952,39.2493447837475,48.38805234352829,51.87962835308952,58.702731335316,-10,-0.33,0.33,10,49,39,48.67,49.33,59,3.1622776601683795,3.1622776601683795,3.1622776601683795,3.1622776601683795
9,8,0.11349979997612536,o,47.5,Unlimited Time,l,61.1080420129713,41.04027455744066,47.46296668307016,49.02681092698566,41.04027455744066,47.46296668307016,49.02681092698566,61.1080420129713,-10,-0.33,0.33,10,49,39,48.67,49.33,59,3.1622776601683795,3.1622776601683795,3.1622776601683795,3.1622776601683795
9,9,0.11689860001206398,o,50.3,Unlimited Time,l,56.90590239378993,40.49722131625131,50.25850909586793,47.33156567781046,40.49722131625131,50.25850909586793,47.33156567781046,56.90590239378993,-10,-0.33,0.33,10,49,39,48.67,49.33,59,3.1622776601683795,3.1622776601683795,3.1622776601683795,3.1622776601683795
9,10,0.146755599998869,o,49.3,Unlimited Time,l,62.33611854682939,41.3633869465422,49.34513949675664,47.371094771776605,41.3633869465422,49.34513949675664,47.371094771776605,62.33611854682939,-10,-0.33,0.33,10,49,39,48.67,49.33,59,3.1622776601683795,3.1622776601683795,3.1622776601683795,3.1622776601683795
9,11,0.16652139998041093,o,50.4,Unlimited Time,l,57.78985761274131,40.66196635152252,50.43764965031108,50.84356244342575,40.66196635152252,50.43764965031108,50.84356244342575,57.78985761274131,-10,-0.33,0.33,10,49,39,48.67,49.33,59,3.1622776601683795,3.1622776601683795,3.1622776601683795,3.1622776601683795
9,12,0.158757199998945,o,52.5,Unlimited Time,l,56.985889492959345,41.192957413967356,52.53070876602104,45.37383943734031,41.192957413967356,52.53070876602104,45.37383943734031,56.985889492959345,-10,-0.33,0.33,10,49,39,48.67,49.33,59,3.1622776601683795,3.1622776601683795,3.1622776601683795,3.1622776601683795
9,13,0.16427699994528666,o,47.5,Unlimited Time,l,60.4543719572815,39.55416680081228,47.46382624745868,44.53977563872985,39.55416680081228,47.46382624745868,44.53977563872985,60.4543719572815,-10,-0.33,0.33,10,49,39,48.67,49.33,59,3.1622776601683795,3.1622776601683795,3.1622776601683795,3.1622776601683795
9,14,0.11591079999925569,o,52.6,Unlimited Time,l,58.06283635349158,34.1691719455765,52.56899931696651,49.93337961410999,34.1691719455765,52.56899931696651,49.93337961410999,58.06283635349158,-10,-0.33,0.33,10,49,39,48.67,49.33,59,3.1622776601683795,3.1622776601683795,3.1622776601683795,3.1622776601683795
9,15,0.1462421000469476,o,51.2,Unlimited Time,l,59.50192399168233,34.62960227770055,51.21366080863394,52.80291192462133,34.62960227770055,51.21366080863394,52.80291192462133,59.50192399168233,-10,-0.33,0.33,10,49,39,48.67,49.33,59,3.1622776601683795,3.1622776601683795,3.1622776601683795,3.1622776601683795
9,16,0.09221289999550208,o,49.2,Unlimited Time,l,60.10603093079879,40.90730532537391,49.16266871621297,53.32909575723676,40.90730532537391,49.16266871621297,53.32909575723676,60.10603093079879,-10,-0.33,0.33,10,49,39,48.67,49.33,59,3.1622776601683795,3.1622776601683795,3.1622776601683795,3.1622776601683795
9,17,1.2131791999563575,q,55.9,Unlimited Time,l,55.891083557587,37.48216270797577,50.53368250275768,49.937051486924396,37.48216270797577,50.53368250275768,49.937051486924396,55.891083557587,-10,-0.33,0.33,10,49,39,48.67,49.33,59,3.1622776601683795,3.1622776601683795,3.1622776601683795,3.1622776601683795
9,18,0.11746679997304454,q,61.2,Unlimited Time,l,61.20073721845813,38.235659930003564,46.36049000312829,49.925743513852396,38.235659930003564,46.36049000312829,49.925743513852396,61.20073721845813,-10,-0.33,0.33,10,49,39,48.67,49.33,59,3.1622776601683795,3.1622776601683795,3.1622776601683795,3.1622776601683795
9,19,0.06754309998359531,w,39.4,Unlimited Time,l,64.95215387860016,39.37964566504206,48.538803027640476,50.545196549763624,39.37964566504206,48.538803027640476,50.545196549763624,64.95215387860016,-10,-0.33,0.33,10,49,39,48.67,49.33,59,3.1622776601683795,3.1622776601683795,3.1622776601683795,3.1622776601683795
9,20,0.004694499948527664,w,41.2,Unlimited Time,l,58.07068041526038,41.247771296267665,50.25461728514523,48.41783960033954,41.247771296267665,50.25461728514523,48.41783960033954,58.07068041526038,-10,-0.33,0.33,10,49,39,48.67,49.33,59,3.1622776601683795,3.1622776601683795,3.1622776601683795,3.1622776601683795
10,1,0.16559799999231473,o,55.1,Limited Time,h,39.10029005544475,35.928574521923764,55.071831613346625,28.357852885736424,28.357852885736424,39.10029005544475,35.928574521923764,55.071831613346625,-10,-0.33,0.33,10,49,39,48.67,49.33,59,10,10,10,10
10,2,0.1272828999790363,o,71.8,Limited Time,h,36.40305368072457,63.28607067974979,71.80230417978215,35.510437310706244,35.510437310706244,36.40305368072457,63.28607067974979,71.80230417978215,-10,-0.33,0.33,10,49,39,48.67,49.33,59,10,10,10,10
10,3,0.12352780002402142,o,61.9,Limited Time,h,56.33313303109392,40.90496841525654,61.880427418799734,45.53030224361865,45.53030224361865,56.33313303109392,40.90496841525654,61.880427418799734,-10,-0.33,0.33,10,49,39,48.67,49.33,59,10,10,10,10
10,4,0.08122410002397373,o,66.7,Limited Time,h,45.97624102940145,40.657046179558826,66.67332296030658,41.53942898845931,41.53942898845931,45.97624102940145,40.657046179558826,66.67332296030658,-10,-0.33,0.33,10,49,39,48.67,49.33,59,10,10,10,10
10,5,0.3644324999768287,p,30.2,Limited Time,h,48.78613892776537,67.79446456468162,63.28950321969711,30.229439945278557,30.229439945278557,48.78613892776537,67.79446456468162,63.28950321969711,-10,-0.33,0.33,10,49,39,48.67,49.33,59,10,10,10,10
10,6,0.039138599997386336,o,58.7,Limited Time,h,50.539779178509434,46.90201356150557,58.6894260349119,50.24082852296167,50.24082852296167,50.539779178509434,46.90201356150557,58.6894260349119,-10,-0.33,0.33,10,49,39,48.67,49.33,59,10,10,10,10
10,7,0.08085199998458847,o,46.6,Limited Time,h,60.25892051423622,46.407879503714526,46.59226472870969,33.88791167193286,33.88791167193286,60.25892051423622,46.407879503714526,46.59226472870969,-10,-0.33,0.33,10,49,39,48.67,49.33,59,10,10,10,10
10,8,0.1398553000180982,o,67.5,Limited Time,h,32.115422547858344,44.88890011167809,67.51779454178141,50.61953958977226,50.61953958977226,32.115422547858344,44.88890011167809,67.51779454178141,-10,-0.33,0.33,10,49,39,48.67,49.33,59,10,10,10,10
10,9,0.006631000025663525,p,49.2,Limited Time,h,49.225601252721546,54.9832358704721,45.42023179501106,49.18495159749773,49.18495159749773,49.225601252721546,54.9832358704721,45.42023179501106,-10,-0.33,0.33,10,49,39,48.67,49.33,59,10,10,10,10
10,10,0.10647709999466315,p,42.1,Limited Time,h,43.74112353637422,37.526820905788966,59.655838128769446,42.07814971922391,42.07814971922391,43.74112353637422,37.526820905788966,59.655838128769446,-10,-0.33,0.33,10,49,39,48.67,49.33,59,10,10,10,10
10,11,0.08184299996355549,p,59.5,Limited Time,h,43.49629985154201,57.60859175503981,54.35898263046277,59.46769173142992,59.46769173142992,43.49629985154201,57.60859175503981,54.35898263046277,-10,-0.33,0.33,10,49,39,48.67,49.33,59,10,10,10,10
10,12,0.09026049997191876,o,62.0,Limited Time,h,46.553935146681894,49.24239379589595,62.029381284059646,46.378968300740965,46.378968300740965,46.553935146681894,49.24239379589595,62.029381284059646,-10,-0.33,0.33,10,49,39,48.67,49.33,59,10,10,10,10
10,13,0.09442870004568249,p,27.1,Limited Time,h,49.75553209235187,62.387035178013925,59.136999275261395,27.10887740577332,27.10887740577332,49.75553209235187,62.387035178013925,59.136999275261395,-10,-0.33,0.33,10,49,39,48.67,49.33,59,10,10,10,10
10,14,0.04808859998593107,o,59.5,Limited Time,h,51.664815517058386,58.98168648169052,59.538826375696175,38.254957187398105,38.254957187398105,51.664815517058386,58.98168648169052,59.538826375696175,-10,-0.33,0.33,10,49,39,48.67,49.33,59,10,10,10,10
10,15,0.07734620000701398,p,39.7,Limited Time,h,52.43135147267548,58.64625300223932,67.52516603589046,39.67914371018341,39.67914371018341,52.43135147267548,58.64625300223932,67.52516603589046,-10,-0.33,0.33,10,49,39,48.67,49.33,59,10,10,10,10
10,16,0.22360510000726208,o,74.8,Limited Time,h,39.21453677460116,55.64460985204412,74.79139480279854,48.65115532727171,48.65115532727171,39.21453677460116,55.64460985204412,74.79139480279854,-10,-0.33,0.33,10,49,39,48.67,49.33,59,10,10,10,10
10,17,0.18183320004027337,o,68.6,Limited Time,h,55.25665617302698,36.31316564946642,68.60195446583992,27.367901783004175,27.367901783004175,55.25665617302698,36.31316564946642,68.60195446583992,-10,-0.33,0.33,10,49,39,48.67,49.33,59,10,10,10,10
10,18,0.0653529999544844,p,41.2,Limited Time,h,57.51331103499621,47.1003199190315,21.651287965890063,41.248578358108304,41.248578358108304,57.51331103499621,47.1003199190315,21.651287965890063,-10,-0.33,0.33,10,49,39,48.67,49.33,59,10,10,10,10
10,19,0.0025610000011511147,o,40.6,Limited Time,h,32.83186826750554,68.89972362128863,40.56157341492947,56.330222459535946,56.330222459535946,32.83186826750554,68.89972362128863,40.56157341492947,-10,-0.33,0.33,10,49,39,48.67,49.33,59,10,10,10,10
10,20,0.14086430001771078,w,43.3,Limited Time,h,52.147065853164634,43.28179940438962,87.61952101903786,47.92423766816809,47.92423766816809,52.147065853164634,43.28179940438962,87.61952101903786,-10,-0.33,0.33,10,49,39,48.67,49.33,59,10,10,10,10
11,1,0.13746130000799894,q,36.6,Unlimited Time,i,36.625999749399995,65.45318152196089,20.822565371942186,69.05385735658174,36.625999749399995,20.822565371942186,65.45318152196089,69.05385735658174,-10,-10,10,10,49,39,39,59,59,3.1622776601683795,10,3.1622776601683795,10
11,2,0.020957599976100028,w,53.5,Unlimited Time,i,40.061226495236035,53.52009205626034,39.062039052146055,55.37684409320525,40.061226495236035,39.062039052146055,53.52009205626034,55.37684409320525,-10,-10,10,10,49,39,39,59,59,3.1622776601683795,10,3.1622776601683795,10
11,3,0.057975800009444356,p,55.8,Unlimited Time,i,39.91042413599588,62.91819055251365,66.99778164575878,55.778085056112644,39.91042413599588,66.99778164575878,62.91819055251365,55.778085056112644,-10,-10,10,10,49,39,39,59,59,3.1622776601683795,10,3.1622776601683795,10
11,4,0.024884599959477782,w,63.2,Unlimited Time,i,34.08583285286506,63.219282216060265,66.6188635999381,39.717684840936826,34.08583285286506,66.6188635999381,63.219282216060265,39.717684840936826,-10,-10,10,10,49,39,39,59,59,3.1622776601683795,10,3.1622776601683795,10
11,5,0.0872596999979578,p,54.6,Unlimited Time,i,38.64050960653873,57.30838278743024,24.76624356928271,54.58132893214824,38.64050960653873,24.76624356928271,57.30838278743024,54.58132893214824,-10,-10,10,10,49,39,39,59,59,3.1622776601683795,10,3.1622776601683795,10
11,6,0.007451299985405058,w,59.4,Unlimited Time,i,42.3527039497851,59.42629850538813,54.03473473727202,56.39054712749741,42.3527039497851,54.03473473727202,59.42629850538813,56.39054712749741,-10,-10,10,10,49,39,39,59,59,3.1622776601683795,10,3.1622776601683795,10
11,7,0.024448199954349548,p,50.1,Unlimited Time,i,34.90626884552847,61.074145783266125,28.041557968662673,50.07102524237702,34.90626884552847,28.041557968662673,61.074145783266125,50.07102524237702,-10,-10,10,10,49,39,39,59,59,3.1622776601683795,10,3.1622776601683795,10
11,8,0.03684759995667264,o,54.9,Unlimited Time,i,35.75322943752079,56.05490136416921,54.91427078379698,58.30794579498182,35.75322943752079,54.91427078379698,56.05490136416921,58.30794579498182,-10,-10,10,10,49,39,39,59,59,3.1622776601683795,10,3.1622776601683795,10
11,9,0.045327199972234666,q,41.1,Unlimited Time,i,41.103779445154224,56.39121462844817,59.60953932742594,51.21039610428443,41.103779445154224,59.60953932742594,56.39121462844817,51.21039610428443,-10,-10,10,10,49,39,39,59,59,3.1622776601683795,10,3.1622776601683795,10
11,10,0.056273800029885024,o,47.7,Unlimited Time,i,36.67740141814559,59.21141238026464,47.69885897030235,46.70150302499768,36.67740141814559,47.69885897030235,59.21141238026464,46.70150302499768,-10,-10,10,10,49,39,39,59,59,3.1622776601683795,10,3.1622776601683795,10
11,11,0.23313210002379492,w,54.4,Unlimited Time,i,40.043190106234455,54.38130685429165,46.90125875542473,59.953631403599715,40.043190106234455,46.90125875542473,54.38130685429165,59.953631403599715,-10,-10,10,10,49,39,39,59,59,3.1622776601683795,10,3.1622776601683795,10
11,12,0.09670019999612123,w,61.8,Unlimited Time,i,41.02722333840693,61.8453050867935,28.86435689118122,64.18585323184953,41.02722333840693,28.86435689118122,61.8453050867935,64.18585323184953,-10,-10,10,10,49,39,39,59,59,3.1622776601683795,10,3.1622776601683795,10
11,13,0.10462640004698187,w,55.9,Unlimited Time,i,37.962579189483954,55.924941149164226,30.88115814576261,58.136063145550146,37.962579189483954,30.88115814576261,55.924941149164226,58.136063145550146,-10,-10,10,10,49,39,39,59,59,3.1622776601683795,10,3.1622776601683795,10
11,14,0.10801749996608123,w,61.5,Unlimited Time,i,40.0372768802815,61.47504702514441,59.43464466268557,48.39571526964872,40.0372768802815,59.43464466268557,61.47504702514441,48.39571526964872,-10,-10,10,10,49,39,39,59,59,3.1622776601683795,10,3.1622776601683795,10
11,15,0.1643041999777779,q,37.5,Unlimited Time,i,37.48782432994097,61.77833382384499,26.347751026753023,51.22515620861499,37.48782432994097,26.347751026753023,61.77833382384499,51.22515620861499,-10,-10,10,10,49,39,39,59,59,3.1622776601683795,10,3.1622776601683795,10
11,16,0.1300267999758944,q,38.4,Unlimited Time,i,38.41771661865462,59.18898241293487,40.82795336701799,51.09807030245632,38.41771661865462,40.82795336701799,59.18898241293487,51.09807030245632,-10,-10,10,10,49,39,39,59,59,3.1622776601683795,10,3.1622776601683795,10
11,17,0.13112149998778477,w,52.8,Unlimited Time,i,41.37804030811611,52.7501898387025,38.871765623905404,54.304589540999736,41.37804030811611,38.871765623905404,52.7501898387025,54.304589540999736,-10,-10,10,10,49,39,39,59,59,3.1622776601683795,10,3.1622776601683795,10
11,18,0.08052119996864349,o,41.3,Unlimited Time,i,44.409044883191335,62.04987690805541,41.34700611103607,57.99825751440113,44.409044883191335,41.34700611103607,62.04987690805541,57.99825751440113,-10,-10,10,10,49,39,39,59,59,3.1622776601683795,10,3.1622776601683795,10
11,19,0.1678463999996893,p,67.4,Unlimited Time,i,39.03785091826544,60.867846018407555,39.984829161138116,67.36389748995727,39.03785091826544,39.984829161138116,60.867846018407555,67.36389748995727,-10,-10,10,10,49,39,39,59,59,3.1622776601683795,10,3.1622776601683795,10
11,20,0.030342500016558915,p,60.2,Unlimited Time,i,33.77741699146846,57.31412396157567,51.53401130428996,60.173195109736064,33.77741699146846,51.53401130428996,57.31412396157567,60.173195109736064,-10,-10,10,10,49,39,39,59,59,3.1622776601683795,10,3.1622776601683795,10
12,1,0.21744620002573356,o,49.9,Limited Time,e,47.12714378996601,41.659911040141544,49.9322869155502,75.09104875891121,47.12714378996601,49.9322869155502,75.09104875891121,41.659911040141544,0,0,0,0,49,49,49,49,49,3.1622776601683795,6.324555320336759,8.366600265340756,10
12,2,0.08798440004466102,w,44.8,Limited Time,e,54.45543324234376,44.79191658263784,59.06460064222405,49.805964790564936,54.45543324234376,59.06460064222405,49.805964790564936,44.79191658263784,0,0,0,0,49,49,49,49,49,3.1622776601683795,6.324555320336759,8.366600265340756,10
12,3,0.029996299999766052,o,42.9,Limited Time,e,39.470038969925255,42.86637719106711,42.87702901093975,60.9908316860074,39.470038969925255,42.87702901093975,60.9908316860074,42.86637719106711,0,0,0,0,49,49,49,49,49,3.1622776601683795,6.324555320336759,8.366600265340756,10
12,4,0.012428199988789856,q,56.1,Limited Time,e,56.13573860581762,54.96693068993768,48.59626054003066,54.01669955870189,56.13573860581762,48.59626054003066,54.01669955870189,54.96693068993768,0,0,0,0,49,49,49,49,49,3.1622776601683795,6.324555320336759,8.366600265340756,10
12,5,0.14990090002538636,w,51.8,Limited Time,e,41.988315797287584,51.76116933460626,39.88561006522909,51.1799953330911,41.988315797287584,39.88561006522909,51.1799953330911,51.76116933460626,0,0,0,0,49,49,49,49,49,3.1622776601683795,6.324555320336759,8.366600265340756,10
12,6,0.07598030002554879,o,48.5,Limited Time,e,50.141760737489236,56.430328264008395,48.50638753128999,47.669728331855474,50.141760737489236,48.50638753128999,47.669728331855474,56.430328264008395,0,0,0,0,49,49,49,49,49,3.1622776601683795,6.324555320336759,8.366600265340756,10
12,7,0.0844844999955967,p,41.0,Limited Time,e,48.61308005505696,50.45137896680494,47.4434658573809,40.99747844684414,48.61308005505696,47.4434658573809,40.99747844684414,50.45137896680494,0,0,0,0,49,49,49,49,49,3.1622776601683795,6.324555320336759,8.366600265340756,10
12,8,0.0884187999763526,o,47.4,Limited Time,e,51.02042098728807,68.66182591140048,47.38475012554839,37.66404568864495,51.02042098728807,47.38475012554839,37.66404568864495,68.66182591140048,0,0,0,0,49,49,49,49,49,3.1622776601683795,6.324555320336759,8.366600265340756,10
12,9,0.08045680000213906,p,57.8,Limited Time,e,53.570493509905184,70.62878386319574,47.58018437901692,57.78144687576517,53.570493509905184,47.58018437901692,57.78144687576517,70.62878386319574,0,0,0,0,49,49,49,49,49,3.1622776601683795,6.324555320336759,8.366600265340756,10
12,10,0.07725299999583513,o,47.9,Limited Time,e,46.03459024147812,51.68117145058015,47.87205658967068,59.81997871949868,46.03459024147812,47.87205658967068,59.81997871949868,51.68117145058015,0,0,0,0,49,49,49,49,49,3.1622776601683795,6.324555320336759,8.366600265340756,10
12,11,0.059712399961426854,p,43.6,Limited Time,e,50.21879721841347,53.051898062887574,39.56569671856809,43.60160673755799,50.21879721841347,39.56569671856809,43.60160673755799,53.051898062887574,0,0,0,0,49,49,49,49,49,3.1622776601683795,6.324555320336759,8.366600265340756,10
12,12,0.04658029996789992,o,47.6,Limited Time,e,42.050751657998205,46.69252226389089,47.55183726766111,44.64215635610625,42.050751657998205,47.55183726766111,44.64215635610625,46.69252226389089,0,0,0,0,49,49,49,49,49,3.1622776601683795,6.324555320336759,8.366600265340756,10
12,13,0.01364409999223426,w,39.3,Limited Time,e,46.288967875873404,39.290007020805994,47.47779350853173,71.2410659247077,46.288967875873404,47.47779350853173,71.2410659247077,39.290007020805994,0,0,0,0,49,49,49,49,49,3.1622776601683795,6.324555320336759,8.366600265340756,10
12,14,0.0014555000234395266,q,46.5,Limited Time,e,46.51177944104281,31.334618714834967,51.628143819722574,46.00009226077343,46.51177944104281,51.628143819722574,46.00009226077343,31.334618714834967,0,0,0,0,49,49,49,49,49,3.1622776601683795,6.324555320336759,8.366600265340756,10
12,15,0.03767979994881898,q,48.8,Limited Time,e,48.80993702697999,52.92647193365833,49.189473740290225,57.52671035567282,48.80993702697999,49.189473740290225,57.52671035567282,52.92647193365833,0,0,0,0,49,49,49,49,49,3.1622776601683795,6.324555320336759,8.366600265340756,10
12,16,0.030154499982018024,o,51.2,Limited Time,e,44.719337460820405,60.06282945120321,51.238914175015964,61.638066865831746,44.719337460820405,51.238914175015964,61.638066865831746,60.06282945120321,0,0,0,0,49,49,49,49,49,3.1622776601683795,6.324555320336759,8.366600265340756,10
12,17,0.008152900030836463,o,49.7,Limited Time,e,48.094648047296346,42.89223275363615,49.65391641604719,45.76115706486362,48.094648047296346,49.65391641604719,45.76115706486362,42.89223275363615,0,0,0,0,49,49,49,49,49,3.1622776601683795,6.324555320336759,8.366600265340756,10
12,18,0.029692600015550852,w,54.2,Limited Time,e,51.57016479114286,54.210308073024265,41.79598000613228,62.46379028296877,51.57016479114286,41.79598000613228,62.46379028296877,54.210308073024265,0,0,0,0,49,49,49,49,49,3.1622776601683795,6.324555320336759,8.366600265340756,10
12,19,0.02309949998743832,w,57.8,Limited Time,e,53.05028251714437,57.812206075137354,56.20669538592405,51.81922821464964,53.05028251714437,56.20669538592405,51.81922821464964,57.812206075137354,0,0,0,0,49,49,49,49,49,3.1622776601683795,6.324555320336759,8.366600265340756,10
12,20,0.005999499990139157,p,40.3,Limited Time,e,49.723912903164035,57.01191224307408,52.206667617003774,40.275325003196855,49.723912903164035,52.206667617003774,40.275325003196855,57.01191224307408,0,0,0,0,49,49,49,49,49,3.1622776601683795,6.324555320336759,8.366600265340756,10
13,1,0.33925819996511564,o,20.8,Unlimited Time,i,65.45318152196089,69.05385735658174,20.822565371942186,36.625999749399995,36.625999749399995,20.822565371942186,65.45318152196089,69.05385735658174,-10,-10,10,10,49,39,39,59,59,3.1622776601683795,10,3.1622776601683795,10
13,2,0.06174490001285449,q,53.5,Unlimited Time,i,53.52009205626034,55.37684409320525,39.062039052146055,40.061226495236035,40.061226495236035,39.062039052146055,53.52009205626034,55.37684409320525,-10,-10,10,10,49,39,39,59,59,3.1622776601683795,10,3.1622776601683795,10
13,3,0.09000899997772649,p,39.9,Unlimited Time,i,62.91819055251365,55.778085056112644,66.99778164575878,39.91042413599588,39.91042413599588,66.99778164575878,62.91819055251365,55.778085056112644,-10,-10,10,10,49,39,39,59,59,3.1622776601683795,10,3.1622776601683795,10
13,4,0.0736435999860987,o,66.6,Unlimited Time,i,63.219282216060265,39.717684840936826,66.6188635999381,34.08583285286506,34.08583285286506,66.6188635999381,63.219282216060265,39.717684840936826,-10,-10,10,10,49,39,39,59,59,3.1622776601683795,10,3.1622776601683795,10
13,5,0.023332899960223585,o,24.8,Unlimited Time,i,57.30838278743024,54.58132893214824,24.76624356928271,38.64050960653873,38.64050960653873,24.76624356928271,57.30838278743024,54.58132893214824,-10,-10,10,10,49,39,39,59,59,3.1622776601683795,10,3.1622776601683795,10
13,6,0.013415199995506555,o,54.0,Unlimited Time,i,59.42629850538813,56.39054712749741,54.03473473727202,42.3527039497851,42.3527039497851,54.03473473727202,59.42629850538813,56.39054712749741,-10,-10,10,10,49,39,39,59,59,3.1622776601683795,10,3.1622776601683795,10
13,7,0.028019699966534972,o,28.0,Unlimited Time,i,61.074145783266125,50.07102524237702,28.041557968662673,34.90626884552847,34.90626884552847,28.041557968662673,61.074145783266125,50.07102524237702,-10,-10,10,10,49,39,39,59,59,3.1622776601683795,10,3.1622776601683795,10
13,8,0.015025899978354573,o,54.9,Unlimited Time,i,56.05490136416921,58.30794579498182,54.91427078379698,35.75322943752079,35.75322943752079,54.91427078379698,56.05490136416921,58.30794579498182,-10,-10,10,10,49,39,39,59,59,3.1622776601683795,10,3.1622776601683795,10
13,9,0.05745079996995628,o,59.6,Unlimited Time,i,56.39121462844817,51.21039610428443,59.60953932742594,41.103779445154224,41.103779445154224,59.60953932742594,56.39121462844817,51.21039610428443,-10,-10,10,10,49,39,39,59,59,3.1622776601683795,10,3.1622776601683795,10
13,10,0.11067600001115352,p,36.7,Unlimited Time,i,59.21141238026464,46.70150302499768,47.69885897030235,36.67740141814559,36.67740141814559,47.69885897030235,59.21141238026464,46.70150302499768,-10,-10,10,10,49,39,39,59,59,3.1622776601683795,10,3.1622776601683795,10
13,11,0.02736390003701672,p,40.0,Unlimited Time,i,54.38130685429165,59.953631403599715,46.90125875542473,40.043190106234455,40.043190106234455,46.90125875542473,54.38130685429165,59.953631403599715,-10,-10,10,10,49,39,39,59,59,3.1622776601683795,10,3.1622776601683795,10
13,12,0.05346349999308586,p,41.0,Unlimited Time,i,61.8453050867935,64.18585323184953,28.86435689118122,41.02722333840693,41.02722333840693,28.86435689118122,61.8453050867935,64.18585323184953,-10,-10,10,10,49,39,39,59,59,3.1622776601683795,10,3.1622776601683795,10
13,13,0.007056300004478544,o,30.9,Unlimited Time,i,55.924941149164226,58.136063145550146,30.88115814576261,37.962579189483954,37.962579189483954,30.88115814576261,55.924941149164226,58.136063145550146,-10,-10,10,10,49,39,39,59,59,3.1622776601683795,10,3.1622776601683795,10
13,14,0.11259139998583123,w,48.4,Unlimited Time,i,61.47504702514441,48.39571526964872,59.43464466268557,40.0372768802815,40.0372768802815,59.43464466268557,61.47504702514441,48.39571526964872,-10,-10,10,10,49,39,39,59,59,3.1622776601683795,10,3.1622776601683795,10
13,15,0.06527309998637065,q,61.8,Unlimited Time,i,61.77833382384499,51.22515620861499,26.347751026753023,37.48782432994097,37.48782432994097,26.347751026753023,61.77833382384499,51.22515620861499,-10,-10,10,10,49,39,39,59,59,3.1622776601683795,10,3.1622776601683795,10
13,16,0.05692030000500381,w,51.1,Unlimited Time,i,59.18898241293487,51.09807030245632,40.82795336701799,38.41771661865462,38.41771661865462,40.82795336701799,59.18898241293487,51.09807030245632,-10,-10,10,10,49,39,39,59,59,3.1622776601683795,10,3.1622776601683795,10
13,17,0.0488175000064075,p,41.4,Unlimited Time,i,52.7501898387025,54.304589540999736,38.871765623905404,41.37804030811611,41.37804030811611,38.871765623905404,52.7501898387025,54.304589540999736,-10,-10,10,10,49,39,39,59,59,3.1622776601683795,10,3.1622776601683795,10
13,18,0.021449699997901917,p,44.4,Unlimited Time,i,62.04987690805541,57.99825751440113,41.34700611103607,44.409044883191335,44.409044883191335,41.34700611103607,62.04987690805541,57.99825751440113,-10,-10,10,10,49,39,39,59,59,3.1622776601683795,10,3.1622776601683795,10
13,19,0.0071622000541538,p,39.0,Unlimited Time,i,60.867846018407555,67.36389748995727,39.984829161138116,39.03785091826544,39.03785091826544,39.984829161138116,60.867846018407555,67.36389748995727,-10,-10,10,10,49,39,39,59,59,3.1622776601683795,10,3.1622776601683795,10
13,20,0.0742290000198409,o,51.5,Unlimited Time,i,57.31412396157567,60.173195109736064,51.53401130428996,33.77741699146846,33.77741699146846,51.53401130428996,57.31412396157567,60.173195109736064,-10,-10,10,10,49,39,39,59,59,3.1622776601683795,10,3.1622776601683795,10
14,1,0.32003489998169243,o,35.9,Limited Time,h,28.357852885736424,55.071831613346625,35.928574521923764,39.10029005544475,28.357852885736424,39.10029005544475,35.928574521923764,55.071831613346625,-10,-0.33,0.33,10,49,39,48.67,49.33,59,10,10,10,10
14,2,0.116263700008858,o,63.3,Limited Time,h,35.510437310706244,71.80230417978215,63.28607067974979,36.40305368072457,35.510437310706244,36.40305368072457,63.28607067974979,71.80230417978215,-10,-0.33,0.33,10,49,39,48.67,49.33,59,10,10,10,10
14,3,0.04084200004581362,w,61.9,Limited Time,h,45.53030224361865,61.880427418799734,40.90496841525654,56.33313303109392,45.53030224361865,56.33313303109392,40.90496841525654,61.880427418799734,-10,-0.33,0.33,10,49,39,48.67,49.33,59,10,10,10,10
14,4,0.10765699995681643,w,66.7,Limited Time,h,41.53942898845931,66.67332296030658,40.657046179558826,45.97624102940145,41.53942898845931,45.97624102940145,40.657046179558826,66.67332296030658,-10,-0.33,0.33,10,49,39,48.67,49.33,59,10,10,10,10
14,5,0.07005079998634756,o,67.8,Limited Time,h,30.229439945278557,63.28950321969711,67.79446456468162,48.78613892776537,30.229439945278557,48.78613892776537,67.79446456468162,63.28950321969711,-10,-0.33,0.33,10,49,39,48.67,49.33,59,10,10,10,10
14,6,0.05529029999161139,o,46.9,Limited Time,h,50.24082852296167,58.6894260349119,46.90201356150557,50.539779178509434,50.24082852296167,50.539779178509434,46.90201356150557,58.6894260349119,-10,-0.33,0.33,10,49,39,48.67,49.33,59,10,10,10,10
14,7,0.0913291999604553,o,46.4,Limited Time,h,33.88791167193286,46.59226472870969,46.407879503714526,60.25892051423622,33.88791167193286,60.25892051423622,46.407879503714526,46.59226472870969,-10,-0.33,0.33,10,49,39,48.67,49.33,59,10,10,10,10
14,8,0.10817309998674318,o,44.9,Limited Time,h,50.61953958977226,67.51779454178141,44.88890011167809,32.115422547858344,50.61953958977226,32.115422547858344,44.88890011167809,67.51779454178141,-10,-0.33,0.33,10,49,39,48.67,49.33,59,10,10,10,10
14,9,0.08329320000484586,o,55.0,Limited Time,h,49.18495159749773,45.42023179501106,54.9832358704721,49.225601252721546,49.18495159749773,49.225601252721546,54.9832358704721,45.42023179501106,-10,-0.33,0.33,10,49,39,48.67,49.33,59,10,10,10,10
14,10,0.10521470004459843,o,37.5,Limited Time,h,42.07814971922391,59.655838128769446,37.526820905788966,43.74112353637422,42.07814971922391,43.74112353637422,37.526820905788966,59.655838128769446,-10,-0.33,0.33,10,49,39,48.67,49.33,59,10,10,10,10
14,11,0.09176250000018626,o,57.6,Limited Time,h,59.46769173142992,54.35898263046277,57.60859175503981,43.49629985154201,59.46769173142992,43.49629985154201,57.60859175503981,54.35898263046277,-10,-0.33,0.33,10,49,39,48.67,49.33,59,10,10,10,10
14,12,0.08367120003094897,o,49.2,Limited Time,h,46.378968300740965,62.029381284059646,49.24239379589595,46.553935146681894,46.378968300740965,46.553935146681894,49.24239379589595,62.029381284059646,-10,-0.33,0.33,10,49,39,48.67,49.33,59,10,10,10,10
14,13,0.0666757999570109,q,27.1,Limited Time,h,27.10887740577332,59.136999275261395,62.387035178013925,49.75553209235187,27.10887740577332,49.75553209235187,62.387035178013925,59.136999275261395,-10,-0.33,0.33,10,49,39,48.67,49.33,59,10,10,10,10
14,14,0.005646199977491051,o,59.0,Limited Time,h,38.254957187398105,59.538826375696175,58.98168648169052,51.664815517058386,38.254957187398105,51.664815517058386,58.98168648169052,59.538826375696175,-10,-0.33,0.33,10,49,39,48.67,49.33,59,10,10,10,10
14,15,0.09130199998617172,o,58.6,Limited Time,h,39.67914371018341,67.52516603589046,58.64625300223932,52.43135147267548,39.67914371018341,52.43135147267548,58.64625300223932,67.52516603589046,-10,-0.33,0.33,10,49,39,48.67,49.33,59,10,10,10,10
14,16,0.005494699988048524,w,74.8,Limited Time,h,48.65115532727171,74.79139480279854,55.64460985204412,39.21453677460116,48.65115532727171,39.21453677460116,55.64460985204412,74.79139480279854,-10,-0.33,0.33,10,49,39,48.67,49.33,59,10,10,10,10
14,17,0.0417619000072591,w,68.6,Limited Time,h,27.367901783004175,68.60195446583992,36.31316564946642,55.25665617302698,27.367901783004175,55.25665617302698,36.31316564946642,68.60195446583992,-10,-0.33,0.33,10,49,39,48.67,49.33,59,10,10,10,10
14,18,0.03368379996391013,w,21.7,Limited Time,h,41.248578358108304,21.651287965890063,47.1003199190315,57.51331103499621,41.248578358108304,57.51331103499621,47.1003199190315,21.651287965890063,-10,-0.33,0.33,10,49,39,48.67,49.33,59,10,10,10,10
14,19,0.09239659999730065,p,32.8,Limited Time,h,56.330222459535946,40.56157341492947,68.89972362128863,32.83186826750554,56.330222459535946,32.83186826750554,68.89972362128863,40.56157341492947,-10,-0.33,0.33,10,49,39,48.67,49.33,59,10,10,10,10
14,20,0.10870829998748377,p,52.1,Limited Time,h,47.92423766816809,87.61952101903786,43.28179940438962,52.147065853164634,47.92423766816809,52.147065853164634,43.28179940438962,87.61952101903786,-10,-0.33,0.33,10,49,39,48.67,49.33,59,10,10,10,10
15,1,0.30943259998457506,o,41.7,Unlimited Time,e,75.09104875891121,49.9322869155502,41.659911040141544,47.12714378996601,47.12714378996601,49.9322869155502,75.09104875891121,41.659911040141544,0,0,0,0,49,49,49,49,49,3.1622776601683795,6.324555320336759,8.366600265340756,10
15,2,0.008872099977452308,o,44.8,Unlimited Time,e,49.805964790564936,59.06460064222405,44.79191658263784,54.45543324234376,54.45543324234376,59.06460064222405,49.805964790564936,44.79191658263784,0,0,0,0,49,49,49,49,49,3.1622776601683795,6.324555320336759,8.366600265340756,10
15,3,0.0766408999916166,o,42.9,Unlimited Time,e,60.9908316860074,42.87702901093975,42.86637719106711,39.470038969925255,39.470038969925255,42.87702901093975,60.9908316860074,42.86637719106711,0,0,0,0,49,49,49,49,49,3.1622776601683795,6.324555320336759,8.366600265340756,10
15,4,0.06422810000367463,o,55.0,Unlimited Time,e,54.01669955870189,48.59626054003066,54.96693068993768,56.13573860581762,56.13573860581762,48.59626054003066,54.01669955870189,54.96693068993768,0,0,0,0,49,49,49,49,49,3.1622776601683795,6.324555320336759,8.366600265340756,10
15,5,0.12969430000521243,p,42.0,Unlimited Time,e,51.1799953330911,39.88561006522909,51.76116933460626,41.988315797287584,41.988315797287584,39.88561006522909,51.1799953330911,51.76116933460626,0,0,0,0,49,49,49,49,49,3.1622776601683795,6.324555320336759,8.366600265340756,10
15,6,0.08075260004261509,p,50.1,Unlimited Time,e,47.669728331855474,48.50638753128999,56.430328264008395,50.141760737489236,50.141760737489236,48.50638753128999,47.669728331855474,56.430328264008395,0,0,0,0,49,49,49,49,49,3.1622776601683795,6.324555320336759,8.366600265340756,10
15,7,0.08072119997814298,p,48.6,Unlimited Time,e,40.99747844684414,47.4434658573809,50.45137896680494,48.61308005505696,48.61308005505696,47.4434658573809,40.99747844684414,50.45137896680494,0,0,0,0,49,49,49,49,49,3.1622776601683795,6.324555320336759,8.366600265340756,10
15,8,0.13095720001729205,w,47.4,Unlimited Time,e,37.66404568864495,47.38475012554839,68.66182591140048,51.02042098728807,51.02042098728807,47.38475012554839,37.66404568864495,68.66182591140048,0,0,0,0,49,49,49,49,49,3.1622776601683795,6.324555320336759,8.366600265340756,10
15,9,0.09356800001114607,w,47.6,Unlimited Time,e,57.78144687576517,47.58018437901692,70.62878386319574,53.570493509905184,53.570493509905184,47.58018437901692,57.78144687576517,70.62878386319574,0,0,0,0,49,49,49,49,49,3.1622776601683795,6.324555320336759,8.366600265340756,10
15,10,0.10203479998745024,w,47.9,Unlimited Time,e,59.81997871949868,47.87205658967068,51.68117145058015,46.03459024147812,46.03459024147812,47.87205658967068,59.81997871949868,51.68117145058015,0,0,0,0,49,49,49,49,49,3.1622776601683795,6.324555320336759,8.366600265340756,10
15,11,0.0934337000362575,w,39.6,Unlimited Time,e,43.60160673755799,39.56569671856809,53.051898062887574,50.21879721841347,50.21879721841347,39.56569671856809,43.60160673755799,53.051898062887574,0,0,0,0,49,49,49,49,49,3.1622776601683795,6.324555320336759,8.366600265340756,10
15,12,0.18940259999362752,q,44.6,Unlimited Time,e,44.64215635610625,47.55183726766111,46.69252226389089,42.050751657998205,42.050751657998205,47.55183726766111,44.64215635610625,46.69252226389089,0,0,0,0,49,49,49,49,49,3.1622776601683795,6.324555320336759,8.366600265340756,10
15,13,0.1598795999889262,q,71.2,Unlimited Time,e,71.2410659247077,47.47779350853173,39.290007020805994,46.288967875873404,46.288967875873404,47.47779350853173,71.2410659247077,39.290007020805994,0,0,0,0,49,49,49,49,49,3.1622776601683795,6.324555320336759,8.366600265340756,10
15,14,0.11434710002504289,q,46.0,Unlimited Time,e,46.00009226077343,51.628143819722574,31.334618714834967,46.51177944104281,46.51177944104281,51.628143819722574,46.00009226077343,31.334618714834967,0,0,0,0,49,49,49,49,49,3.1622776601683795,6.324555320336759,8.366600265340756,10
15,15,0.14356420002877712,q,57.5,Unlimited Time,e,57.52671035567282,49.189473740290225,52.92647193365833,48.80993702697999,48.80993702697999,49.189473740290225,57.52671035567282,52.92647193365833,0,0,0,0,49,49,49,49,49,3.1622776601683795,6.324555320336759,8.366600265340756,10
15,16,0.18919710000045598,q,61.6,Unlimited Time,e,61.638066865831746,51.238914175015964,60.06282945120321,44.719337460820405,44.719337460820405,51.238914175015964,61.638066865831746,60.06282945120321,0,0,0,0,49,49,49,49,49,3.1622776601683795,6.324555320336759,8.366600265340756,10
15,17,0.1349348000367172,q,45.8,Unlimited Time,e,45.76115706486362,49.65391641604719,42.89223275363615,48.094648047296346,48.094648047296346,49.65391641604719,45.76115706486362,42.89223275363615,0,0,0,0,49,49,49,49,49,3.1622776601683795,6.324555320336759,8.366600265340756,10
15,18,0.15605399996275082,p,51.6,Unlimited Time,e,62.46379028296877,41.79598000613228,54.210308073024265,51.57016479114286,51.57016479114286,41.79598000613228,62.46379028296877,54.210308073024265,0,0,0,0,49,49,49,49,49,3.1622776601683795,6.324555320336759,8.366600265340756,10
15,19,0.072745900019072,p,53.1,Unlimited Time,e,51.81922821464964,56.20669538592405,57.812206075137354,53.05028251714437,53.05028251714437,56.20669538592405,51.81922821464964,57.812206075137354,0,0,0,0,49,49,49,49,49,3.1622776601683795,6.324555320336759,8.366600265340756,10
15,20,0.07375280000269413,p,49.7,Unlimited Time,e,40.275325003196855,52.206667617003774,57.01191224307408,49.723912903164035,49.723912903164035,52.206667617003774,40.275325003196855,57.01191224307408,0,0,0,0,49,49,49,49,49,3.1622776601683795,6.324555320336759,8.366600265340756,10
16,1,,,0.0,Limited Time,i,69.05385735658174,20.822565371942186,65.45318152196089,36.625999749399995,36.625999749399995,20.822565371942186,65.45318152196089,69.05385735658174,-10,-10,10,10,49,39,39,59,59,3.1622776601683795,10,3.1622776601683795,10
16,2,0.10301229998003691,p,40.1,Limited Time,i,55.37684409320525,39.062039052146055,53.52009205626034,40.061226495236035,40.061226495236035,39.062039052146055,53.52009205626034,55.37684409320525,-10,-10,10,10,49,39,39,59,59,3.1622776601683795,10,3.1622776601683795,10
16,3,0.02740389999235049,o,62.9,Limited Time,i,55.778085056112644,66.99778164575878,62.91819055251365,39.91042413599588,39.91042413599588,66.99778164575878,62.91819055251365,55.778085056112644,-10,-10,10,10,49,39,39,59,59,3.1622776601683795,10,3.1622776601683795,10
16,4,0.07366639998508617,o,63.2,Limited Time,i,39.717684840936826,66.6188635999381,63.219282216060265,34.08583285286506,34.08583285286506,66.6188635999381,63.219282216060265,39.717684840936826,-10,-10,10,10,49,39,39,59,59,3.1622776601683795,10,3.1622776601683795,10
16,5,0.056962499977089465,o,57.3,Limited Time,i,54.58132893214824,24.76624356928271,57.30838278743024,38.64050960653873,38.64050960653873,24.76624356928271,57.30838278743024,54.58132893214824,-10,-10,10,10,49,39,39,59,59,3.1622776601683795,10,3.1622776601683795,10
16,6,0.06951649999246001,w,54.0,Limited Time,i,56.39054712749741,54.03473473727202,59.42629850538813,42.3527039497851,42.3527039497851,54.03473473727202,59.42629850538813,56.39054712749741,-10,-10,10,10,49,39,39,59,59,3.1622776601683795,10,3.1622776601683795,10
16,7,0.08984430000418797,w,28.0,Limited Time,i,50.07102524237702,28.041557968662673,61.074145783266125,34.90626884552847,34.90626884552847,28.041557968662673,61.074145783266125,50.07102524237702,-10,-10,10,10,49,39,39,59,59,3.1622776601683795,10,3.1622776601683795,10
16,8,0.05676960002165288,w,54.9,Limited Time,i,58.30794579498182,54.91427078379698,56.05490136416921,35.75322943752079,35.75322943752079,54.91427078379698,56.05490136416921,58.30794579498182,-10,-10,10,10,49,39,39,59,59,3.1622776601683795,10,3.1622776601683795,10
16,9,0.15682739997282624,q,51.2,Limited Time,i,51.21039610428443,59.60953932742594,56.39121462844817,41.103779445154224,41.103779445154224,59.60953932742594,56.39121462844817,51.21039610428443,-10,-10,10,10,49,39,39,59,59,3.1622776601683795,10,3.1622776601683795,10
16,10,0.12092409998876974,o,59.2,Limited Time,i,46.70150302499768,47.69885897030235,59.21141238026464,36.67740141814559,36.67740141814559,47.69885897030235,59.21141238026464,46.70150302499768,-10,-10,10,10,49,39,39,59,59,3.1622776601683795,10,3.1622776601683795,10
16,11,0.0661289999843575,o,54.4,Limited Time,i,59.953631403599715,46.90125875542473,54.38130685429165,40.043190106234455,40.043190106234455,46.90125875542473,54.38130685429165,59.953631403599715,-10,-10,10,10,49,39,39,59,59,3.1622776601683795,10,3.1622776601683795,10
16,12,0.05439610005123541,o,61.8,Limited Time,i,64.18585323184953,28.86435689118122,61.8453050867935,41.02722333840693,41.02722333840693,28.86435689118122,61.8453050867935,64.18585323184953,-10,-10,10,10,49,39,39,59,59,3.1622776601683795,10,3.1622776601683795,10
16,13,0.078019900014624,o,55.9,Limited Time,i,58.136063145550146,30.88115814576261,55.924941149164226,37.962579189483954,37.962579189483954,30.88115814576261,55.924941149164226,58.136063145550146,-10,-10,10,10,49,39,39,59,59,3.1622776601683795,10,3.1622776601683795,10
16,14,0.11076569999568164,o,61.5,Limited Time,i,48.39571526964872,59.43464466268557,61.47504702514441,40.0372768802815,40.0372768802815,59.43464466268557,61.47504702514441,48.39571526964872,-10,-10,10,10,49,39,39,59,59,3.1622776601683795,10,3.1622776601683795,10
16,15,0.09939619997749105,o,61.8,Limited Time,i,51.22515620861499,26.347751026753023,61.77833382384499,37.48782432994097,37.48782432994097,26.347751026753023,61.77833382384499,51.22515620861499,-10,-10,10,10,49,39,39,59,59,3.1622776601683795,10,3.1622776601683795,10
16,16,0.11642239999491721,o,59.2,Limited Time,i,51.09807030245632,40.82795336701799,59.18898241293487,38.41771661865462,38.41771661865462,40.82795336701799,59.18898241293487,51.09807030245632,-10,-10,10,10,49,39,39,59,59,3.1622776601683795,10,3.1622776601683795,10
16,17,0.09080070001073182,o,52.8,Limited Time,i,54.304589540999736,38.871765623905404,52.7501898387025,41.37804030811611,41.37804030811611,38.871765623905404,52.7501898387025,54.304589540999736,-10,-10,10,10,49,39,39,59,59,3.1622776601683795,10,3.1622776601683795,10
16,18,0.11949539999477565,o,62.0,Limited Time,i,57.99825751440113,41.34700611103607,62.04987690805541,44.409044883191335,44.409044883191335,41.34700611103607,62.04987690805541,57.99825751440113,-10,-10,10,10,49,39,39,59,59,3.1622776601683795,10,3.1622776601683795,10
16,19,0.1034366000094451,o,60.9,Limited Time,i,67.36389748995727,39.984829161138116,60.867846018407555,39.03785091826544,39.03785091826544,39.984829161138116,60.867846018407555,67.36389748995727,-10,-10,10,10,49,39,39,59,59,3.1622776601683795,10,3.1622776601683795,10
16,20,0.09128930000588298,o,57.3,Limited Time,i,60.173195109736064,51.53401130428996,57.31412396157567,33.77741699146846,33.77741699146846,51.53401130428996,57.31412396157567,60.173195109736064,-10,-10,10,10,49,39,39,59,59,3.1622776601683795,10,3.1622776601683795,10
