Round Number,Trial Number,Reaction Time,Choice,Reward,Time Condition,Payoff Condition,Q mapped,W mapped,O mapped,P mapped,One value,Two value,Three value,Four value,One mean,Two mean,Three mean,Four mean,Mean Shift,One shifted mean,Two shifted mean,Three shifted mean,Four shifted mean,One SD,Two SD,Three SD,Four SD
1,1,0.22022649995051324,w,45.2,Unlimited Time,i,19.970727010849558,45.16964903992991,24.373877299325013,44.25600177901804,24.373877299325013,19.970727010849558,44.25600177901804,45.16964903992991,-10,-10,10,10,36,26,26,46,46,3.1622776601683795,10,3.1622776601683795,10
1,2,0.5205365000292659,q,13.1,Unlimited Time,i,13.07846616471425,43.7530706810368,24.88658346825616,43.84051856682279,24.88658346825616,13.07846616471425,43.84051856682279,43.7530706810368,-10,-10,10,10,36,26,26,46,46,3.1622776601683795,10,3.1622776601683795,10
1,3,0.6320273000164889,w,42.9,Unlimited Time,i,38.82935014708349,42.94991862453383,28.689860007196664,44.44157145635571,28.689860007196664,38.82935014708349,44.44157145635571,42.94991862453383,-10,-10,10,10,36,26,26,46,46,3.1622776601683795,10,3.1622776601683795,10
1,4,0.35729459999129176,w,46.3,Unlimited Time,i,24.528263820767883,46.27699961921901,22.286181505471014,47.53238452577068,22.286181505471014,24.528263820767883,47.53238452577068,46.27699961921901,-10,-10,10,10,36,26,26,46,46,3.1622776601683795,10,3.1622776601683795,10
1,5,0.24541830003727227,o,22.5,Unlimited Time,i,21.519644867669356,48.61489664860317,22.538614919553495,51.357028065215395,22.538614919553495,21.519644867669356,51.357028065215395,48.61489664860317,-10,-10,10,10,36,26,26,46,46,3.1622776601683795,10,3.1622776601683795,10
1,6,0.2322956999996677,p,47.9,Unlimited Time,i,19.05827442130683,38.90192597453506,31.317191487458025,47.94520334263372,31.317191487458025,19.05827442130683,47.94520334263372,38.90192597453506,-10,-10,10,10,36,26,26,46,46,3.1622776601683795,10,3.1622776601683795,10
1,7,0.39592400001129135,p,50.4,Unlimited Time,i,30.29518800501472,42.04096473636896,23.089065553889853,50.40111285323183,23.089065553889853,30.29518800501472,50.40111285323183,42.04096473636896,-10,-10,10,10,36,26,26,46,46,3.1622776601683795,10,3.1622776601683795,10
1,8,0.2656684999819845,o,19.4,Unlimited Time,i,27.307572526988352,38.15516665582948,19.371132614656396,46.254546109278444,19.371132614656396,27.307572526988352,46.254546109278444,38.15516665582948,-10,-10,10,10,36,26,26,46,46,3.1622776601683795,10,3.1622776601683795,10
1,9,0.2214869000017643,w,58.5,Unlimited Time,i,33.49024346771249,58.471599339251355,22.509328899713015,45.58176047793089,22.509328899713015,33.49024346771249,45.58176047793089,58.471599339251355,-10,-10,10,10,36,26,26,46,46,3.1622776601683795,10,3.1622776601683795,10
1,10,0.2709863999625668,q,25.4,Unlimited Time,i,25.4315471424014,48.837954542232325,23.78132949997504,42.586991526729626,23.78132949997504,25.4315471424014,42.586991526729626,48.837954542232325,-10,-10,10,10,36,26,26,46,46,3.1622776601683795,10,3.1622776601683795,10
1,11,0.32097040000371635,w,31.4,Unlimited Time,i,10.210939662383968,31.435857765367246,26.81872116770965,49.944226666561136,26.81872116770965,10.210939662383968,49.944226666561136,31.435857765367246,-10,-10,10,10,36,26,26,46,46,3.1622776601683795,10,3.1622776601683795,10
1,12,0.23394479998387396,w,37.9,Unlimited Time,i,44.21676700301981,37.921908056990155,27.92710800873302,48.47953882968162,27.92710800873302,44.21676700301981,48.47953882968162,37.921908056990155,-10,-10,10,10,36,26,26,46,46,3.1622776601683795,10,3.1622776601683795,10
1,13,0.18385359999956563,p,42.5,Unlimited Time,i,8.763241513303473,45.00246101071634,21.73270886548063,42.54253333664689,21.73270886548063,8.763241513303473,42.54253333664689,45.00246101071634,-10,-10,10,10,36,26,26,46,46,3.1622776601683795,10,3.1622776601683795,10
1,14,0.15395229996647686,p,49.1,Unlimited Time,i,36.07269334728174,41.85772709436368,24.65056560166683,49.09614254576082,24.65056560166683,36.07269334728174,49.09614254576082,41.85772709436368,-10,-10,10,10,36,26,26,46,46,3.1622776601683795,10,3.1622776601683795,10
1,15,0.19662589998915792,p,46.2,Unlimited Time,i,30.40229125317784,63.611163597895086,20.663504391611035,46.232991174891694,20.663504391611035,30.40229125317784,46.232991174891694,63.611163597895086,-10,-10,10,10,36,26,26,46,46,3.1622776601683795,10,3.1622776601683795,10
1,16,0.15550400002393872,p,46.5,Unlimited Time,i,13.914142203067623,38.57336978996555,23.683767618521987,46.51301720736784,23.683767618521987,13.914142203067623,46.51301720736784,38.57336978996555,-10,-10,10,10,36,26,26,46,46,3.1622776601683795,10,3.1622776601683795,10
1,17,0.1468176000053063,p,47.3,Unlimited Time,i,25.827518183239313,44.28721683310637,25.715090408404876,47.29578585863492,25.715090408404876,25.827518183239313,47.29578585863492,44.28721683310637,-10,-10,10,10,36,26,26,46,46,3.1622776601683795,10,3.1622776601683795,10
1,18,0.09170499996980652,w,41.3,Unlimited Time,i,27.28252949374726,41.295224355011555,22.87379650814092,53.05679885785946,22.87379650814092,27.28252949374726,53.05679885785946,41.295224355011555,-10,-10,10,10,36,26,26,46,46,3.1622776601683795,10,3.1622776601683795,10
1,19,0.02607349999016151,w,56.1,Unlimited Time,i,29.736112372803984,56.147955825530815,22.077984469016556,47.212837515870035,22.077984469016556,29.736112372803984,47.212837515870035,56.147955825530815,-10,-10,10,10,36,26,26,46,46,3.1622776601683795,10,3.1622776601683795,10
1,20,0.1640921999933198,w,53.2,Unlimited Time,i,52.86647091886823,53.21294939716033,26.799778764952837,43.80186581917854,26.799778764952837,52.86647091886823,43.80186581917854,53.21294939716033,-10,-10,10,10,36,26,26,46,46,3.1622776601683795,10,3.1622776601683795,10
2,1,0.23487710003973916,w,50.5,Limited Time,l,38.70125983809585,50.51266916273217,44.30154739031589,24.116272085583656,24.116272085583656,38.70125983809585,44.30154739031589,50.51266916273217,-10,-0.33,0.33,10,36,26,35.67,36.33,46,3.1622776601683795,3.1622776601683795,3.1622776601683795,3.1622776601683795
2,2,,,0.0,Limited Time,l,34.71783902654006,44.78034171426283,33.876407973741216,25.973430288732402,25.973430288732402,34.71783902654006,33.876407973741216,44.78034171426283,-10,-0.33,0.33,10,36,26,35.67,36.33,46,3.1622776601683795,3.1622776601683795,3.1622776601683795,3.1622776601683795
2,3,0.3014690999989398,q,36.1,Limited Time,l,36.08274297354163,48.11276370854284,36.33853194645686,29.243957911606262,29.243957911606262,36.08274297354163,36.33853194645686,48.11276370854284,-10,-0.33,0.33,10,36,26,35.67,36.33,46,3.1622776601683795,3.1622776601683795,3.1622776601683795,3.1622776601683795
2,4,,,0.0,Limited Time,l,38.06161341782081,49.19532941377196,32.45438792038467,31.56772445533683,31.56772445533683,38.06161341782081,32.45438792038467,49.19532941377196,-10,-0.33,0.33,10,36,26,35.67,36.33,46,3.1622776601683795,3.1622776601683795,3.1622776601683795,3.1622776601683795
2,5,,,0.0,Limited Time,l,34.67904743864076,50.25242114691856,35.185486045493334,27.609420888015016,27.609420888015016,34.67904743864076,35.185486045493334,50.25242114691856,-10,-0.33,0.33,10,36,26,35.67,36.33,46,3.1622776601683795,3.1622776601683795,3.1622776601683795,3.1622776601683795
2,6,,,0.0,Limited Time,l,33.35475957057333,40.72076297117407,43.39519511301601,22.62431820308155,22.62431820308155,33.35475957057333,43.39519511301601,40.72076297117407,-10,-0.33,0.33,10,36,26,35.67,36.33,46,3.1622776601683795,3.1622776601683795,3.1622776601683795,3.1622776601683795
2,7,0.12768979999236763,w,47.7,Limited Time,l,35.62839652882822,47.70791280896845,34.1121875626109,26.04589602723998,26.04589602723998,35.62839652882822,34.1121875626109,47.70791280896845,-10,-0.33,0.33,10,36,26,35.67,36.33,46,3.1622776601683795,3.1622776601683795,3.1622776601683795,3.1622776601683795
2,8,0.18510350002907217,w,44.2,Limited Time,l,36.268448454776475,44.24353685504895,42.003758989972816,18.920865729199317,18.920865729199317,36.268448454776475,42.003758989972816,44.24353685504895,-10,-0.33,0.33,10,36,26,35.67,36.33,46,3.1622776601683795,3.1622776601683795,3.1622776601683795,3.1622776601683795
2,9,0.0020607999758794904,q,35.8,Limited Time,l,35.82045566700242,49.022876165134626,29.497930899958526,26.76105104555033,26.76105104555033,35.82045566700242,29.497930899958526,49.022876165134626,-10,-0.33,0.33,10,36,26,35.67,36.33,46,3.1622776601683795,3.1622776601683795,3.1622776601683795,3.1622776601683795
2,10,0.0026968999882228673,o,36.8,Limited Time,l,39.06926083114183,45.38516319028497,36.79723566330793,24.4148632495698,24.4148632495698,39.06926083114183,36.79723566330793,45.38516319028497,-10,-0.33,0.33,10,36,26,35.67,36.33,46,3.1622776601683795,3.1622776601683795,3.1622776601683795,3.1622776601683795
2,11,0.05220879998523742,o,32.7,Limited Time,l,39.21215687833133,48.62089735235196,32.66408081212232,28.684017523784977,28.684017523784977,39.21215687833133,32.66408081212232,48.62089735235196,-10,-0.33,0.33,10,36,26,35.67,36.33,46,3.1622776601683795,3.1622776601683795,3.1622776601683795,3.1622776601683795
2,12,0.027857699955347925,o,36.1,Limited Time,l,36.48907864760302,47.272124867950275,36.06241534575266,33.291499823308556,33.291499823308556,36.48907864760302,36.06241534575266,47.272124867950275,-10,-0.33,0.33,10,36,26,35.67,36.33,46,3.1622776601683795,3.1622776601683795,3.1622776601683795,3.1622776601683795
2,13,0.036809600016567856,o,38.4,Limited Time,l,33.85328543465029,42.29935487494576,38.400622798771124,28.397644419743845,28.397644419743845,33.85328543465029,38.400622798771124,42.29935487494576,-10,-0.33,0.33,10,36,26,35.67,36.33,46,3.1622776601683795,3.1622776601683795,3.1622776601683795,3.1622776601683795
2,14,0.07796710002003238,q,36.4,Limited Time,l,36.367710034183915,45.98916397523664,37.072232046447354,22.6091023904601,22.6091023904601,36.367710034183915,37.072232046447354,45.98916397523664,-10,-0.33,0.33,10,36,26,35.67,36.33,46,3.1622776601683795,3.1622776601683795,3.1622776601683795,3.1622776601683795
2,15,0.13555429998086765,q,38.0,Limited Time,l,38.032073685621064,49.37986434831612,37.629688543632085,29.57444325502298,29.57444325502298,38.032073685621064,37.629688543632085,49.37986434831612,-10,-0.33,0.33,10,36,26,35.67,36.33,46,3.1622776601683795,3.1622776601683795,3.1622776601683795,3.1622776601683795
2,16,0.09155239997198805,w,43.2,Limited Time,l,31.240143009120246,43.17499826306035,36.898320112730154,21.78299371075032,21.78299371075032,31.240143009120246,36.898320112730154,43.17499826306035,-10,-0.33,0.33,10,36,26,35.67,36.33,46,3.1622776601683795,3.1622776601683795,3.1622776601683795,3.1622776601683795
2,17,0.08289029996376485,w,46.9,Limited Time,l,31.8566281728037,46.937129059183285,35.97438029208848,27.195236121985534,27.195236121985534,31.8566281728037,35.97438029208848,46.937129059183285,-10,-0.33,0.33,10,36,26,35.67,36.33,46,3.1622776601683795,3.1622776601683795,3.1622776601683795,3.1622776601683795
2,18,0.128048199985642,w,46.6,Limited Time,l,36.41500099461558,46.63755084040357,38.24871725594096,33.63869844091968,33.63869844091968,36.41500099461558,38.24871725594096,46.63755084040357,-10,-0.33,0.33,10,36,26,35.67,36.33,46,3.1622776601683795,3.1622776601683795,3.1622776601683795,3.1622776601683795
2,19,0.1744623000267893,w,48.7,Limited Time,l,38.60250797348597,48.72321220767362,35.50517454289951,27.224241046281293,27.224241046281293,38.60250797348597,35.50517454289951,48.72321220767362,-10,-0.33,0.33,10,36,26,35.67,36.33,46,3.1622776601683795,3.1622776601683795,3.1622776601683795,3.1622776601683795
2,20,,,0.0,Limited Time,l,38.91692980593071,49.91904438603971,36.84548866385437,27.038150855972265,27.038150855972265,38.91692980593071,36.84548866385437,49.91904438603971,-10,-0.33,0.33,10,36,26,35.67,36.33,46,3.1622776601683795,3.1622776601683795,3.1622776601683795,3.1622776601683795
3,1,0.2966333999647759,o,31.5,Unlimited Time,e,33.0455330325481,40.23174294551081,31.472871034553624,18.872649050455138,33.0455330325481,40.23174294551081,31.472871034553624,18.872649050455138,0,0,0,0,36,36,36,36,36,3.1622776601683795,6.324555320336759,8.366600265340756,10
3,2,0.08065940003143623,o,35.3,Unlimited Time,e,31.483178716246382,42.16250241336923,35.272909678732184,44.859702208283075,31.483178716246382,42.16250241336923,35.272909678732184,44.859702208283075,0,0,0,0,36,36,36,36,36,3.1622776601683795,6.324555320336759,8.366600265340756,10
3,3,0.11733769997954369,p,44.6,Unlimited Time,e,40.79741013584394,36.11602636899711,26.509833442025876,44.63390533486206,40.79741013584394,36.11602636899711,26.509833442025876,44.63390533486206,0,0,0,0,36,36,36,36,36,3.1622776601683795,6.324555320336759,8.366600265340756,10
3,4,0.05507699999725446,p,33.0,Unlimited Time,e,38.576121050898536,36.75983039535731,37.15409354121465,33.03385764050578,38.576121050898536,36.75983039535731,37.15409354121465,33.03385764050578,0,0,0,0,36,36,36,36,36,3.1622776601683795,6.324555320336759,8.366600265340756,10
3,5,0.021503199997823685,o,30.6,Unlimited Time,e,37.43600827587276,48.70007696018405,30.639258068746106,42.95366745236857,37.43600827587276,48.70007696018405,30.639258068746106,42.95366745236857,0,0,0,0,36,36,36,36,36,3.1622776601683795,6.324555320336759,8.366600265340756,10
3,6,0.08325170003809035,o,29.4,Unlimited Time,e,30.498768703934342,32.27046199229659,29.353663781759153,18.423234632672752,30.498768703934342,32.27046199229659,29.353663781759153,18.423234632672752,0,0,0,0,36,36,36,36,36,3.1622776601683795,6.324555320336759,8.366600265340756,10
3,7,0.1589049000176601,p,53.1,Unlimited Time,e,36.73713614990123,28.320087224655477,38.39722314691571,53.138413401150814,36.73713614990123,28.320087224655477,38.39722314691571,53.138413401150814,0,0,0,0,36,36,36,36,36,3.1622776601683795,6.324555320336759,8.366600265340756,10
3,8,0.1642571000265889,q,37.6,Unlimited Time,e,37.60816217825251,35.1596476216741,34.63417789740692,35.56238832759304,37.60816217825251,35.1596476216741,34.63417789740692,35.56238832759304,0,0,0,0,36,36,36,36,36,3.1622776601683795,6.324555320336759,8.366600265340756,10
3,9,0.06660550000378862,p,33.3,Unlimited Time,e,38.32699178978345,34.44777587749188,42.091771618053215,33.33644347165692,38.32699178978345,34.44777587749188,42.091771618053215,33.33644347165692,0,0,0,0,36,36,36,36,36,3.1622776601683795,6.324555320336759,8.366600265340756,10
3,10,0.0592536999611184,p,43.8,Unlimited Time,e,36.74649567124777,26.72351227193623,43.53521293583873,43.78467106764646,36.74649567124777,26.72351227193623,43.53521293583873,43.78467106764646,0,0,0,0,36,36,36,36,36,3.1622776601683795,6.324555320336759,8.366600265340756,10
3,11,0.13848959997994825,o,48.7,Unlimited Time,e,32.90701101917796,45.06270425779595,48.689423656898924,29.09245506976922,32.90701101917796,45.06270425779595,48.689423656898924,29.09245506976922,0,0,0,0,36,36,36,36,36,3.1622776601683795,6.324555320336759,8.366600265340756,10
3,12,0.05972759996075183,o,25.2,Unlimited Time,e,33.20137584721424,32.922745931056724,25.16212345011722,47.51480802739546,33.20137584721424,32.922745931056724,25.16212345011722,47.51480802739546,0,0,0,0,36,36,36,36,36,3.1622776601683795,6.324555320336759,8.366600265340756,10
3,13,0.05081419995985925,o,42.7,Unlimited Time,e,33.25136930585273,31.41648913127478,42.6742077910847,47.4377422507583,33.25136930585273,31.41648913127478,42.6742077910847,47.4377422507583,0,0,0,0,36,36,36,36,36,3.1622776601683795,6.324555320336759,8.366600265340756,10
3,14,0.05490689998259768,o,26.9,Unlimited Time,e,31.931144427916077,23.758435204796456,26.932000391317075,58.586257622162556,31.931144427916077,23.758435204796456,26.932000391317075,58.586257622162556,0,0,0,0,36,36,36,36,36,3.1622776601683795,6.324555320336759,8.366600265340756,10
3,15,0.009592699992936105,o,40.1,Unlimited Time,e,36.59912139916972,36.40366920900152,40.07522862753514,19.156361435827876,36.59912139916972,36.40366920900152,40.07522862753514,19.156361435827876,0,0,0,0,36,36,36,36,36,3.1622776601683795,6.324555320336759,8.366600265340756,10
3,16,0.012555399967823178,o,53.4,Unlimited Time,e,38.28181479703441,36.92690093558695,53.375593661162554,29.164342303047256,38.28181479703441,36.92690093558695,53.375593661162554,29.164342303047256,0,0,0,0,36,36,36,36,36,3.1622776601683795,6.324555320336759,8.366600265340756,10
3,17,0.030908699962310493,o,29.2,Unlimited Time,e,39.940219901739155,44.3659748908585,29.202862870759432,31.761054265215154,39.940219901739155,44.3659748908585,29.202862870759432,31.761054265215154,0,0,0,0,36,36,36,36,36,3.1622776601683795,6.324555320336759,8.366600265340756,10
3,18,0.055792300030589104,p,41.5,Unlimited Time,e,39.20997197598377,33.9419096032343,34.73247774655042,41.476960261452646,39.20997197598377,33.9419096032343,34.73247774655042,41.476960261452646,0,0,0,0,36,36,36,36,36,3.1622776601683795,6.324555320336759,8.366600265340756,10
3,19,0.021595500002149493,p,34.0,Unlimited Time,e,41.335807523413465,35.973419991400704,50.77517527730278,33.98211476178001,41.335807523413465,35.973419991400704,50.77517527730278,33.98211476178001,0,0,0,0,36,36,36,36,36,3.1622776601683795,6.324555320336759,8.366600265340756,10
3,20,0.060001500009093434,o,43.0,Unlimited Time,e,39.71709938116248,31.48375818420372,42.99588763831312,30.00448174237487,39.71709938116248,31.48375818420372,42.99588763831312,30.00448174237487,0,0,0,0,36,36,36,36,36,3.1622776601683795,6.324555320336759,8.366600265340756,10
4,1,,,0.0,Limited Time,e,33.0455330325481,31.472871034553624,40.23174294551081,18.872649050455138,33.0455330325481,40.23174294551081,31.472871034553624,18.872649050455138,0,0,0,0,36,36,36,36,36,3.1622776601683795,6.324555320336759,8.366600265340756,10
4,2,0.02640509995399043,o,42.2,Limited Time,e,31.483178716246382,35.272909678732184,42.16250241336923,44.859702208283075,31.483178716246382,42.16250241336923,35.272909678732184,44.859702208283075,0,0,0,0,36,36,36,36,36,3.1622776601683795,6.324555320336759,8.366600265340756,10
4,3,0.17228050000267103,w,26.5,Limited Time,e,40.79741013584394,26.509833442025876,36.11602636899711,44.63390533486206,40.79741013584394,36.11602636899711,26.509833442025876,44.63390533486206,0,0,0,0,36,36,36,36,36,3.1622776601683795,6.324555320336759,8.366600265340756,10
4,4,0.09393179998733103,w,37.2,Limited Time,e,38.576121050898536,37.15409354121465,36.75983039535731,33.03385764050578,38.576121050898536,36.75983039535731,37.15409354121465,33.03385764050578,0,0,0,0,36,36,36,36,36,3.1622776601683795,6.324555320336759,8.366600265340756,10
4,5,0.0846326999599114,p,43.0,Limited Time,e,37.43600827587276,30.639258068746106,48.70007696018405,42.95366745236857,37.43600827587276,48.70007696018405,30.639258068746106,42.95366745236857,0,0,0,0,36,36,36,36,36,3.1622776601683795,6.324555320336759,8.366600265340756,10
4,6,0.0261428999947384,o,32.3,Limited Time,e,30.498768703934342,29.353663781759153,32.27046199229659,18.423234632672752,30.498768703934342,32.27046199229659,29.353663781759153,18.423234632672752,0,0,0,0,36,36,36,36,36,3.1622776601683795,6.324555320336759,8.366600265340756,10
4,7,0.02739489998202771,w,38.4,Limited Time,e,36.73713614990123,38.39722314691571,28.320087224655477,53.138413401150814,36.73713614990123,28.320087224655477,38.39722314691571,53.138413401150814,0,0,0,0,36,36,36,36,36,3.1622776601683795,6.324555320336759,8.366600265340756,10
4,8,0.027626900002360344,p,35.6,Limited Time,e,37.60816217825251,34.63417789740692,35.1596476216741,35.56238832759304,37.60816217825251,35.1596476216741,34.63417789740692,35.56238832759304,0,0,0,0,36,36,36,36,36,3.1622776601683795,6.324555320336759,8.366600265340756,10
4,9,0.04383530002087355,o,34.4,Limited Time,e,38.32699178978345,42.091771618053215,34.44777587749188,33.33644347165692,38.32699178978345,34.44777587749188,42.091771618053215,33.33644347165692,0,0,0,0,36,36,36,36,36,3.1622776601683795,6.324555320336759,8.366600265340756,10
4,10,0.06139320001238957,o,26.7,Limited Time,e,36.74649567124777,43.53521293583873,26.72351227193623,43.78467106764646,36.74649567124777,26.72351227193623,43.53521293583873,43.78467106764646,0,0,0,0,36,36,36,36,36,3.1622776601683795,6.324555320336759,8.366600265340756,10
4,11,0.04930940002668649,o,45.1,Limited Time,e,32.90701101917796,48.689423656898924,45.06270425779595,29.09245506976922,32.90701101917796,45.06270425779595,48.689423656898924,29.09245506976922,0,0,0,0,36,36,36,36,36,3.1622776601683795,6.324555320336759,8.366600265340756,10
4,12,0.005047399958129972,w,25.2,Limited Time,e,33.20137584721424,25.16212345011722,32.922745931056724,47.51480802739546,33.20137584721424,32.922745931056724,25.16212345011722,47.51480802739546,0,0,0,0,36,36,36,36,36,3.1622776601683795,6.324555320336759,8.366600265340756,10
4,13,0.0029626000323332846,o,31.4,Limited Time,e,33.25136930585273,42.6742077910847,31.41648913127478,47.4377422507583,33.25136930585273,31.41648913127478,42.6742077910847,47.4377422507583,0,0,0,0,36,36,36,36,36,3.1622776601683795,6.324555320336759,8.366600265340756,10
4,14,0.027726300002541393,w,26.9,Limited Time,e,31.931144427916077,26.932000391317075,23.758435204796456,58.586257622162556,31.931144427916077,23.758435204796456,26.932000391317075,58.586257622162556,0,0,0,0,36,36,36,36,36,3.1622776601683795,6.324555320336759,8.366600265340756,10
4,15,0.011375400004908442,w,40.1,Limited Time,e,36.59912139916972,40.07522862753514,36.40366920900152,19.156361435827876,36.59912139916972,36.40366920900152,40.07522862753514,19.156361435827876,0,0,0,0,36,36,36,36,36,3.1622776601683795,6.324555320336759,8.366600265340756,10
4,16,0.023177700000815094,w,53.4,Limited Time,e,38.28181479703441,53.375593661162554,36.92690093558695,29.164342303047256,38.28181479703441,36.92690093558695,53.375593661162554,29.164342303047256,0,0,0,0,36,36,36,36,36,3.1622776601683795,6.324555320336759,8.366600265340756,10
4,17,0.281932300014887,w,29.2,Limited Time,e,39.940219901739155,29.202862870759432,44.3659748908585,31.761054265215154,39.940219901739155,44.3659748908585,29.202862870759432,31.761054265215154,0,0,0,0,36,36,36,36,36,3.1622776601683795,6.324555320336759,8.366600265340756,10
4,18,0.015236700011882931,p,41.5,Limited Time,e,39.20997197598377,34.73247774655042,33.9419096032343,41.476960261452646,39.20997197598377,33.9419096032343,34.73247774655042,41.476960261452646,0,0,0,0,36,36,36,36,36,3.1622776601683795,6.324555320336759,8.366600265340756,10
4,19,,,0.0,Limited Time,e,41.335807523413465,50.77517527730278,35.973419991400704,33.98211476178001,41.335807523413465,35.973419991400704,50.77517527730278,33.98211476178001,0,0,0,0,36,36,36,36,36,3.1622776601683795,6.324555320336759,8.366600265340756,10
4,20,0.021581500011961907,q,39.7,Limited Time,e,39.71709938116248,42.99588763831312,31.48375818420372,30.00448174237487,39.71709938116248,31.48375818420372,42.99588763831312,30.00448174237487,0,0,0,0,36,36,36,36,36,3.1622776601683795,6.324555320336759,8.366600265340756,10
5,1,0.2526371999992989,w,50.5,Unlimited Time,l,38.70125983809585,50.51266916273217,44.30154739031589,24.116272085583656,24.116272085583656,38.70125983809585,44.30154739031589,50.51266916273217,-10,-0.33,0.33,10,36,26,35.67,36.33,46,3.1622776601683795,3.1622776601683795,3.1622776601683795,3.1622776601683795
5,2,0.2072811999823898,w,44.8,Unlimited Time,l,34.71783902654006,44.78034171426283,33.876407973741216,25.973430288732402,25.973430288732402,34.71783902654006,33.876407973741216,44.78034171426283,-10,-0.33,0.33,10,36,26,35.67,36.33,46,3.1622776601683795,3.1622776601683795,3.1622776601683795,3.1622776601683795
5,3,0.14873300003819168,w,48.1,Unlimited Time,l,36.08274297354163,48.11276370854284,36.33853194645686,29.243957911606262,29.243957911606262,36.08274297354163,36.33853194645686,48.11276370854284,-10,-0.33,0.33,10,36,26,35.67,36.33,46,3.1622776601683795,3.1622776601683795,3.1622776601683795,3.1622776601683795
5,4,0.0901581000071019,o,32.5,Unlimited Time,l,38.06161341782081,49.19532941377196,32.45438792038467,31.56772445533683,31.56772445533683,38.06161341782081,32.45438792038467,49.19532941377196,-10,-0.33,0.33,10,36,26,35.67,36.33,46,3.1622776601683795,3.1622776601683795,3.1622776601683795,3.1622776601683795
5,5,0.08643630001461133,o,35.2,Unlimited Time,l,34.67904743864076,50.25242114691856,35.185486045493334,27.609420888015016,27.609420888015016,34.67904743864076,35.185486045493334,50.25242114691856,-10,-0.33,0.33,10,36,26,35.67,36.33,46,3.1622776601683795,3.1622776601683795,3.1622776601683795,3.1622776601683795
5,6,0.08218720002332702,q,33.4,Unlimited Time,l,33.35475957057333,40.72076297117407,43.39519511301601,22.62431820308155,22.62431820308155,33.35475957057333,43.39519511301601,40.72076297117407,-10,-0.33,0.33,10,36,26,35.67,36.33,46,3.1622776601683795,3.1622776601683795,3.1622776601683795,3.1622776601683795
5,7,0.1703789999592118,q,35.6,Unlimited Time,l,35.62839652882822,47.70791280896845,34.1121875626109,26.04589602723998,26.04589602723998,35.62839652882822,34.1121875626109,47.70791280896845,-10,-0.33,0.33,10,36,26,35.67,36.33,46,3.1622776601683795,3.1622776601683795,3.1622776601683795,3.1622776601683795
5,8,0.15792169998167083,p,18.9,Unlimited Time,l,36.268448454776475,44.24353685504895,42.003758989972816,18.920865729199317,18.920865729199317,36.268448454776475,42.003758989972816,44.24353685504895,-10,-0.33,0.33,10,36,26,35.67,36.33,46,3.1622776601683795,3.1622776601683795,3.1622776601683795,3.1622776601683795
5,9,0.1000373000279069,p,26.8,Unlimited Time,l,35.82045566700242,49.022876165134626,29.497930899958526,26.76105104555033,26.76105104555033,35.82045566700242,29.497930899958526,49.022876165134626,-10,-0.33,0.33,10,36,26,35.67,36.33,46,3.1622776601683795,3.1622776601683795,3.1622776601683795,3.1622776601683795
5,10,0.008056599996052682,w,45.4,Unlimited Time,l,39.06926083114183,45.38516319028497,36.79723566330793,24.4148632495698,24.4148632495698,39.06926083114183,36.79723566330793,45.38516319028497,-10,-0.33,0.33,10,36,26,35.67,36.33,46,3.1622776601683795,3.1622776601683795,3.1622776601683795,3.1622776601683795
5,11,0.13807659997837618,w,48.6,Unlimited Time,l,39.21215687833133,48.62089735235196,32.66408081212232,28.684017523784977,28.684017523784977,39.21215687833133,32.66408081212232,48.62089735235196,-10,-0.33,0.33,10,36,26,35.67,36.33,46,3.1622776601683795,3.1622776601683795,3.1622776601683795,3.1622776601683795
5,12,0.1953108999878168,w,47.3,Unlimited Time,l,36.48907864760302,47.272124867950275,36.06241534575266,33.291499823308556,33.291499823308556,36.48907864760302,36.06241534575266,47.272124867950275,-10,-0.33,0.33,10,36,26,35.67,36.33,46,3.1622776601683795,3.1622776601683795,3.1622776601683795,3.1622776601683795
5,13,0.02899929997511208,w,42.3,Unlimited Time,l,33.85328543465029,42.29935487494576,38.400622798771124,28.397644419743845,28.397644419743845,33.85328543465029,38.400622798771124,42.29935487494576,-10,-0.33,0.33,10,36,26,35.67,36.33,46,3.1622776601683795,3.1622776601683795,3.1622776601683795,3.1622776601683795
5,14,0.19142510002711788,w,46.0,Unlimited Time,l,36.367710034183915,45.98916397523664,37.072232046447354,22.6091023904601,22.6091023904601,36.367710034183915,37.072232046447354,45.98916397523664,-10,-0.33,0.33,10,36,26,35.67,36.33,46,3.1622776601683795,3.1622776601683795,3.1622776601683795,3.1622776601683795
5,15,0.14923779998207465,w,49.4,Unlimited Time,l,38.032073685621064,49.37986434831612,37.629688543632085,29.57444325502298,29.57444325502298,38.032073685621064,37.629688543632085,49.37986434831612,-10,-0.33,0.33,10,36,26,35.67,36.33,46,3.1622776601683795,3.1622776601683795,3.1622776601683795,3.1622776601683795
5,16,0.15766009996877983,w,43.2,Unlimited Time,l,31.240143009120246,43.17499826306035,36.898320112730154,21.78299371075032,21.78299371075032,31.240143009120246,36.898320112730154,43.17499826306035,-10,-0.33,0.33,10,36,26,35.67,36.33,46,3.1622776601683795,3.1622776601683795,3.1622776601683795,3.1622776601683795
5,17,0.19927159999497235,w,46.9,Unlimited Time,l,31.8566281728037,46.937129059183285,35.97438029208848,27.195236121985534,27.195236121985534,31.8566281728037,35.97438029208848,46.937129059183285,-10,-0.33,0.33,10,36,26,35.67,36.33,46,3.1622776601683795,3.1622776601683795,3.1622776601683795,3.1622776601683795
5,18,0.09662819997174665,w,46.6,Unlimited Time,l,36.41500099461558,46.63755084040357,38.24871725594096,33.63869844091968,33.63869844091968,36.41500099461558,38.24871725594096,46.63755084040357,-10,-0.33,0.33,10,36,26,35.67,36.33,46,3.1622776601683795,3.1622776601683795,3.1622776601683795,3.1622776601683795
5,19,0.1668655999819748,w,48.7,Unlimited Time,l,38.60250797348597,48.72321220767362,35.50517454289951,27.224241046281293,27.224241046281293,38.60250797348597,35.50517454289951,48.72321220767362,-10,-0.33,0.33,10,36,26,35.67,36.33,46,3.1622776601683795,3.1622776601683795,3.1622776601683795,3.1622776601683795
5,20,0.17121249996125698,w,49.9,Unlimited Time,l,38.91692980593071,49.91904438603971,36.84548866385437,27.038150855972265,27.038150855972265,38.91692980593071,36.84548866385437,49.91904438603971,-10,-0.33,0.33,10,36,26,35.67,36.33,46,3.1622776601683795,3.1622776601683795,3.1622776601683795,3.1622776601683795
6,1,0.18336959998123348,w,18.9,Limited Time,e,33.0455330325481,18.872649050455138,31.472871034553624,40.23174294551081,33.0455330325481,40.23174294551081,31.472871034553624,18.872649050455138,0,0,0,0,36,36,36,36,36,3.1622776601683795,6.324555320336759,8.366600265340756,10
6,2,0.1173183000064455,w,44.9,Limited Time,e,31.483178716246382,44.859702208283075,35.272909678732184,42.16250241336923,31.483178716246382,42.16250241336923,35.272909678732184,44.859702208283075,0,0,0,0,36,36,36,36,36,3.1622776601683795,6.324555320336759,8.366600265340756,10
6,3,0.14966540003661066,o,26.5,Limited Time,e,40.79741013584394,44.63390533486206,26.509833442025876,36.11602636899711,40.79741013584394,36.11602636899711,26.509833442025876,44.63390533486206,0,0,0,0,36,36,36,36,36,3.1622776601683795,6.324555320336759,8.366600265340756,10
6,4,0.04199639998842031,o,37.2,Limited Time,e,38.576121050898536,33.03385764050578,37.15409354121465,36.75983039535731,38.576121050898536,36.75983039535731,37.15409354121465,33.03385764050578,0,0,0,0,36,36,36,36,36,3.1622776601683795,6.324555320336759,8.366600265340756,10
6,5,0.059197999944444746,o,30.6,Limited Time,e,37.43600827587276,42.95366745236857,30.639258068746106,48.70007696018405,37.43600827587276,48.70007696018405,30.639258068746106,42.95366745236857,0,0,0,0,36,36,36,36,36,3.1622776601683795,6.324555320336759,8.366600265340756,10
6,6,0.09668879996752366,p,32.3,Limited Time,e,30.498768703934342,18.423234632672752,29.353663781759153,32.27046199229659,30.498768703934342,32.27046199229659,29.353663781759153,18.423234632672752,0,0,0,0,36,36,36,36,36,3.1622776601683795,6.324555320336759,8.366600265340756,10
6,7,0.07636240002466366,p,28.3,Limited Time,e,36.73713614990123,53.138413401150814,38.39722314691571,28.320087224655477,36.73713614990123,28.320087224655477,38.39722314691571,53.138413401150814,0,0,0,0,36,36,36,36,36,3.1622776601683795,6.324555320336759,8.366600265340756,10
6,8,0.02181939996080473,p,35.2,Limited Time,e,37.60816217825251,35.56238832759304,34.63417789740692,35.1596476216741,37.60816217825251,35.1596476216741,34.63417789740692,35.56238832759304,0,0,0,0,36,36,36,36,36,3.1622776601683795,6.324555320336759,8.366600265340756,10
6,9,0.018802199978381395,p,34.4,Limited Time,e,38.32699178978345,33.33644347165692,42.091771618053215,34.44777587749188,38.32699178978345,34.44777587749188,42.091771618053215,33.33644347165692,0,0,0,0,36,36,36,36,36,3.1622776601683795,6.324555320336759,8.366600265340756,10
6,10,0.050158899975940585,q,36.7,Limited Time,e,36.74649567124777,43.78467106764646,43.53521293583873,26.72351227193623,36.74649567124777,26.72351227193623,43.53521293583873,43.78467106764646,0,0,0,0,36,36,36,36,36,3.1622776601683795,6.324555320336759,8.366600265340756,10
6,11,0.11741730000358075,q,32.9,Limited Time,e,32.90701101917796,29.09245506976922,48.689423656898924,45.06270425779595,32.90701101917796,45.06270425779595,48.689423656898924,29.09245506976922,0,0,0,0,36,36,36,36,36,3.1622776601683795,6.324555320336759,8.366600265340756,10
6,12,0.1268673000158742,q,33.2,Limited Time,e,33.20137584721424,47.51480802739546,25.16212345011722,32.922745931056724,33.20137584721424,32.922745931056724,25.16212345011722,47.51480802739546,0,0,0,0,36,36,36,36,36,3.1622776601683795,6.324555320336759,8.366600265340756,10
6,13,0.15974070003721863,w,47.4,Limited Time,e,33.25136930585273,47.4377422507583,42.6742077910847,31.41648913127478,33.25136930585273,31.41648913127478,42.6742077910847,47.4377422507583,0,0,0,0,36,36,36,36,36,3.1622776601683795,6.324555320336759,8.366600265340756,10
6,14,0.10967979999259114,w,58.6,Limited Time,e,31.931144427916077,58.586257622162556,26.932000391317075,23.758435204796456,31.931144427916077,23.758435204796456,26.932000391317075,58.586257622162556,0,0,0,0,36,36,36,36,36,3.1622776601683795,6.324555320336759,8.366600265340756,10
6,15,0.02288040000712499,q,36.6,Limited Time,e,36.59912139916972,19.156361435827876,40.07522862753514,36.40366920900152,36.59912139916972,36.40366920900152,40.07522862753514,19.156361435827876,0,0,0,0,36,36,36,36,36,3.1622776601683795,6.324555320336759,8.366600265340756,10
6,16,0.18026190000819042,w,29.2,Limited Time,e,38.28181479703441,29.164342303047256,53.375593661162554,36.92690093558695,38.28181479703441,36.92690093558695,53.375593661162554,29.164342303047256,0,0,0,0,36,36,36,36,36,3.1622776601683795,6.324555320336759,8.366600265340756,10
6,17,0.1891202999977395,w,31.8,Limited Time,e,39.940219901739155,31.761054265215154,29.202862870759432,44.3659748908585,39.940219901739155,44.3659748908585,29.202862870759432,31.761054265215154,0,0,0,0,36,36,36,36,36,3.1622776601683795,6.324555320336759,8.366600265340756,10
6,18,0.1547648999840021,w,41.5,Limited Time,e,39.20997197598377,41.476960261452646,34.73247774655042,33.9419096032343,39.20997197598377,33.9419096032343,34.73247774655042,41.476960261452646,0,0,0,0,36,36,36,36,36,3.1622776601683795,6.324555320336759,8.366600265340756,10
6,19,0.005931299994699657,w,34.0,Limited Time,e,41.335807523413465,33.98211476178001,50.77517527730278,35.973419991400704,41.335807523413465,35.973419991400704,50.77517527730278,33.98211476178001,0,0,0,0,36,36,36,36,36,3.1622776601683795,6.324555320336759,8.366600265340756,10
6,20,0.006634499994106591,w,30.0,Limited Time,e,39.71709938116248,30.00448174237487,42.99588763831312,31.48375818420372,39.71709938116248,31.48375818420372,42.99588763831312,30.00448174237487,0,0,0,0,36,36,36,36,36,3.1622776601683795,6.324555320336759,8.366600265340756,10
7,1,0.26801320002414286,w,44.3,Unlimited Time,l,24.116272085583656,44.30154739031589,50.51266916273217,38.70125983809585,24.116272085583656,38.70125983809585,44.30154739031589,50.51266916273217,-10,-0.33,0.33,10,36,26,35.67,36.33,46,3.1622776601683795,3.1622776601683795,3.1622776601683795,3.1622776601683795
7,2,0.28105829999549314,q,26.0,Unlimited Time,l,25.973430288732402,33.876407973741216,44.78034171426283,34.71783902654006,25.973430288732402,34.71783902654006,33.876407973741216,44.78034171426283,-10,-0.33,0.33,10,36,26,35.67,36.33,46,3.1622776601683795,3.1622776601683795,3.1622776601683795,3.1622776601683795
7,3,0.001241200021468103,w,36.3,Unlimited Time,l,29.243957911606262,36.33853194645686,48.11276370854284,36.08274297354163,29.243957911606262,36.08274297354163,36.33853194645686,48.11276370854284,-10,-0.33,0.33,10,36,26,35.67,36.33,46,3.1622776601683795,3.1622776601683795,3.1622776601683795,3.1622776601683795
7,4,0.14307819999521598,w,32.5,Unlimited Time,l,31.56772445533683,32.45438792038467,49.19532941377196,38.06161341782081,31.56772445533683,38.06161341782081,32.45438792038467,49.19532941377196,-10,-0.33,0.33,10,36,26,35.67,36.33,46,3.1622776601683795,3.1622776601683795,3.1622776601683795,3.1622776601683795
7,5,0.2107937000109814,w,35.2,Unlimited Time,l,27.609420888015016,35.185486045493334,50.25242114691856,34.67904743864076,27.609420888015016,34.67904743864076,35.185486045493334,50.25242114691856,-10,-0.33,0.33,10,36,26,35.67,36.33,46,3.1622776601683795,3.1622776601683795,3.1622776601683795,3.1622776601683795
7,6,0.02750580001156777,o,40.7,Unlimited Time,l,22.62431820308155,43.39519511301601,40.72076297117407,33.35475957057333,22.62431820308155,33.35475957057333,43.39519511301601,40.72076297117407,-10,-0.33,0.33,10,36,26,35.67,36.33,46,3.1622776601683795,3.1622776601683795,3.1622776601683795,3.1622776601683795
7,7,0.039408700016792864,p,35.6,Unlimited Time,l,26.04589602723998,34.1121875626109,47.70791280896845,35.62839652882822,26.04589602723998,35.62839652882822,34.1121875626109,47.70791280896845,-10,-0.33,0.33,10,36,26,35.67,36.33,46,3.1622776601683795,3.1622776601683795,3.1622776601683795,3.1622776601683795
7,8,0.02380789996823296,p,36.3,Unlimited Time,l,18.920865729199317,42.003758989972816,44.24353685504895,36.268448454776475,18.920865729199317,36.268448454776475,42.003758989972816,44.24353685504895,-10,-0.33,0.33,10,36,26,35.67,36.33,46,3.1622776601683795,3.1622776601683795,3.1622776601683795,3.1622776601683795
7,9,0.006510599981993437,o,49.0,Unlimited Time,l,26.76105104555033,29.497930899958526,49.022876165134626,35.82045566700242,26.76105104555033,35.82045566700242,29.497930899958526,49.022876165134626,-10,-0.33,0.33,10,36,26,35.67,36.33,46,3.1622776601683795,3.1622776601683795,3.1622776601683795,3.1622776601683795
7,10,0.09827800001949072,o,45.4,Unlimited Time,l,24.4148632495698,36.79723566330793,45.38516319028497,39.06926083114183,24.4148632495698,39.06926083114183,36.79723566330793,45.38516319028497,-10,-0.33,0.33,10,36,26,35.67,36.33,46,3.1622776601683795,3.1622776601683795,3.1622776601683795,3.1622776601683795
7,11,0.056881099997553974,p,39.2,Unlimited Time,l,28.684017523784977,32.66408081212232,48.62089735235196,39.21215687833133,28.684017523784977,39.21215687833133,32.66408081212232,48.62089735235196,-10,-0.33,0.33,10,36,26,35.67,36.33,46,3.1622776601683795,3.1622776601683795,3.1622776601683795,3.1622776601683795
7,12,0.1351204999955371,o,47.3,Unlimited Time,l,33.291499823308556,36.06241534575266,47.272124867950275,36.48907864760302,33.291499823308556,36.48907864760302,36.06241534575266,47.272124867950275,-10,-0.33,0.33,10,36,26,35.67,36.33,46,3.1622776601683795,3.1622776601683795,3.1622776601683795,3.1622776601683795
7,13,0.09565249999286607,p,33.9,Unlimited Time,l,28.397644419743845,38.400622798771124,42.29935487494576,33.85328543465029,28.397644419743845,33.85328543465029,38.400622798771124,42.29935487494576,-10,-0.33,0.33,10,36,26,35.67,36.33,46,3.1622776601683795,3.1622776601683795,3.1622776601683795,3.1622776601683795
7,14,0.2902574999607168,p,36.4,Unlimited Time,l,22.6091023904601,37.072232046447354,45.98916397523664,36.367710034183915,22.6091023904601,36.367710034183915,37.072232046447354,45.98916397523664,-10,-0.33,0.33,10,36,26,35.67,36.33,46,3.1622776601683795,3.1622776601683795,3.1622776601683795,3.1622776601683795
7,15,0.14881300000706688,p,38.0,Unlimited Time,l,29.57444325502298,37.629688543632085,49.37986434831612,38.032073685621064,29.57444325502298,38.032073685621064,37.629688543632085,49.37986434831612,-10,-0.33,0.33,10,36,26,35.67,36.33,46,3.1622776601683795,3.1622776601683795,3.1622776601683795,3.1622776601683795
7,16,0.10663009999552742,p,31.2,Unlimited Time,l,21.78299371075032,36.898320112730154,43.17499826306035,31.240143009120246,21.78299371075032,31.240143009120246,36.898320112730154,43.17499826306035,-10,-0.33,0.33,10,36,26,35.67,36.33,46,3.1622776601683795,3.1622776601683795,3.1622776601683795,3.1622776601683795
7,17,0.048712900024838746,p,31.9,Unlimited Time,l,27.195236121985534,35.97438029208848,46.937129059183285,31.8566281728037,27.195236121985534,31.8566281728037,35.97438029208848,46.937129059183285,-10,-0.33,0.33,10,36,26,35.67,36.33,46,3.1622776601683795,3.1622776601683795,3.1622776601683795,3.1622776601683795
7,18,0.19531680003274232,p,36.4,Unlimited Time,l,33.63869844091968,38.24871725594096,46.63755084040357,36.41500099461558,33.63869844091968,36.41500099461558,38.24871725594096,46.63755084040357,-10,-0.33,0.33,10,36,26,35.67,36.33,46,3.1622776601683795,3.1622776601683795,3.1622776601683795,3.1622776601683795
7,19,0.10340540000470355,p,38.6,Unlimited Time,l,27.224241046281293,35.50517454289951,48.72321220767362,38.60250797348597,27.224241046281293,38.60250797348597,35.50517454289951,48.72321220767362,-10,-0.33,0.33,10,36,26,35.67,36.33,46,3.1622776601683795,3.1622776601683795,3.1622776601683795,3.1622776601683795
7,20,0.0939115000073798,p,38.9,Unlimited Time,l,27.038150855972265,36.84548866385437,49.91904438603971,38.91692980593071,27.038150855972265,38.91692980593071,36.84548866385437,49.91904438603971,-10,-0.33,0.33,10,36,26,35.67,36.33,46,3.1622776601683795,3.1622776601683795,3.1622776601683795,3.1622776601683795
8,1,,,0.0,Limited Time,h,28.66463179074012,29.90228110828675,23.47994694835007,41.751920709489966,28.66463179074012,29.90228110828675,23.47994694835007,41.751920709489966,-10,-0.33,0.33,10,36,26,35.67,36.33,46,10,10,10,10
8,2,0.06605879997368902,p,50.5,Limited Time,h,6.46814966007522,47.46998254128134,36.180835677018166,50.52973309367843,6.46814966007522,47.46998254128134,36.180835677018166,50.52973309367843,-10,-0.33,0.33,10,36,26,35.67,36.33,46,10,10,10,10
8,3,0.17976050003198907,w,21.0,Limited Time,h,26.339996143495345,20.994865000715542,34.14549233300198,54.852027519651344,26.339996143495345,20.994865000715542,34.14549233300198,54.852027519651344,-10,-0.33,0.33,10,36,26,35.67,36.33,46,10,10,10,10
8,4,0.0876925999764353,w,57.8,Limited Time,h,37.031079767820614,57.813022507239666,53.04234316767447,44.178910868330185,37.031079767820614,57.813022507239666,53.04234316767447,44.178910868330185,-10,-0.33,0.33,10,36,26,35.67,36.33,46,10,10,10,10
8,5,0.0786223000031896,w,40.2,Limited Time,h,14.17300570301337,40.18026110991147,28.93121786251554,42.142228572364914,14.17300570301337,40.18026110991147,28.93121786251554,42.142228572364914,-10,-0.33,0.33,10,36,26,35.67,36.33,46,10,10,10,10
8,6,0.086695600009989,w,33.5,Limited Time,h,42.426084215481694,33.51231956643908,46.537570736873434,45.058709622282365,42.426084215481694,33.51231956643908,46.537570736873434,45.058709622282365,-10,-0.33,0.33,10,36,26,35.67,36.33,46,10,10,10,10
8,7,0.08063079998828471,w,35.9,Limited Time,h,29.160605699775545,35.90322539309001,35.77550284889558,26.00683330020103,29.160605699775545,35.90322539309001,35.77550284889558,26.00683330020103,-10,-0.33,0.33,10,36,26,35.67,36.33,46,10,10,10,10
8,8,0.12436409998917952,q,30.2,Limited Time,h,30.243502045065604,41.71469546541466,31.98971111454116,48.06123279420667,30.243502045065604,41.71469546541466,31.98971111454116,48.06123279420667,-10,-0.33,0.33,10,36,26,35.67,36.33,46,10,10,10,10
8,9,0.17221879999851808,q,31.2,Limited Time,h,31.163568149829285,20.548147776316465,34.45566834957657,49.09753872503749,31.163568149829285,20.548147776316465,34.45566834957657,49.09753872503749,-10,-0.33,0.33,10,36,26,35.67,36.33,46,10,10,10,10
8,10,0.12069409998366609,q,28.0,Limited Time,h,28.01661879198376,47.095439975119405,37.648784670792466,41.45709010337461,28.01661879198376,47.095439975119405,37.648784670792466,41.45709010337461,-10,-0.33,0.33,10,36,26,35.67,36.33,46,10,10,10,10
8,11,0.26640409999527037,w,32.7,Limited Time,h,26.46871692593409,32.707181060623604,32.2367876598132,40.43507897066897,26.46871692593409,32.707181060623604,32.2367876598132,40.43507897066897,-10,-0.33,0.33,10,36,26,35.67,36.33,46,10,10,10,10
8,12,0.004104899999219924,w,31.1,Limited Time,h,22.90717246841605,31.055079454366833,20.993419842510512,36.677258469679714,22.90717246841605,31.055079454366833,20.993419842510512,36.677258469679714,-10,-0.33,0.33,10,36,26,35.67,36.33,46,10,10,10,10
8,13,0.09137330000521615,o,54.0,Limited Time,h,15.279610031372131,41.33905148264754,54.02641931305962,39.12974721216854,15.279610031372131,41.33905148264754,54.02641931305962,39.12974721216854,-10,-0.33,0.33,10,36,26,35.67,36.33,46,10,10,10,10
8,14,0.0833996000001207,o,44.2,Limited Time,h,32.56065143716482,23.567458679198296,44.154470453826455,53.79812646158281,32.56065143716482,23.567458679198296,44.154470453826455,53.79812646158281,-10,-0.33,0.33,10,36,26,35.67,36.33,46,10,10,10,10
8,15,0.05504470004234463,o,42.1,Limited Time,h,30.40862243490257,37.84260885388315,42.06495023902287,54.162301502652376,30.40862243490257,37.84260885388315,42.06495023902287,54.162301502652376,-10,-0.33,0.33,10,36,26,35.67,36.33,46,10,10,10,10
8,16,0.042685699998401105,o,28.7,Limited Time,h,42.61162300508313,30.462534855629183,28.690981349201415,33.14348442996712,42.61162300508313,30.462534855629183,28.690981349201415,33.14348442996712,-10,-0.33,0.33,10,36,26,35.67,36.33,46,10,10,10,10
8,17,0.07118470000568777,o,38.7,Limited Time,h,19.641138584048075,26.43000344953919,38.68809541024259,44.37783798499388,19.641138584048075,26.43000344953919,38.68809541024259,44.37783798499388,-10,-0.33,0.33,10,36,26,35.67,36.33,46,10,10,10,10
8,18,0.06598290003603324,o,37.8,Limited Time,h,27.541722725285414,8.74509754281813,37.83952057633549,46.73349074657708,27.541722725285414,8.74509754281813,37.83952057633549,46.73349074657708,-10,-0.33,0.33,10,36,26,35.67,36.33,46,10,10,10,10
8,19,0.16793330002110451,p,47.4,Limited Time,h,21.82452605607557,48.23374750409569,41.820131873961195,47.43878515621063,21.82452605607557,48.23374750409569,41.820131873961195,47.43878515621063,-10,-0.33,0.33,10,36,26,35.67,36.33,46,10,10,10,10
8,20,0.0636180000146851,p,37.6,Limited Time,h,55.228561350472766,16.841676755787574,56.97556031449737,37.5763800604596,55.228561350472766,16.841676755787574,56.97556031449737,37.5763800604596,-10,-0.33,0.33,10,36,26,35.67,36.33,46,10,10,10,10
9,1,0.28395610000006855,o,18.9,Unlimited Time,e,33.0455330325481,40.23174294551081,18.872649050455138,31.472871034553624,33.0455330325481,40.23174294551081,31.472871034553624,18.872649050455138,0,0,0,0,36,36,36,36,36,3.1622776601683795,6.324555320336759,8.366600265340756,10
9,2,0.5310148000135086,w,42.2,Unlimited Time,e,31.483178716246382,42.16250241336923,44.859702208283075,35.272909678732184,31.483178716246382,42.16250241336923,35.272909678732184,44.859702208283075,0,0,0,0,36,36,36,36,36,3.1622776601683795,6.324555320336759,8.366600265340756,10
9,3,0.037648199999239296,q,40.8,Unlimited Time,e,40.79741013584394,36.11602636899711,44.63390533486206,26.509833442025876,40.79741013584394,36.11602636899711,26.509833442025876,44.63390533486206,0,0,0,0,36,36,36,36,36,3.1622776601683795,6.324555320336759,8.366600265340756,10
9,4,0.107860799995251,p,37.2,Unlimited Time,e,38.576121050898536,36.75983039535731,33.03385764050578,37.15409354121465,38.576121050898536,36.75983039535731,37.15409354121465,33.03385764050578,0,0,0,0,36,36,36,36,36,3.1622776601683795,6.324555320336759,8.366600265340756,10
9,5,0.4226510000298731,o,43.0,Unlimited Time,e,37.43600827587276,48.70007696018405,42.95366745236857,30.639258068746106,37.43600827587276,48.70007696018405,30.639258068746106,42.95366745236857,0,0,0,0,36,36,36,36,36,3.1622776601683795,6.324555320336759,8.366600265340756,10
9,6,0.29308339999988675,w,32.3,Unlimited Time,e,30.498768703934342,32.27046199229659,18.423234632672752,29.353663781759153,30.498768703934342,32.27046199229659,29.353663781759153,18.423234632672752,0,0,0,0,36,36,36,36,36,3.1622776601683795,6.324555320336759,8.366600265340756,10
9,7,0.13953089999267831,q,36.7,Unlimited Time,e,36.73713614990123,28.320087224655477,53.138413401150814,38.39722314691571,36.73713614990123,28.320087224655477,38.39722314691571,53.138413401150814,0,0,0,0,36,36,36,36,36,3.1622776601683795,6.324555320336759,8.366600265340756,10
9,8,0.310406900011003,p,34.6,Unlimited Time,e,37.60816217825251,35.1596476216741,35.56238832759304,34.63417789740692,37.60816217825251,35.1596476216741,34.63417789740692,35.56238832759304,0,0,0,0,36,36,36,36,36,3.1622776601683795,6.324555320336759,8.366600265340756,10
9,9,0.2150338999927044,w,34.4,Unlimited Time,e,38.32699178978345,34.44777587749188,33.33644347165692,42.091771618053215,38.32699178978345,34.44777587749188,42.091771618053215,33.33644347165692,0,0,0,0,36,36,36,36,36,3.1622776601683795,6.324555320336759,8.366600265340756,10
9,10,0.08064349996857345,q,36.7,Unlimited Time,e,36.74649567124777,26.72351227193623,43.78467106764646,43.53521293583873,36.74649567124777,26.72351227193623,43.53521293583873,43.78467106764646,0,0,0,0,36,36,36,36,36,3.1622776601683795,6.324555320336759,8.366600265340756,10
9,11,0.23093349998816848,o,29.1,Unlimited Time,e,32.90701101917796,45.06270425779595,29.09245506976922,48.689423656898924,32.90701101917796,45.06270425779595,48.689423656898924,29.09245506976922,0,0,0,0,36,36,36,36,36,3.1622776601683795,6.324555320336759,8.366600265340756,10
9,12,0.14355480001540855,p,25.2,Unlimited Time,e,33.20137584721424,32.922745931056724,47.51480802739546,25.16212345011722,33.20137584721424,32.922745931056724,25.16212345011722,47.51480802739546,0,0,0,0,36,36,36,36,36,3.1622776601683795,6.324555320336759,8.366600265340756,10
9,13,0.12691890000132844,p,42.7,Unlimited Time,e,33.25136930585273,31.41648913127478,47.4377422507583,42.6742077910847,33.25136930585273,31.41648913127478,42.6742077910847,47.4377422507583,0,0,0,0,36,36,36,36,36,3.1622776601683795,6.324555320336759,8.366600265340756,10
9,14,0.188839900016319,o,58.6,Unlimited Time,e,31.931144427916077,23.758435204796456,58.586257622162556,26.932000391317075,31.931144427916077,23.758435204796456,26.932000391317075,58.586257622162556,0,0,0,0,36,36,36,36,36,3.1622776601683795,6.324555320336759,8.366600265340756,10
9,15,0.2604344999999739,p,40.1,Unlimited Time,e,36.59912139916972,36.40366920900152,19.156361435827876,40.07522862753514,36.59912139916972,36.40366920900152,40.07522862753514,19.156361435827876,0,0,0,0,36,36,36,36,36,3.1622776601683795,6.324555320336759,8.366600265340756,10
9,16,0.16449329996248707,o,29.2,Unlimited Time,e,38.28181479703441,36.92690093558695,29.164342303047256,53.375593661162554,38.28181479703441,36.92690093558695,53.375593661162554,29.164342303047256,0,0,0,0,36,36,36,36,36,3.1622776601683795,6.324555320336759,8.366600265340756,10
9,17,0.19429429998854175,p,29.2,Unlimited Time,e,39.940219901739155,44.3659748908585,31.761054265215154,29.202862870759432,39.940219901739155,44.3659748908585,29.202862870759432,31.761054265215154,0,0,0,0,36,36,36,36,36,3.1622776601683795,6.324555320336759,8.366600265340756,10
9,18,0.027539000031538308,p,34.7,Unlimited Time,e,39.20997197598377,33.9419096032343,41.476960261452646,34.73247774655042,39.20997197598377,33.9419096032343,34.73247774655042,41.476960261452646,0,0,0,0,36,36,36,36,36,3.1622776601683795,6.324555320336759,8.366600265340756,10
9,19,0.11534499999834225,p,50.8,Unlimited Time,e,41.335807523413465,35.973419991400704,33.98211476178001,50.77517527730278,41.335807523413465,35.973419991400704,50.77517527730278,33.98211476178001,0,0,0,0,36,36,36,36,36,3.1622776601683795,6.324555320336759,8.366600265340756,10
9,20,0.0020555999944917858,p,43.0,Unlimited Time,e,39.71709938116248,31.48375818420372,30.00448174237487,42.99588763831312,39.71709938116248,31.48375818420372,42.99588763831312,30.00448174237487,0,0,0,0,36,36,36,36,36,3.1622776601683795,6.324555320336759,8.366600265340756,10
10,1,0.2949793000007048,o,24.1,Limited Time,l,38.70125983809585,44.30154739031589,24.116272085583656,50.51266916273217,24.116272085583656,38.70125983809585,44.30154739031589,50.51266916273217,-10,-0.33,0.33,10,36,26,35.67,36.33,46,3.1622776601683795,3.1622776601683795,3.1622776601683795,3.1622776601683795
10,2,0.03767989994958043,o,26.0,Limited Time,l,34.71783902654006,33.876407973741216,25.973430288732402,44.78034171426283,25.973430288732402,34.71783902654006,33.876407973741216,44.78034171426283,-10,-0.33,0.33,10,36,26,35.67,36.33,46,3.1622776601683795,3.1622776601683795,3.1622776601683795,3.1622776601683795
10,3,0.09083760000066832,p,48.1,Limited Time,l,36.08274297354163,36.33853194645686,29.243957911606262,48.11276370854284,29.243957911606262,36.08274297354163,36.33853194645686,48.11276370854284,-10,-0.33,0.33,10,36,26,35.67,36.33,46,3.1622776601683795,3.1622776601683795,3.1622776601683795,3.1622776601683795
10,4,0.0955301999929361,o,31.6,Limited Time,l,38.06161341782081,32.45438792038467,31.56772445533683,49.19532941377196,31.56772445533683,38.06161341782081,32.45438792038467,49.19532941377196,-10,-0.33,0.33,10,36,26,35.67,36.33,46,3.1622776601683795,3.1622776601683795,3.1622776601683795,3.1622776601683795
10,5,0.049036099982913584,p,50.3,Limited Time,l,34.67904743864076,35.185486045493334,27.609420888015016,50.25242114691856,27.609420888015016,34.67904743864076,35.185486045493334,50.25242114691856,-10,-0.33,0.33,10,36,26,35.67,36.33,46,3.1622776601683795,3.1622776601683795,3.1622776601683795,3.1622776601683795
10,6,0.15352330001769587,p,40.7,Limited Time,l,33.35475957057333,43.39519511301601,22.62431820308155,40.72076297117407,22.62431820308155,33.35475957057333,43.39519511301601,40.72076297117407,-10,-0.33,0.33,10,36,26,35.67,36.33,46,3.1622776601683795,3.1622776601683795,3.1622776601683795,3.1622776601683795
10,7,0.11641730001429096,p,47.7,Limited Time,l,35.62839652882822,34.1121875626109,26.04589602723998,47.70791280896845,26.04589602723998,35.62839652882822,34.1121875626109,47.70791280896845,-10,-0.33,0.33,10,36,26,35.67,36.33,46,3.1622776601683795,3.1622776601683795,3.1622776601683795,3.1622776601683795
10,8,0.004523499985225499,p,44.2,Limited Time,l,36.268448454776475,42.003758989972816,18.920865729199317,44.24353685504895,18.920865729199317,36.268448454776475,42.003758989972816,44.24353685504895,-10,-0.33,0.33,10,36,26,35.67,36.33,46,3.1622776601683795,3.1622776601683795,3.1622776601683795,3.1622776601683795
10,9,0.055197999987285584,o,26.8,Limited Time,l,35.82045566700242,29.497930899958526,26.76105104555033,49.022876165134626,26.76105104555033,35.82045566700242,29.497930899958526,49.022876165134626,-10,-0.33,0.33,10,36,26,35.67,36.33,46,3.1622776601683795,3.1622776601683795,3.1622776601683795,3.1622776601683795
10,10,0.016623199975583702,o,24.4,Limited Time,l,39.06926083114183,36.79723566330793,24.4148632495698,45.38516319028497,24.4148632495698,39.06926083114183,36.79723566330793,45.38516319028497,-10,-0.33,0.33,10,36,26,35.67,36.33,46,3.1622776601683795,3.1622776601683795,3.1622776601683795,3.1622776601683795
10,11,0.10443050001049414,p,48.6,Limited Time,l,39.21215687833133,32.66408081212232,28.684017523784977,48.62089735235196,28.684017523784977,39.21215687833133,32.66408081212232,48.62089735235196,-10,-0.33,0.33,10,36,26,35.67,36.33,46,3.1622776601683795,3.1622776601683795,3.1622776601683795,3.1622776601683795
10,12,0.09196500002872199,o,33.3,Limited Time,l,36.48907864760302,36.06241534575266,33.291499823308556,47.272124867950275,33.291499823308556,36.48907864760302,36.06241534575266,47.272124867950275,-10,-0.33,0.33,10,36,26,35.67,36.33,46,3.1622776601683795,3.1622776601683795,3.1622776601683795,3.1622776601683795
10,13,0.07215809996705502,o,28.4,Limited Time,l,33.85328543465029,38.400622798771124,28.397644419743845,42.29935487494576,28.397644419743845,33.85328543465029,38.400622798771124,42.29935487494576,-10,-0.33,0.33,10,36,26,35.67,36.33,46,3.1622776601683795,3.1622776601683795,3.1622776601683795,3.1622776601683795
10,14,0.14263840002240613,o,22.6,Limited Time,l,36.367710034183915,37.072232046447354,22.6091023904601,45.98916397523664,22.6091023904601,36.367710034183915,37.072232046447354,45.98916397523664,-10,-0.33,0.33,10,36,26,35.67,36.33,46,3.1622776601683795,3.1622776601683795,3.1622776601683795,3.1622776601683795
10,15,0.0473403999931179,o,29.6,Limited Time,l,38.032073685621064,37.629688543632085,29.57444325502298,49.37986434831612,29.57444325502298,38.032073685621064,37.629688543632085,49.37986434831612,-10,-0.33,0.33,10,36,26,35.67,36.33,46,3.1622776601683795,3.1622776601683795,3.1622776601683795,3.1622776601683795
10,16,0.07489510002778843,o,21.8,Limited Time,l,31.240143009120246,36.898320112730154,21.78299371075032,43.17499826306035,21.78299371075032,31.240143009120246,36.898320112730154,43.17499826306035,-10,-0.33,0.33,10,36,26,35.67,36.33,46,3.1622776601683795,3.1622776601683795,3.1622776601683795,3.1622776601683795
10,17,0.04672039998695254,p,46.9,Limited Time,l,31.8566281728037,35.97438029208848,27.195236121985534,46.937129059183285,27.195236121985534,31.8566281728037,35.97438029208848,46.937129059183285,-10,-0.33,0.33,10,36,26,35.67,36.33,46,3.1622776601683795,3.1622776601683795,3.1622776601683795,3.1622776601683795
10,18,0.03834210004424676,q,36.4,Limited Time,l,36.41500099461558,38.24871725594096,33.63869844091968,46.63755084040357,33.63869844091968,36.41500099461558,38.24871725594096,46.63755084040357,-10,-0.33,0.33,10,36,26,35.67,36.33,46,3.1622776601683795,3.1622776601683795,3.1622776601683795,3.1622776601683795
10,19,0.016495599993504584,q,38.6,Limited Time,l,38.60250797348597,35.50517454289951,27.224241046281293,48.72321220767362,27.224241046281293,38.60250797348597,35.50517454289951,48.72321220767362,-10,-0.33,0.33,10,36,26,35.67,36.33,46,3.1622776601683795,3.1622776601683795,3.1622776601683795,3.1622776601683795
10,20,0.004614899982698262,p,49.9,Limited Time,l,38.91692980593071,36.84548866385437,27.038150855972265,49.91904438603971,27.038150855972265,38.91692980593071,36.84548866385437,49.91904438603971,-10,-0.33,0.33,10,36,26,35.67,36.33,46,3.1622776601683795,3.1622776601683795,3.1622776601683795,3.1622776601683795
11,1,0.49691210000310093,w,29.9,Unlimited Time,h,23.47994694835007,29.90228110828675,41.751920709489966,28.66463179074012,28.66463179074012,29.90228110828675,23.47994694835007,41.751920709489966,-10,-0.33,0.33,10,36,26,35.67,36.33,46,10,10,10,10
11,2,0.05672639998374507,o,50.5,Unlimited Time,h,36.180835677018166,47.46998254128134,50.52973309367843,6.46814966007522,6.46814966007522,47.46998254128134,36.180835677018166,50.52973309367843,-10,-0.33,0.33,10,36,26,35.67,36.33,46,10,10,10,10
11,3,0.00988670001970604,w,21.0,Unlimited Time,h,34.14549233300198,20.994865000715542,54.852027519651344,26.339996143495345,26.339996143495345,20.994865000715542,34.14549233300198,54.852027519651344,-10,-0.33,0.33,10,36,26,35.67,36.33,46,10,10,10,10
11,4,0.026624099991749972,p,37.0,Unlimited Time,h,53.04234316767447,57.813022507239666,44.178910868330185,37.031079767820614,37.031079767820614,57.813022507239666,53.04234316767447,44.178910868330185,-10,-0.33,0.33,10,36,26,35.67,36.33,46,10,10,10,10
11,5,0.0011986999888904393,o,42.1,Unlimited Time,h,28.93121786251554,40.18026110991147,42.142228572364914,14.17300570301337,14.17300570301337,40.18026110991147,28.93121786251554,42.142228572364914,-10,-0.33,0.33,10,36,26,35.67,36.33,46,10,10,10,10
11,6,0.00553669995861128,o,45.1,Unlimited Time,h,46.537570736873434,33.51231956643908,45.058709622282365,42.426084215481694,42.426084215481694,33.51231956643908,46.537570736873434,45.058709622282365,-10,-0.33,0.33,10,36,26,35.67,36.33,46,10,10,10,10
11,7,0.059132899972610176,p,29.2,Unlimited Time,h,35.77550284889558,35.90322539309001,26.00683330020103,29.160605699775545,29.160605699775545,35.90322539309001,35.77550284889558,26.00683330020103,-10,-0.33,0.33,10,36,26,35.67,36.33,46,10,10,10,10
11,8,0.03907460003392771,o,48.1,Unlimited Time,h,31.98971111454116,41.71469546541466,48.06123279420667,30.243502045065604,30.243502045065604,41.71469546541466,31.98971111454116,48.06123279420667,-10,-0.33,0.33,10,36,26,35.67,36.33,46,10,10,10,10
11,9,0.047598800039850175,w,20.5,Unlimited Time,h,34.45566834957657,20.548147776316465,49.09753872503749,31.163568149829285,31.163568149829285,20.548147776316465,34.45566834957657,49.09753872503749,-10,-0.33,0.33,10,36,26,35.67,36.33,46,10,10,10,10
11,10,0.04306029999861494,p,28.0,Unlimited Time,h,37.648784670792466,47.095439975119405,41.45709010337461,28.01661879198376,28.01661879198376,47.095439975119405,37.648784670792466,41.45709010337461,-10,-0.33,0.33,10,36,26,35.67,36.33,46,10,10,10,10
11,11,0.026653299981262535,o,40.4,Unlimited Time,h,32.2367876598132,32.707181060623604,40.43507897066897,26.46871692593409,26.46871692593409,32.707181060623604,32.2367876598132,40.43507897066897,-10,-0.33,0.33,10,36,26,35.67,36.33,46,10,10,10,10
11,12,0.04043560003628954,p,22.9,Unlimited Time,h,20.993419842510512,31.055079454366833,36.677258469679714,22.90717246841605,22.90717246841605,31.055079454366833,20.993419842510512,36.677258469679714,-10,-0.33,0.33,10,36,26,35.67,36.33,46,10,10,10,10
11,13,0.03528129996266216,o,39.1,Unlimited Time,h,54.02641931305962,41.33905148264754,39.12974721216854,15.279610031372131,15.279610031372131,41.33905148264754,54.02641931305962,39.12974721216854,-10,-0.33,0.33,10,36,26,35.67,36.33,46,10,10,10,10
11,14,0.10620109998853877,w,23.6,Unlimited Time,h,44.154470453826455,23.567458679198296,53.79812646158281,32.56065143716482,32.56065143716482,23.567458679198296,44.154470453826455,53.79812646158281,-10,-0.33,0.33,10,36,26,35.67,36.33,46,10,10,10,10
11,15,0.04780850000679493,p,30.4,Unlimited Time,h,42.06495023902287,37.84260885388315,54.162301502652376,30.40862243490257,30.40862243490257,37.84260885388315,42.06495023902287,54.162301502652376,-10,-0.33,0.33,10,36,26,35.67,36.33,46,10,10,10,10
11,16,0.05693799996515736,o,33.1,Unlimited Time,h,28.690981349201415,30.462534855629183,33.14348442996712,42.61162300508313,42.61162300508313,30.462534855629183,28.690981349201415,33.14348442996712,-10,-0.33,0.33,10,36,26,35.67,36.33,46,10,10,10,10
11,17,0.09807559999171644,p,19.6,Unlimited Time,h,38.68809541024259,26.43000344953919,44.37783798499388,19.641138584048075,19.641138584048075,26.43000344953919,38.68809541024259,44.37783798499388,-10,-0.33,0.33,10,36,26,35.67,36.33,46,10,10,10,10
11,18,0.018625800032168627,p,27.5,Unlimited Time,h,37.83952057633549,8.74509754281813,46.73349074657708,27.541722725285414,27.541722725285414,8.74509754281813,37.83952057633549,46.73349074657708,-10,-0.33,0.33,10,36,26,35.67,36.33,46,10,10,10,10
11,19,0.13207190000684932,p,21.8,Unlimited Time,h,41.820131873961195,48.23374750409569,47.43878515621063,21.82452605607557,21.82452605607557,48.23374750409569,41.820131873961195,47.43878515621063,-10,-0.33,0.33,10,36,26,35.67,36.33,46,10,10,10,10
11,20,0.007067099970299751,o,37.6,Unlimited Time,h,56.97556031449737,16.841676755787574,37.5763800604596,55.228561350472766,55.228561350472766,16.841676755787574,56.97556031449737,37.5763800604596,-10,-0.33,0.33,10,36,26,35.67,36.33,46,10,10,10,10
12,1,,,0.0,Limited Time,h,29.90228110828675,23.47994694835007,28.66463179074012,41.751920709489966,28.66463179074012,29.90228110828675,23.47994694835007,41.751920709489966,-10,-0.33,0.33,10,36,26,35.67,36.33,46,10,10,10,10
12,2,0.07855710003059357,p,50.5,Limited Time,h,47.46998254128134,36.180835677018166,6.46814966007522,50.52973309367843,6.46814966007522,47.46998254128134,36.180835677018166,50.52973309367843,-10,-0.33,0.33,10,36,26,35.67,36.33,46,10,10,10,10
12,3,0.04906019999179989,p,54.9,Limited Time,h,20.994865000715542,34.14549233300198,26.339996143495345,54.852027519651344,26.339996143495345,20.994865000715542,34.14549233300198,54.852027519651344,-10,-0.33,0.33,10,36,26,35.67,36.33,46,10,10,10,10
12,4,0.016455100034363568,p,44.2,Limited Time,h,57.813022507239666,53.04234316767447,37.031079767820614,44.178910868330185,37.031079767820614,57.813022507239666,53.04234316767447,44.178910868330185,-10,-0.33,0.33,10,36,26,35.67,36.33,46,10,10,10,10
12,5,0.0031095000449568033,o,14.2,Limited Time,h,40.18026110991147,28.93121786251554,14.17300570301337,42.142228572364914,14.17300570301337,40.18026110991147,28.93121786251554,42.142228572364914,-10,-0.33,0.33,10,36,26,35.67,36.33,46,10,10,10,10
12,6,0.2828661000239663,w,46.5,Limited Time,h,33.51231956643908,46.537570736873434,42.426084215481694,45.058709622282365,42.426084215481694,33.51231956643908,46.537570736873434,45.058709622282365,-10,-0.33,0.33,10,36,26,35.67,36.33,46,10,10,10,10
12,7,0.11682090000249445,q,35.9,Limited Time,h,35.90322539309001,35.77550284889558,29.160605699775545,26.00683330020103,29.160605699775545,35.90322539309001,35.77550284889558,26.00683330020103,-10,-0.33,0.33,10,36,26,35.67,36.33,46,10,10,10,10
12,8,0.0036956999683752656,o,30.2,Limited Time,h,41.71469546541466,31.98971111454116,30.243502045065604,48.06123279420667,30.243502045065604,41.71469546541466,31.98971111454116,48.06123279420667,-10,-0.33,0.33,10,36,26,35.67,36.33,46,10,10,10,10
12,9,0.028462200018111616,p,49.1,Limited Time,h,20.548147776316465,34.45566834957657,31.163568149829285,49.09753872503749,31.163568149829285,20.548147776316465,34.45566834957657,49.09753872503749,-10,-0.33,0.33,10,36,26,35.67,36.33,46,10,10,10,10
12,10,0.02339469996513799,o,28.0,Limited Time,h,47.095439975119405,37.648784670792466,28.01661879198376,41.45709010337461,28.01661879198376,47.095439975119405,37.648784670792466,41.45709010337461,-10,-0.33,0.33,10,36,26,35.67,36.33,46,10,10,10,10
12,11,0.1457458999939263,o,26.5,Limited Time,h,32.707181060623604,32.2367876598132,26.46871692593409,40.43507897066897,26.46871692593409,32.707181060623604,32.2367876598132,40.43507897066897,-10,-0.33,0.33,10,36,26,35.67,36.33,46,10,10,10,10
12,12,0.1140222999965772,o,22.9,Limited Time,h,31.055079454366833,20.993419842510512,22.90717246841605,36.677258469679714,22.90717246841605,31.055079454366833,20.993419842510512,36.677258469679714,-10,-0.33,0.33,10,36,26,35.67,36.33,46,10,10,10,10
12,13,0.037864499958232045,p,39.1,Limited Time,h,41.33905148264754,54.02641931305962,15.279610031372131,39.12974721216854,15.279610031372131,41.33905148264754,54.02641931305962,39.12974721216854,-10,-0.33,0.33,10,36,26,35.67,36.33,46,10,10,10,10
12,14,0.14131549996091053,p,53.8,Limited Time,h,23.567458679198296,44.154470453826455,32.56065143716482,53.79812646158281,32.56065143716482,23.567458679198296,44.154470453826455,53.79812646158281,-10,-0.33,0.33,10,36,26,35.67,36.33,46,10,10,10,10
12,15,0.02162710000993684,o,30.4,Limited Time,h,37.84260885388315,42.06495023902287,30.40862243490257,54.162301502652376,30.40862243490257,37.84260885388315,42.06495023902287,54.162301502652376,-10,-0.33,0.33,10,36,26,35.67,36.33,46,10,10,10,10
12,16,0.3074110999586992,o,42.6,Limited Time,h,30.462534855629183,28.690981349201415,42.61162300508313,33.14348442996712,42.61162300508313,30.462534855629183,28.690981349201415,33.14348442996712,-10,-0.33,0.33,10,36,26,35.67,36.33,46,10,10,10,10
12,17,0.008512400032486767,w,38.7,Limited Time,h,26.43000344953919,38.68809541024259,19.641138584048075,44.37783798499388,19.641138584048075,26.43000344953919,38.68809541024259,44.37783798499388,-10,-0.33,0.33,10,36,26,35.67,36.33,46,10,10,10,10
12,18,0.04658900003414601,w,37.8,Limited Time,h,8.74509754281813,37.83952057633549,27.541722725285414,46.73349074657708,27.541722725285414,8.74509754281813,37.83952057633549,46.73349074657708,-10,-0.33,0.33,10,36,26,35.67,36.33,46,10,10,10,10
12,19,0.013943800004199147,o,21.8,Limited Time,h,48.23374750409569,41.820131873961195,21.82452605607557,47.43878515621063,21.82452605607557,48.23374750409569,41.820131873961195,47.43878515621063,-10,-0.33,0.33,10,36,26,35.67,36.33,46,10,10,10,10
12,20,0.03927870001643896,o,55.2,Limited Time,h,16.841676755787574,56.97556031449737,55.228561350472766,37.5763800604596,55.228561350472766,16.841676755787574,56.97556031449737,37.5763800604596,-10,-0.33,0.33,10,36,26,35.67,36.33,46,10,10,10,10
13,1,0.2998638999997638,o,41.8,Unlimited Time,h,28.66463179074012,29.90228110828675,41.751920709489966,23.47994694835007,28.66463179074012,29.90228110828675,23.47994694835007,41.751920709489966,-10,-0.33,0.33,10,36,26,35.67,36.33,46,10,10,10,10
13,2,0.007989899953827262,o,50.5,Unlimited Time,h,6.46814966007522,47.46998254128134,50.52973309367843,36.180835677018166,6.46814966007522,47.46998254128134,36.180835677018166,50.52973309367843,-10,-0.33,0.33,10,36,26,35.67,36.33,46,10,10,10,10
13,3,0.11289869999745861,p,34.1,Unlimited Time,h,26.339996143495345,20.994865000715542,54.852027519651344,34.14549233300198,26.339996143495345,20.994865000715542,34.14549233300198,54.852027519651344,-10,-0.33,0.33,10,36,26,35.67,36.33,46,10,10,10,10
13,4,0.05665210000006482,o,44.2,Unlimited Time,h,37.031079767820614,57.813022507239666,44.178910868330185,53.04234316767447,37.031079767820614,57.813022507239666,53.04234316767447,44.178910868330185,-10,-0.33,0.33,10,36,26,35.67,36.33,46,10,10,10,10
13,5,0.009068000013940036,o,42.1,Unlimited Time,h,14.17300570301337,40.18026110991147,42.142228572364914,28.93121786251554,14.17300570301337,40.18026110991147,28.93121786251554,42.142228572364914,-10,-0.33,0.33,10,36,26,35.67,36.33,46,10,10,10,10
13,6,0.04817429999820888,p,46.5,Unlimited Time,h,42.426084215481694,33.51231956643908,45.058709622282365,46.537570736873434,42.426084215481694,33.51231956643908,46.537570736873434,45.058709622282365,-10,-0.33,0.33,10,36,26,35.67,36.33,46,10,10,10,10
13,7,0.08893139997962862,o,26.0,Unlimited Time,h,29.160605699775545,35.90322539309001,26.00683330020103,35.77550284889558,29.160605699775545,35.90322539309001,35.77550284889558,26.00683330020103,-10,-0.33,0.33,10,36,26,35.67,36.33,46,10,10,10,10
13,8,0.0716839000233449,p,32.0,Unlimited Time,h,30.243502045065604,41.71469546541466,48.06123279420667,31.98971111454116,30.243502045065604,41.71469546541466,31.98971111454116,48.06123279420667,-10,-0.33,0.33,10,36,26,35.67,36.33,46,10,10,10,10
13,9,0.059503399999812245,w,20.5,Unlimited Time,h,31.163568149829285,20.548147776316465,49.09753872503749,34.45566834957657,31.163568149829285,20.548147776316465,34.45566834957657,49.09753872503749,-10,-0.33,0.33,10,36,26,35.67,36.33,46,10,10,10,10
13,10,0.46458430000348017,w,47.1,Unlimited Time,h,28.01661879198376,47.095439975119405,41.45709010337461,37.648784670792466,28.01661879198376,47.095439975119405,37.648784670792466,41.45709010337461,-10,-0.33,0.33,10,36,26,35.67,36.33,46,10,10,10,10
13,11,0.042802899959497154,o,40.4,Unlimited Time,h,26.46871692593409,32.707181060623604,40.43507897066897,32.2367876598132,26.46871692593409,32.707181060623604,32.2367876598132,40.43507897066897,-10,-0.33,0.33,10,36,26,35.67,36.33,46,10,10,10,10
13,12,0.0758365000365302,p,21.0,Unlimited Time,h,22.90717246841605,31.055079454366833,36.677258469679714,20.993419842510512,22.90717246841605,31.055079454366833,20.993419842510512,36.677258469679714,-10,-0.33,0.33,10,36,26,35.67,36.33,46,10,10,10,10
13,13,0.07702909997897223,o,39.1,Unlimited Time,h,15.279610031372131,41.33905148264754,39.12974721216854,54.02641931305962,15.279610031372131,41.33905148264754,54.02641931305962,39.12974721216854,-10,-0.33,0.33,10,36,26,35.67,36.33,46,10,10,10,10
13,14,0.08822239999426529,p,44.2,Unlimited Time,h,32.56065143716482,23.567458679198296,53.79812646158281,44.154470453826455,32.56065143716482,23.567458679198296,44.154470453826455,53.79812646158281,-10,-0.33,0.33,10,36,26,35.67,36.33,46,10,10,10,10
13,15,0.04691170004662126,o,54.2,Unlimited Time,h,30.40862243490257,37.84260885388315,54.162301502652376,42.06495023902287,30.40862243490257,37.84260885388315,42.06495023902287,54.162301502652376,-10,-0.33,0.33,10,36,26,35.67,36.33,46,10,10,10,10
13,16,0.07992190000368282,w,30.5,Unlimited Time,h,42.61162300508313,30.462534855629183,33.14348442996712,28.690981349201415,42.61162300508313,30.462534855629183,28.690981349201415,33.14348442996712,-10,-0.33,0.33,10,36,26,35.67,36.33,46,10,10,10,10
13,17,0.029718400037381798,w,26.4,Unlimited Time,h,19.641138584048075,26.43000344953919,44.37783798499388,38.68809541024259,19.641138584048075,26.43000344953919,38.68809541024259,44.37783798499388,-10,-0.33,0.33,10,36,26,35.67,36.33,46,10,10,10,10
13,18,0.055614299955777824,p,37.8,Unlimited Time,h,27.541722725285414,8.74509754281813,46.73349074657708,37.83952057633549,27.541722725285414,8.74509754281813,37.83952057633549,46.73349074657708,-10,-0.33,0.33,10,36,26,35.67,36.33,46,10,10,10,10
13,19,0.010558100009802729,p,41.8,Unlimited Time,h,21.82452605607557,48.23374750409569,47.43878515621063,41.820131873961195,21.82452605607557,48.23374750409569,41.820131873961195,47.43878515621063,-10,-0.33,0.33,10,36,26,35.67,36.33,46,10,10,10,10
13,20,0.03892080002697185,p,57.0,Unlimited Time,h,55.228561350472766,16.841676755787574,37.5763800604596,56.97556031449737,55.228561350472766,16.841676755787574,56.97556031449737,37.5763800604596,-10,-0.33,0.33,10,36,26,35.67,36.33,46,10,10,10,10
14,1,0.1934958000201732,q,44.3,Limited Time,i,44.25600177901804,24.373877299325013,19.970727010849558,45.16964903992991,24.373877299325013,19.970727010849558,44.25600177901804,45.16964903992991,-10,-10,10,10,36,26,26,46,46,3.1622776601683795,10,3.1622776601683795,10
14,2,0.010427900007925928,o,13.1,Limited Time,i,43.84051856682279,24.88658346825616,13.07846616471425,43.7530706810368,24.88658346825616,13.07846616471425,43.84051856682279,43.7530706810368,-10,-10,10,10,36,26,26,46,46,3.1622776601683795,10,3.1622776601683795,10
14,3,0.0594205999514088,p,42.9,Limited Time,i,44.44157145635571,28.689860007196664,38.82935014708349,42.94991862453383,28.689860007196664,38.82935014708349,44.44157145635571,42.94991862453383,-10,-10,10,10,36,26,26,46,46,3.1622776601683795,10,3.1622776601683795,10
14,4,0.06034419999923557,o,24.5,Limited Time,i,47.53238452577068,22.286181505471014,24.528263820767883,46.27699961921901,22.286181505471014,24.528263820767883,47.53238452577068,46.27699961921901,-10,-10,10,10,36,26,26,46,46,3.1622776601683795,10,3.1622776601683795,10
14,5,0.05964200000744313,w,22.5,Limited Time,i,51.357028065215395,22.538614919553495,21.519644867669356,48.61489664860317,22.538614919553495,21.519644867669356,51.357028065215395,48.61489664860317,-10,-10,10,10,36,26,26,46,46,3.1622776601683795,10,3.1622776601683795,10
14,6,0.04908739996608347,q,47.9,Limited Time,i,47.94520334263372,31.317191487458025,19.05827442130683,38.90192597453506,31.317191487458025,19.05827442130683,47.94520334263372,38.90192597453506,-10,-10,10,10,36,26,26,46,46,3.1622776601683795,10,3.1622776601683795,10
14,7,0.0012286999844945967,o,30.3,Limited Time,i,50.40111285323183,23.089065553889853,30.29518800501472,42.04096473636896,23.089065553889853,30.29518800501472,50.40111285323183,42.04096473636896,-10,-10,10,10,36,26,26,46,46,3.1622776601683795,10,3.1622776601683795,10
14,8,0.044331800017971545,q,46.3,Limited Time,i,46.254546109278444,19.371132614656396,27.307572526988352,38.15516665582948,19.371132614656396,27.307572526988352,46.254546109278444,38.15516665582948,-10,-10,10,10,36,26,26,46,46,3.1622776601683795,10,3.1622776601683795,10
14,9,0.05603190005058423,w,22.5,Limited Time,i,45.58176047793089,22.509328899713015,33.49024346771249,58.471599339251355,22.509328899713015,33.49024346771249,45.58176047793089,58.471599339251355,-10,-10,10,10,36,26,26,46,46,3.1622776601683795,10,3.1622776601683795,10
14,10,0.005543799954466522,p,48.8,Limited Time,i,42.586991526729626,23.78132949997504,25.4315471424014,48.837954542232325,23.78132949997504,25.4315471424014,42.586991526729626,48.837954542232325,-10,-10,10,10,36,26,26,46,46,3.1622776601683795,10,3.1622776601683795,10
14,11,0.03110329998889938,w,26.8,Limited Time,i,49.944226666561136,26.81872116770965,10.210939662383968,31.435857765367246,26.81872116770965,10.210939662383968,49.944226666561136,31.435857765367246,-10,-10,10,10,36,26,26,46,46,3.1622776601683795,10,3.1622776601683795,10
14,12,0.07783790002577007,o,44.2,Limited Time,i,48.47953882968162,27.92710800873302,44.21676700301981,37.921908056990155,27.92710800873302,44.21676700301981,48.47953882968162,37.921908056990155,-10,-10,10,10,36,26,26,46,46,3.1622776601683795,10,3.1622776601683795,10
14,13,0.06082730001071468,p,45.0,Limited Time,i,42.54253333664689,21.73270886548063,8.763241513303473,45.00246101071634,21.73270886548063,8.763241513303473,42.54253333664689,45.00246101071634,-10,-10,10,10,36,26,26,46,46,3.1622776601683795,10,3.1622776601683795,10
14,14,0.022559200006071478,q,49.1,Limited Time,i,49.09614254576082,24.65056560166683,36.07269334728174,41.85772709436368,24.65056560166683,36.07269334728174,49.09614254576082,41.85772709436368,-10,-10,10,10,36,26,26,46,46,3.1622776601683795,10,3.1622776601683795,10
14,15,0.056827899999916553,o,30.4,Limited Time,i,46.232991174891694,20.663504391611035,30.40229125317784,63.611163597895086,20.663504391611035,30.40229125317784,46.232991174891694,63.611163597895086,-10,-10,10,10,36,26,26,46,46,3.1622776601683795,10,3.1622776601683795,10
14,16,0.14407310000387952,p,38.6,Limited Time,i,46.51301720736784,23.683767618521987,13.914142203067623,38.57336978996555,23.683767618521987,13.914142203067623,46.51301720736784,38.57336978996555,-10,-10,10,10,36,26,26,46,46,3.1622776601683795,10,3.1622776601683795,10
14,17,0.035467299981974065,q,47.3,Limited Time,i,47.29578585863492,25.715090408404876,25.827518183239313,44.28721683310637,25.715090408404876,25.827518183239313,47.29578585863492,44.28721683310637,-10,-10,10,10,36,26,26,46,46,3.1622776601683795,10,3.1622776601683795,10
14,18,0.015242900000885129,q,53.1,Limited Time,i,53.05679885785946,22.87379650814092,27.28252949374726,41.295224355011555,22.87379650814092,27.28252949374726,53.05679885785946,41.295224355011555,-10,-10,10,10,36,26,26,46,46,3.1622776601683795,10,3.1622776601683795,10
14,19,0.0027144000050611794,p,56.1,Limited Time,i,47.212837515870035,22.077984469016556,29.736112372803984,56.147955825530815,22.077984469016556,29.736112372803984,47.212837515870035,56.147955825530815,-10,-10,10,10,36,26,26,46,46,3.1622776601683795,10,3.1622776601683795,10
14,20,0.08007379999617115,o,52.9,Limited Time,i,43.80186581917854,26.799778764952837,52.86647091886823,53.21294939716033,26.799778764952837,52.86647091886823,43.80186581917854,53.21294939716033,-10,-10,10,10,36,26,26,46,46,3.1622776601683795,10,3.1622776601683795,10
15,1,0.2111867999774404,o,45.2,Unlimited Time,i,44.25600177901804,19.970727010849558,45.16964903992991,24.373877299325013,24.373877299325013,19.970727010849558,44.25600177901804,45.16964903992991,-10,-10,10,10,36,26,26,46,46,3.1622776601683795,10,3.1622776601683795,10
15,2,0.09036380000179633,p,24.9,Unlimited Time,i,43.84051856682279,13.07846616471425,43.7530706810368,24.88658346825616,24.88658346825616,13.07846616471425,43.84051856682279,43.7530706810368,-10,-10,10,10,36,26,26,46,46,3.1622776601683795,10,3.1622776601683795,10
15,3,0.09942959999898449,w,38.8,Unlimited Time,i,44.44157145635571,38.82935014708349,42.94991862453383,28.689860007196664,28.689860007196664,38.82935014708349,44.44157145635571,42.94991862453383,-10,-10,10,10,36,26,26,46,46,3.1622776601683795,10,3.1622776601683795,10
15,4,0.08199809998041019,w,24.5,Unlimited Time,i,47.53238452577068,24.528263820767883,46.27699961921901,22.286181505471014,22.286181505471014,24.528263820767883,47.53238452577068,46.27699961921901,-10,-10,10,10,36,26,26,46,46,3.1622776601683795,10,3.1622776601683795,10
15,5,0.058143300004303455,w,21.5,Unlimited Time,i,51.357028065215395,21.519644867669356,48.61489664860317,22.538614919553495,22.538614919553495,21.519644867669356,51.357028065215395,48.61489664860317,-10,-10,10,10,36,26,26,46,46,3.1622776601683795,10,3.1622776601683795,10
15,6,0.025438799988478422,w,19.1,Unlimited Time,i,47.94520334263372,19.05827442130683,38.90192597453506,31.317191487458025,31.317191487458025,19.05827442130683,47.94520334263372,38.90192597453506,-10,-10,10,10,36,26,26,46,46,3.1622776601683795,10,3.1622776601683795,10
15,7,0.025858799985144287,q,50.4,Unlimited Time,i,50.40111285323183,30.29518800501472,42.04096473636896,23.089065553889853,23.089065553889853,30.29518800501472,50.40111285323183,42.04096473636896,-10,-10,10,10,36,26,26,46,46,3.1622776601683795,10,3.1622776601683795,10
15,8,0.050281900039408356,w,27.3,Unlimited Time,i,46.254546109278444,27.307572526988352,38.15516665582948,19.371132614656396,19.371132614656396,27.307572526988352,46.254546109278444,38.15516665582948,-10,-10,10,10,36,26,26,46,46,3.1622776601683795,10,3.1622776601683795,10
15,9,0.08197070000460371,q,45.6,Unlimited Time,i,45.58176047793089,33.49024346771249,58.471599339251355,22.509328899713015,22.509328899713015,33.49024346771249,45.58176047793089,58.471599339251355,-10,-10,10,10,36,26,26,46,46,3.1622776601683795,10,3.1622776601683795,10
15,10,0.032884999993257225,p,23.8,Unlimited Time,i,42.586991526729626,25.4315471424014,48.837954542232325,23.78132949997504,23.78132949997504,25.4315471424014,42.586991526729626,48.837954542232325,-10,-10,10,10,36,26,26,46,46,3.1622776601683795,10,3.1622776601683795,10
15,11,0.0449388999841176,p,26.8,Unlimited Time,i,49.944226666561136,10.210939662383968,31.435857765367246,26.81872116770965,26.81872116770965,10.210939662383968,49.944226666561136,31.435857765367246,-10,-10,10,10,36,26,26,46,46,3.1622776601683795,10,3.1622776601683795,10
15,12,0.028389899991452694,w,44.2,Unlimited Time,i,48.47953882968162,44.21676700301981,37.921908056990155,27.92710800873302,27.92710800873302,44.21676700301981,48.47953882968162,37.921908056990155,-10,-10,10,10,36,26,26,46,46,3.1622776601683795,10,3.1622776601683795,10
15,13,0.00731899996753782,w,8.8,Unlimited Time,i,42.54253333664689,8.763241513303473,45.00246101071634,21.73270886548063,21.73270886548063,8.763241513303473,42.54253333664689,45.00246101071634,-10,-10,10,10,36,26,26,46,46,3.1622776601683795,10,3.1622776601683795,10
15,14,0.075358200003393,o,41.9,Unlimited Time,i,49.09614254576082,36.07269334728174,41.85772709436368,24.65056560166683,24.65056560166683,36.07269334728174,49.09614254576082,41.85772709436368,-10,-10,10,10,36,26,26,46,46,3.1622776601683795,10,3.1622776601683795,10
15,15,0.03701069997623563,w,30.4,Unlimited Time,i,46.232991174891694,30.40229125317784,63.611163597895086,20.663504391611035,20.663504391611035,30.40229125317784,46.232991174891694,63.611163597895086,-10,-10,10,10,36,26,26,46,46,3.1622776601683795,10,3.1622776601683795,10
15,16,0.03315219999058172,w,13.9,Unlimited Time,i,46.51301720736784,13.914142203067623,38.57336978996555,23.683767618521987,23.683767618521987,13.914142203067623,46.51301720736784,38.57336978996555,-10,-10,10,10,36,26,26,46,46,3.1622776601683795,10,3.1622776601683795,10
15,17,0.02045339997857809,o,44.3,Unlimited Time,i,47.29578585863492,25.827518183239313,44.28721683310637,25.715090408404876,25.715090408404876,25.827518183239313,47.29578585863492,44.28721683310637,-10,-10,10,10,36,26,26,46,46,3.1622776601683795,10,3.1622776601683795,10
15,18,0.07242119999136776,w,27.3,Unlimited Time,i,53.05679885785946,27.28252949374726,41.295224355011555,22.87379650814092,22.87379650814092,27.28252949374726,53.05679885785946,41.295224355011555,-10,-10,10,10,36,26,26,46,46,3.1622776601683795,10,3.1622776601683795,10
15,19,0.04656500002602115,q,47.2,Unlimited Time,i,47.212837515870035,29.736112372803984,56.147955825530815,22.077984469016556,22.077984469016556,29.736112372803984,47.212837515870035,56.147955825530815,-10,-10,10,10,36,26,26,46,46,3.1622776601683795,10,3.1622776601683795,10
15,20,0.04101560002891347,w,52.9,Unlimited Time,i,43.80186581917854,52.86647091886823,53.21294939716033,26.799778764952837,26.799778764952837,52.86647091886823,43.80186581917854,53.21294939716033,-10,-10,10,10,36,26,26,46,46,3.1622776601683795,10,3.1622776601683795,10
16,1,0.04324239998823032,w,24.4,Limited Time,i,44.25600177901804,24.373877299325013,45.16964903992991,19.970727010849558,24.373877299325013,19.970727010849558,44.25600177901804,45.16964903992991,-10,-10,10,10,36,26,26,46,46,3.1622776601683795,10,3.1622776601683795,10
16,2,0.1465213000192307,p,13.1,Limited Time,i,43.84051856682279,24.88658346825616,43.7530706810368,13.07846616471425,24.88658346825616,13.07846616471425,43.84051856682279,43.7530706810368,-10,-10,10,10,36,26,26,46,46,3.1622776601683795,10,3.1622776601683795,10
16,3,0.0007168999873101711,o,42.9,Limited Time,i,44.44157145635571,28.689860007196664,42.94991862453383,38.82935014708349,28.689860007196664,38.82935014708349,44.44157145635571,42.94991862453383,-10,-10,10,10,36,26,26,46,46,3.1622776601683795,10,3.1622776601683795,10
16,4,0.14291970001067966,w,22.3,Limited Time,i,47.53238452577068,22.286181505471014,46.27699961921901,24.528263820767883,22.286181505471014,24.528263820767883,47.53238452577068,46.27699961921901,-10,-10,10,10,36,26,26,46,46,3.1622776601683795,10,3.1622776601683795,10
16,5,0.14659000001847744,w,22.5,Limited Time,i,51.357028065215395,22.538614919553495,48.61489664860317,21.519644867669356,22.538614919553495,21.519644867669356,51.357028065215395,48.61489664860317,-10,-10,10,10,36,26,26,46,46,3.1622776601683795,10,3.1622776601683795,10
16,6,0.13926999998511747,w,31.3,Limited Time,i,47.94520334263372,31.317191487458025,38.90192597453506,19.05827442130683,31.317191487458025,19.05827442130683,47.94520334263372,38.90192597453506,-10,-10,10,10,36,26,26,46,46,3.1622776601683795,10,3.1622776601683795,10
16,7,0.005045099998824298,q,50.4,Limited Time,i,50.40111285323183,23.089065553889853,42.04096473636896,30.29518800501472,23.089065553889853,30.29518800501472,50.40111285323183,42.04096473636896,-10,-10,10,10,36,26,26,46,46,3.1622776601683795,10,3.1622776601683795,10
16,8,0.14309710002271459,q,46.3,Limited Time,i,46.254546109278444,19.371132614656396,38.15516665582948,27.307572526988352,19.371132614656396,27.307572526988352,46.254546109278444,38.15516665582948,-10,-10,10,10,36,26,26,46,46,3.1622776601683795,10,3.1622776601683795,10
16,9,0.17286089999834076,q,45.6,Limited Time,i,45.58176047793089,22.509328899713015,58.471599339251355,33.49024346771249,22.509328899713015,33.49024346771249,45.58176047793089,58.471599339251355,-10,-10,10,10,36,26,26,46,46,3.1622776601683795,10,3.1622776601683795,10
16,10,0.03060559998266399,q,42.6,Limited Time,i,42.586991526729626,23.78132949997504,48.837954542232325,25.4315471424014,23.78132949997504,25.4315471424014,42.586991526729626,48.837954542232325,-10,-10,10,10,36,26,26,46,46,3.1622776601683795,10,3.1622776601683795,10
16,11,0.0635033999569714,o,31.4,Limited Time,i,49.944226666561136,26.81872116770965,31.435857765367246,10.210939662383968,26.81872116770965,10.210939662383968,49.944226666561136,31.435857765367246,-10,-10,10,10,36,26,26,46,46,3.1622776601683795,10,3.1622776601683795,10
16,12,0.03881620004540309,o,37.9,Limited Time,i,48.47953882968162,27.92710800873302,37.921908056990155,44.21676700301981,27.92710800873302,44.21676700301981,48.47953882968162,37.921908056990155,-10,-10,10,10,36,26,26,46,46,3.1622776601683795,10,3.1622776601683795,10
16,13,0.0432374999509193,p,8.8,Limited Time,i,42.54253333664689,21.73270886548063,45.00246101071634,8.763241513303473,21.73270886548063,8.763241513303473,42.54253333664689,45.00246101071634,-10,-10,10,10,36,26,26,46,46,3.1622776601683795,10,3.1622776601683795,10
16,14,0.09736179996980354,p,36.1,Limited Time,i,49.09614254576082,24.65056560166683,41.85772709436368,36.07269334728174,24.65056560166683,36.07269334728174,49.09614254576082,41.85772709436368,-10,-10,10,10,36,26,26,46,46,3.1622776601683795,10,3.1622776601683795,10
16,15,0.07739099999889731,p,30.4,Limited Time,i,46.232991174891694,20.663504391611035,63.611163597895086,30.40229125317784,20.663504391611035,30.40229125317784,46.232991174891694,63.611163597895086,-10,-10,10,10,36,26,26,46,46,3.1622776601683795,10,3.1622776601683795,10
16,16,0.0974477999843657,p,13.9,Limited Time,i,46.51301720736784,23.683767618521987,38.57336978996555,13.914142203067623,23.683767618521987,13.914142203067623,46.51301720736784,38.57336978996555,-10,-10,10,10,36,26,26,46,46,3.1622776601683795,10,3.1622776601683795,10
16,17,0.08978530002059415,p,25.8,Limited Time,i,47.29578585863492,25.715090408404876,44.28721683310637,25.827518183239313,25.715090408404876,25.827518183239313,47.29578585863492,44.28721683310637,-10,-10,10,10,36,26,26,46,46,3.1622776601683795,10,3.1622776601683795,10
16,18,0.06832860002759844,p,27.3,Limited Time,i,53.05679885785946,22.87379650814092,41.295224355011555,27.28252949374726,22.87379650814092,27.28252949374726,53.05679885785946,41.295224355011555,-10,-10,10,10,36,26,26,46,46,3.1622776601683795,10,3.1622776601683795,10
16,19,0.06414149998454377,p,29.7,Limited Time,i,47.212837515870035,22.077984469016556,56.147955825530815,29.736112372803984,22.077984469016556,29.736112372803984,47.212837515870035,56.147955825530815,-10,-10,10,10,36,26,26,46,46,3.1622776601683795,10,3.1622776601683795,10
16,20,0.07748609996633604,p,52.9,Limited Time,i,43.80186581917854,26.799778764952837,53.21294939716033,52.86647091886823,26.799778764952837,52.86647091886823,43.80186581917854,53.21294939716033,-10,-10,10,10,36,26,26,46,46,3.1622776601683795,10,3.1622776601683795,10
