Round Number,Trial Number,Reaction Time,Choice,Reward,Time Condition,Payoff Condition,Q mapped,W mapped,O mapped,P mapped,One value,Two value,Three value,Four value,One mean,Two mean,Three mean,Four mean,Mean Shift,One shifted mean,Two shifted mean,Three shifted mean,Four shifted mean,One SD,Two SD,Three SD,Four SD
1,1,0.24096889997599646,q,45.5,Unlimited Time,l,45.54767098911296,59.76830319614118,48.05768974423755,42.844849024493385,42.844849024493385,45.54767098911296,48.05768974423755,59.76830319614118,-10,-0.33,0.33,10,47,37,46.67,47.33,57,3.1622776601683795,3.1622776601683795,3.1622776601683795,3.1622776601683795
1,2,0.11082419997546822,w,57.2,Unlimited Time,l,50.6870168876267,57.185887463914426,46.949177331910604,41.73506140808449,41.73506140808449,50.6870168876267,46.949177331910604,57.185887463914426,-10,-0.33,0.33,10,47,37,46.67,47.33,57,3.1622776601683795,3.1622776601683795,3.1622776601683795,3.1622776601683795
1,3,0.47829419997287914,o,45.1,Unlimited Time,l,49.020969690345275,58.366113918846835,45.14082976538261,42.228760039182006,42.228760039182006,49.020969690345275,45.14082976538261,58.366113918846835,-10,-0.33,0.33,10,47,37,46.67,47.33,57,3.1622776601683795,3.1622776601683795,3.1622776601683795,3.1622776601683795
1,4,0.0902193000074476,p,32.7,Unlimited Time,l,48.051638687342155,55.99002155381986,50.86023400807074,32.67436148837008,32.67436148837008,48.051638687342155,50.86023400807074,55.99002155381986,-10,-0.33,0.33,10,47,37,46.67,47.33,57,3.1622776601683795,3.1622776601683795,3.1622776601683795,3.1622776601683795
1,5,0.16187860001809895,p,35.2,Unlimited Time,l,45.712724403545856,57.000673295080574,47.1861264149633,35.161325641870235,35.161325641870235,45.712724403545856,47.1861264149633,57.000673295080574,-10,-0.33,0.33,10,47,37,46.67,47.33,57,3.1622776601683795,3.1622776601683795,3.1622776601683795,3.1622776601683795
1,6,0.21156800002790987,q,46.7,Unlimited Time,l,46.73656207464982,56.77627823033584,40.70857723389399,32.92406990117092,32.92406990117092,46.73656207464982,40.70857723389399,56.77627823033584,-10,-0.33,0.33,10,47,37,46.67,47.33,57,3.1622776601683795,3.1622776601683795,3.1622776601683795,3.1622776601683795
1,7,0.016174399992451072,w,50.2,Unlimited Time,l,47.861646964931666,50.21955282732122,46.3322167919596,39.65596069228529,39.65596069228529,47.861646964931666,46.3322167919596,50.21955282732122,-10,-0.33,0.33,10,47,37,46.67,47.33,57,3.1622776601683795,3.1622776601683795,3.1622776601683795,3.1622776601683795
1,8,0.2196927000186406,w,58.1,Unlimited Time,l,47.4487913888833,58.09150162462813,47.02590166156339,43.00294267095653,43.00294267095653,47.4487913888833,47.02590166156339,58.09150162462813,-10,-0.33,0.33,10,47,37,46.67,47.33,57,3.1622776601683795,3.1622776601683795,3.1622776601683795,3.1622776601683795
1,9,0.28282469999976456,q,45.5,Unlimited Time,l,45.49301284813557,55.6792352783552,44.839573788717686,34.05938367812364,34.05938367812364,45.49301284813557,44.839573788717686,55.6792352783552,-10,-0.33,0.33,10,47,37,46.67,47.33,57,3.1622776601683795,3.1622776601683795,3.1622776601683795,3.1622776601683795
1,10,0.021586699993349612,w,52.6,Unlimited Time,l,43.31000793240688,52.607045411779026,46.61555544181669,28.13653986151108,28.13653986151108,43.31000793240688,46.61555544181669,52.607045411779026,-10,-0.33,0.33,10,47,37,46.67,47.33,57,3.1622776601683795,3.1622776601683795,3.1622776601683795,3.1622776601683795
1,11,0.20823859999654815,w,57.5,Unlimited Time,l,43.18846206676086,57.532142520845504,48.25173199769272,37.985934728774296,37.985934728774296,43.18846206676086,48.25173199769272,57.532142520845504,-10,-0.33,0.33,10,47,37,46.67,47.33,57,3.1622776601683795,3.1622776601683795,3.1622776601683795,3.1622776601683795
1,12,0.1493876000167802,p,35.4,Unlimited Time,l,41.974718776490256,56.22379752497988,51.136535396805485,35.37715370020915,35.37715370020915,41.974718776490256,51.136535396805485,56.22379752497988,-10,-0.33,0.33,10,47,37,46.67,47.33,57,3.1622776601683795,3.1622776601683795,3.1622776601683795,3.1622776601683795
1,13,0.23199250001925975,w,55.0,Unlimited Time,l,41.27929559952313,55.03468810857579,48.336864011339486,35.462437842399275,35.462437842399275,41.27929559952313,48.336864011339486,55.03468810857579,-10,-0.33,0.33,10,47,37,46.67,47.33,57,3.1622776601683795,3.1622776601683795,3.1622776601683795,3.1622776601683795
1,14,0.007544199994299561,w,56.4,Unlimited Time,l,52.011055779848846,56.35142676819362,51.13023119917321,43.24353731920039,43.24353731920039,52.011055779848846,51.13023119917321,56.35142676819362,-10,-0.33,0.33,10,47,37,46.67,47.33,57,3.1622776601683795,3.1622776601683795,3.1622776601683795,3.1622776601683795
1,15,0.038141799974255264,w,58.7,Unlimited Time,l,43.99253004731418,58.66782121237863,44.77650989536824,38.20081475951217,38.20081475951217,43.99253004731418,44.77650989536824,58.66782121237863,-10,-0.33,0.33,10,47,37,46.67,47.33,57,3.1622776601683795,3.1622776601683795,3.1622776601683795,3.1622776601683795
1,16,0.08294769999338314,p,37.6,Unlimited Time,l,44.41346080168691,53.89065528710002,48.46968877660828,37.56255109294195,37.56255109294195,44.41346080168691,48.46968877660828,53.89065528710002,-10,-0.33,0.33,10,47,37,46.67,47.33,57,3.1622776601683795,3.1622776601683795,3.1622776601683795,3.1622776601683795
1,17,0.2966385000036098,q,52.7,Unlimited Time,l,52.65208836423003,58.71544394402893,50.75941403665563,38.105375274953516,38.105375274953516,52.65208836423003,50.75941403665563,58.71544394402893,-10,-0.33,0.33,10,47,37,46.67,47.33,57,3.1622776601683795,3.1622776601683795,3.1622776601683795,3.1622776601683795
1,18,0.11653519998071715,w,58.9,Unlimited Time,l,42.738037395409556,58.89076114855337,48.30224408802112,35.527747534119044,35.527747534119044,42.738037395409556,48.30224408802112,58.89076114855337,-10,-0.33,0.33,10,47,37,46.67,47.33,57,3.1622776601683795,3.1622776601683795,3.1622776601683795,3.1622776601683795
1,19,0.09552470000926405,w,57.0,Unlimited Time,l,46.35160938017695,57.029787648947796,47.861693202355205,33.78903313164682,33.78903313164682,46.35160938017695,47.861693202355205,57.029787648947796,-10,-0.33,0.33,10,47,37,46.67,47.33,57,3.1622776601683795,3.1622776601683795,3.1622776601683795,3.1622776601683795
1,20,0.09188229998108,w,59.1,Unlimited Time,l,49.12730226959133,59.09759931743625,49.037535201073155,41.69219518022806,41.69219518022806,49.12730226959133,49.037535201073155,59.09759931743625,-10,-0.33,0.33,10,47,37,46.67,47.33,57,3.1622776601683795,3.1622776601683795,3.1622776601683795,3.1622776601683795
2,1,0.16607039998052642,q,33.8,Limited Time,i,33.829863528474235,55.339557247592786,47.62536415038881,51.4905688268321,33.829863528474235,47.62536415038881,55.339557247592786,51.4905688268321,-10,-10,10,10,47,37,37,57,57,3.1622776601683795,10,3.1622776601683795,10
2,2,0.15470379998441786,w,51.0,Limited Time,i,40.867257924274426,50.97904894439498,44.87986405555751,49.379349679484676,40.867257924274426,44.87986405555751,50.97904894439498,49.379349679484676,-10,-10,10,10,47,37,37,57,57,3.1622776601683795,10,3.1622776601683795,10
2,3,0.14173839997965842,w,55.4,Limited Time,i,38.82195305355836,55.35011582145458,39.71661406830614,67.61735056746706,38.82195305355836,39.71661406830614,55.35011582145458,67.61735056746706,-10,-10,10,10,47,37,37,57,57,3.1622776601683795,10,3.1622776601683795,10
2,4,0.1712833999772556,w,62.7,Limited Time,i,38.02159012402513,62.71256632000764,45.143723775192065,63.54486364978884,38.02159012402513,45.143723775192065,62.71256632000764,63.54486364978884,-10,-10,10,10,47,37,37,57,57,3.1622776601683795,10,3.1622776601683795,10
2,5,0.016881799965631217,q,36.2,Limited Time,i,36.238640921137815,56.44283549956209,40.99027628447694,58.867613129522375,36.238640921137815,40.99027628447694,56.44283549956209,58.867613129522375,-10,-10,10,10,47,37,37,57,57,3.1622776601683795,10,3.1622776601683795,10
2,6,0.05532210000092164,q,40.5,Limited Time,i,40.50064398762522,54.97843110297721,42.565709532125155,58.99677558621868,40.50064398762522,42.565709532125155,54.97843110297721,58.99677558621868,-10,-10,10,10,47,37,37,57,57,3.1622776601683795,10,3.1622776601683795,10
2,7,0.1836161999963224,w,62.6,Limited Time,i,35.15135594189129,62.612784706898594,29.105390597527872,60.62543194534429,35.15135594189129,29.105390597527872,62.612784706898594,60.62543194534429,-10,-10,10,10,47,37,37,57,57,3.1622776601683795,10,3.1622776601683795,10
2,8,0.04193440004019067,w,55.3,Limited Time,i,31.640792684092496,55.31671182366866,39.72367192804917,52.500971394684576,31.640792684092496,39.72367192804917,55.31671182366866,52.500971394684576,-10,-10,10,10,47,37,37,57,57,3.1622776601683795,10,3.1622776601683795,10
2,9,0.20876470004441217,q,37.8,Limited Time,i,37.82524620994564,52.41920193898268,35.006642838386256,59.81046414645663,37.82524620994564,35.006642838386256,52.41920193898268,59.81046414645663,-10,-10,10,10,47,37,37,57,57,3.1622776601683795,10,3.1622776601683795,10
2,10,0.034744400007184595,q,36.0,Limited Time,i,36.0424745143128,57.29882051249381,40.95766022285805,60.5219674836605,36.0424745143128,40.95766022285805,57.29882051249381,60.5219674836605,-10,-10,10,10,47,37,37,57,57,3.1622776601683795,10,3.1622776601683795,10
2,11,0.12564310000743717,q,36.2,Limited Time,i,36.201634188316696,59.34344108637886,32.085312258955426,74.13321960961663,36.201634188316696,32.085312258955426,59.34344108637886,74.13321960961663,-10,-10,10,10,47,37,37,57,57,3.1622776601683795,10,3.1622776601683795,10
2,12,0.13469030003761873,o,34.2,Limited Time,i,35.63236705266412,56.64389037604396,34.17851195967146,48.20627696384574,35.63236705266412,34.17851195967146,56.64389037604396,48.20627696384574,-10,-10,10,10,47,37,37,57,57,3.1622776601683795,10,3.1622776601683795,10
2,13,0.10467879998032004,p,44.3,Limited Time,i,33.21651893496239,53.16589346430316,32.08611191143447,44.319192199669004,33.21651893496239,32.08611191143447,53.16589346430316,44.319192199669004,-10,-10,10,10,47,37,37,57,57,3.1622776601683795,10,3.1622776601683795,10
2,14,0.1986308000050485,p,63.9,Limited Time,i,37.53225266908509,54.759818997738975,24.585574234252107,63.93815350923254,37.53225266908509,24.585574234252107,54.759818997738975,63.93815350923254,-10,-10,10,10,47,37,37,57,57,3.1622776601683795,10,3.1622776601683795,10
2,15,0.12268139998195693,w,58.9,Limited Time,i,39.171147687346426,58.85069922280808,58.84827833757059,57.21001687845411,39.171147687346426,58.84827833757059,58.85069922280808,57.21001687845411,-10,-10,10,10,47,37,37,57,57,3.1622776601683795,10,3.1622776601683795,10
2,16,0.1813685999950394,q,41.7,Limited Time,i,41.65063097277684,58.82698112779486,42.75590872865492,67.02096671960248,41.65063097277684,42.75590872865492,58.82698112779486,67.02096671960248,-10,-10,10,10,47,37,37,57,57,3.1622776601683795,10,3.1622776601683795,10
2,17,0.001456800033338368,p,47.9,Limited Time,i,38.022815507274544,61.91855730708638,32.662315117803196,47.90048045284445,38.022815507274544,32.662315117803196,61.91855730708638,47.90048045284445,-10,-10,10,10,47,37,37,57,57,3.1622776601683795,10,3.1622776601683795,10
2,18,0.0006476999842561781,w,56.7,Limited Time,i,40.597163952873835,56.693446770306416,32.650120068243204,64.56368774929112,40.597163952873835,32.650120068243204,56.693446770306416,64.56368774929112,-10,-10,10,10,47,37,37,57,57,3.1622776601683795,10,3.1622776601683795,10
2,19,0.16819480003323406,p,49.5,Limited Time,i,40.225544015259494,59.78204919584629,37.18518850421659,49.50423258550326,40.225544015259494,37.18518850421659,59.78204919584629,49.50423258550326,-10,-10,10,10,47,37,37,57,57,3.1622776601683795,10,3.1622776601683795,10
2,20,0.05034759995760396,q,37.0,Limited Time,i,37.00874526997745,60.611096674195366,40.45672608691538,52.836239357475456,37.00874526997745,40.45672608691538,60.611096674195366,52.836239357475456,-10,-10,10,10,47,37,37,57,57,3.1622776601683795,10,3.1622776601683795,10
3,1,0.16941299999598414,q,18.1,Unlimited Time,h,18.121410255930847,57.92999708172703,42.209596099768405,56.22566338233767,18.121410255930847,56.22566338233767,42.209596099768405,57.92999708172703,-10,-0.33,0.33,10,47,37,46.67,47.33,57,10,10,10,10
3,2,0.006565699994098395,w,60.6,Unlimited Time,h,40.484503427939764,60.60899411712172,55.810407420478164,46.188328139845765,40.484503427939764,46.188328139845765,55.810407420478164,60.60899411712172,-10,-0.33,0.33,10,47,37,46.67,47.33,57,10,10,10,10
3,3,0.16099310002755374,w,51.0,Unlimited Time,h,50.48995363514447,50.9890662582213,67.86692802162416,52.24984233364738,50.48995363514447,52.24984233364738,67.86692802162416,50.9890662582213,-10,-0.33,0.33,10,47,37,46.67,47.33,57,10,10,10,10
3,4,0.0028407000354491174,o,62.7,Unlimited Time,h,37.5073091231228,52.11692337660057,62.69965913975116,53.436793266650376,37.5073091231228,53.436793266650376,62.69965913975116,52.11692337660057,-10,-0.33,0.33,10,47,37,46.67,47.33,57,10,10,10,10
3,5,0.1185393999912776,o,49.9,Unlimited Time,h,47.55690784213642,54.05962337972476,49.903584165351134,50.51594285465812,47.55690784213642,50.51594285465812,49.903584165351134,54.05962337972476,-10,-0.33,0.33,10,47,37,46.67,47.33,57,10,10,10,10
3,6,0.28193840000312775,p,41.3,Unlimited Time,h,36.73429177241142,61.732853262277004,19.453188860843568,41.25416554673956,36.73429177241142,41.25416554673956,19.453188860843568,61.732853262277004,-10,-0.33,0.33,10,47,37,46.67,47.33,57,10,10,10,10
3,7,0.0694999999832362,w,48.9,Unlimited Time,h,34.677465866771975,48.921199346635206,38.63842809206902,56.80569020552505,34.677465866771975,56.80569020552505,38.63842809206902,48.921199346635206,-10,-0.33,0.33,10,47,37,46.67,47.33,57,10,10,10,10
3,8,0.07107369997538626,q,40.8,Unlimited Time,h,40.82933957972987,70.45560189285615,51.16086113840902,57.949027926789554,40.82933957972987,57.949027926789554,51.16086113840902,70.45560189285615,-10,-0.33,0.33,10,47,37,46.67,47.33,57,10,10,10,10
3,9,0.03190609999001026,p,49.8,Unlimited Time,h,48.06345307037721,62.962274800388684,56.41616095255909,49.751364511551564,48.06345307037721,49.751364511551564,56.41616095255909,62.962274800388684,-10,-0.33,0.33,10,47,37,46.67,47.33,57,10,10,10,10
3,10,0.2816886999644339,q,40.6,Unlimited Time,h,40.625174688114846,61.85966645405541,42.766524184481725,45.010279838301116,40.625174688114846,45.010279838301116,42.766524184481725,61.85966645405541,-10,-0.33,0.33,10,47,37,46.67,47.33,57,10,10,10,10
3,11,0.05755289999069646,w,57.1,Unlimited Time,h,41.112855801224,57.10882253351514,50.95604478518361,53.6816914432408,41.112855801224,53.6816914432408,50.95604478518361,57.10882253351514,-10,-0.33,0.33,10,47,37,46.67,47.33,57,10,10,10,10
3,12,0.011893600050825626,w,51.4,Unlimited Time,h,35.13863737086636,51.37515603433633,24.067979976831268,63.80013212823204,35.13863737086636,63.80013212823204,24.067979976831268,51.37515603433633,-10,-0.33,0.33,10,47,37,46.67,47.33,57,10,10,10,10
3,13,0.028216599952429533,w,58.0,Unlimited Time,h,33.37861109350935,57.98548746131094,45.614068921538156,42.80086499056989,33.37861109350935,42.80086499056989,45.614068921538156,57.98548746131094,-10,-0.33,0.33,10,47,37,46.67,47.33,57,10,10,10,10
3,14,0.14172779995715246,o,49.8,Unlimited Time,h,41.15011893335281,48.85957109889263,49.79792137555327,37.1186818524373,41.15011893335281,37.1186818524373,49.79792137555327,48.85957109889263,-10,-0.33,0.33,10,47,37,46.67,47.33,57,10,10,10,10
3,15,0.12443429999984801,p,57.9,Unlimited Time,h,37.67576592309233,61.736682966435616,42.09908461110998,57.93085387628297,37.67576592309233,57.93085387628297,42.09908461110998,61.736682966435616,-10,-0.33,0.33,10,47,37,46.67,47.33,57,10,10,10,10
3,16,0.13815310003701597,p,42.9,Unlimited Time,h,29.296932104375884,50.5058677084843,43.83592539977148,42.9419296059341,29.296932104375884,42.9419296059341,43.83592539977148,50.5058677084843,-10,-0.33,0.33,10,47,37,46.67,47.33,57,10,10,10,10
3,17,0.04517389996908605,w,47.4,Unlimited Time,h,18.254424155328778,47.44690801523758,49.71132704302976,33.028959706821276,18.254424155328778,33.028959706821276,49.71132704302976,47.44690801523758,-10,-0.33,0.33,10,47,37,46.67,47.33,57,10,10,10,10
3,18,0.05356109997956082,w,44.3,Unlimited Time,h,25.550958954576814,44.31251145473519,49.635074778521954,47.330533866114315,25.550958954576814,47.330533866114315,49.635074778521954,44.31251145473519,-10,-0.33,0.33,10,47,37,46.67,47.33,57,10,10,10,10
3,19,0.19650620000902563,w,73.7,Unlimited Time,h,29.0448693152145,73.66636439858848,55.64201182437754,52.55101853761805,29.0448693152145,52.55101853761805,55.64201182437754,73.66636439858848,-10,-0.33,0.33,10,47,37,46.67,47.33,57,10,10,10,10
3,20,0.016151899995747954,p,61.2,Unlimited Time,h,59.82650775625059,56.10490384610352,61.11065318201727,61.15933772568289,59.82650775625059,61.15933772568289,61.11065318201727,56.10490384610352,-10,-0.33,0.33,10,47,37,46.67,47.33,57,10,10,10,10
4,1,0.30795990000478923,w,59.8,Limited Time,l,45.54767098911296,59.76830319614118,42.844849024493385,48.05768974423755,42.844849024493385,45.54767098911296,48.05768974423755,59.76830319614118,-10,-0.33,0.33,10,47,37,46.67,47.33,57,3.1622776601683795,3.1622776601683795,3.1622776601683795,3.1622776601683795
4,2,0.196703499997966,o,41.7,Limited Time,l,50.6870168876267,57.185887463914426,41.73506140808449,46.949177331910604,41.73506140808449,50.6870168876267,46.949177331910604,57.185887463914426,-10,-0.33,0.33,10,47,37,46.67,47.33,57,3.1622776601683795,3.1622776601683795,3.1622776601683795,3.1622776601683795
4,3,0.11423009994905442,o,42.2,Limited Time,l,49.020969690345275,58.366113918846835,42.228760039182006,45.14082976538261,42.228760039182006,49.020969690345275,45.14082976538261,58.366113918846835,-10,-0.33,0.33,10,47,37,46.67,47.33,57,3.1622776601683795,3.1622776601683795,3.1622776601683795,3.1622776601683795
4,4,0.08797960000811145,p,50.9,Limited Time,l,48.051638687342155,55.99002155381986,32.67436148837008,50.86023400807074,32.67436148837008,48.051638687342155,50.86023400807074,55.99002155381986,-10,-0.33,0.33,10,47,37,46.67,47.33,57,3.1622776601683795,3.1622776601683795,3.1622776601683795,3.1622776601683795
4,5,0.09103700000559911,p,47.2,Limited Time,l,45.712724403545856,57.000673295080574,35.161325641870235,47.1861264149633,35.161325641870235,45.712724403545856,47.1861264149633,57.000673295080574,-10,-0.33,0.33,10,47,37,46.67,47.33,57,3.1622776601683795,3.1622776601683795,3.1622776601683795,3.1622776601683795
4,6,0.05758259998401627,w,56.8,Limited Time,l,46.73656207464982,56.77627823033584,32.92406990117092,40.70857723389399,32.92406990117092,46.73656207464982,40.70857723389399,56.77627823033584,-10,-0.33,0.33,10,47,37,46.67,47.33,57,3.1622776601683795,3.1622776601683795,3.1622776601683795,3.1622776601683795
4,7,0.021294799982570112,o,39.7,Limited Time,l,47.861646964931666,50.21955282732122,39.65596069228529,46.3322167919596,39.65596069228529,47.861646964931666,46.3322167919596,50.21955282732122,-10,-0.33,0.33,10,47,37,46.67,47.33,57,3.1622776601683795,3.1622776601683795,3.1622776601683795,3.1622776601683795
4,8,0.21715999994194135,q,47.4,Limited Time,l,47.4487913888833,58.09150162462813,43.00294267095653,47.02590166156339,43.00294267095653,47.4487913888833,47.02590166156339,58.09150162462813,-10,-0.33,0.33,10,47,37,46.67,47.33,57,3.1622776601683795,3.1622776601683795,3.1622776601683795,3.1622776601683795
4,9,0.0809484000201337,p,44.8,Limited Time,l,45.49301284813557,55.6792352783552,34.05938367812364,44.839573788717686,34.05938367812364,45.49301284813557,44.839573788717686,55.6792352783552,-10,-0.33,0.33,10,47,37,46.67,47.33,57,3.1622776601683795,3.1622776601683795,3.1622776601683795,3.1622776601683795
4,10,0.013431400002446026,w,52.6,Limited Time,l,43.31000793240688,52.607045411779026,28.13653986151108,46.61555544181669,28.13653986151108,43.31000793240688,46.61555544181669,52.607045411779026,-10,-0.33,0.33,10,47,37,46.67,47.33,57,3.1622776601683795,3.1622776601683795,3.1622776601683795,3.1622776601683795
4,11,0.02598020003642887,o,38.0,Limited Time,l,43.18846206676086,57.532142520845504,37.985934728774296,48.25173199769272,37.985934728774296,43.18846206676086,48.25173199769272,57.532142520845504,-10,-0.33,0.33,10,47,37,46.67,47.33,57,3.1622776601683795,3.1622776601683795,3.1622776601683795,3.1622776601683795
4,12,0.24868650001008064,w,56.2,Limited Time,l,41.974718776490256,56.22379752497988,35.37715370020915,51.136535396805485,35.37715370020915,41.974718776490256,51.136535396805485,56.22379752497988,-10,-0.33,0.33,10,47,37,46.67,47.33,57,3.1622776601683795,3.1622776601683795,3.1622776601683795,3.1622776601683795
4,13,0.18775609997101128,q,41.3,Limited Time,l,41.27929559952313,55.03468810857579,35.462437842399275,48.336864011339486,35.462437842399275,41.27929559952313,48.336864011339486,55.03468810857579,-10,-0.33,0.33,10,47,37,46.67,47.33,57,3.1622776601683795,3.1622776601683795,3.1622776601683795,3.1622776601683795
4,14,0.16734890005318448,q,52.0,Limited Time,l,52.011055779848846,56.35142676819362,43.24353731920039,51.13023119917321,43.24353731920039,52.011055779848846,51.13023119917321,56.35142676819362,-10,-0.33,0.33,10,47,37,46.67,47.33,57,3.1622776601683795,3.1622776601683795,3.1622776601683795,3.1622776601683795
4,15,0.02443749998928979,w,58.7,Limited Time,l,43.99253004731418,58.66782121237863,38.20081475951217,44.77650989536824,38.20081475951217,43.99253004731418,44.77650989536824,58.66782121237863,-10,-0.33,0.33,10,47,37,46.67,47.33,57,3.1622776601683795,3.1622776601683795,3.1622776601683795,3.1622776601683795
4,16,0.23498760000802577,w,53.9,Limited Time,l,44.41346080168691,53.89065528710002,37.56255109294195,48.46968877660828,37.56255109294195,44.41346080168691,48.46968877660828,53.89065528710002,-10,-0.33,0.33,10,47,37,46.67,47.33,57,3.1622776601683795,3.1622776601683795,3.1622776601683795,3.1622776601683795
4,17,0.0884265000349842,q,52.7,Limited Time,l,52.65208836423003,58.71544394402893,38.105375274953516,50.75941403665563,38.105375274953516,52.65208836423003,50.75941403665563,58.71544394402893,-10,-0.33,0.33,10,47,37,46.67,47.33,57,3.1622776601683795,3.1622776601683795,3.1622776601683795,3.1622776601683795
4,18,0.18088719999650493,q,42.7,Limited Time,l,42.738037395409556,58.89076114855337,35.527747534119044,48.30224408802112,35.527747534119044,42.738037395409556,48.30224408802112,58.89076114855337,-10,-0.33,0.33,10,47,37,46.67,47.33,57,3.1622776601683795,3.1622776601683795,3.1622776601683795,3.1622776601683795
4,19,0.07533680001506582,w,57.0,Limited Time,l,46.35160938017695,57.029787648947796,33.78903313164682,47.861693202355205,33.78903313164682,46.35160938017695,47.861693202355205,57.029787648947796,-10,-0.33,0.33,10,47,37,46.67,47.33,57,3.1622776601683795,3.1622776601683795,3.1622776601683795,3.1622776601683795
4,20,0.22234620002564043,q,49.1,Limited Time,l,49.12730226959133,59.09759931743625,41.69219518022806,49.037535201073155,41.69219518022806,49.12730226959133,49.037535201073155,59.09759931743625,-10,-0.33,0.33,10,47,37,46.67,47.33,57,3.1622776601683795,3.1622776601683795,3.1622776601683795,3.1622776601683795
5,1,0.18492010002955794,w,42.8,Unlimited Time,l,48.05768974423755,42.844849024493385,45.54767098911296,59.76830319614118,42.844849024493385,45.54767098911296,48.05768974423755,59.76830319614118,-10,-0.33,0.33,10,47,37,46.67,47.33,57,3.1622776601683795,3.1622776601683795,3.1622776601683795,3.1622776601683795
5,2,0.25481409998610616,q,46.9,Unlimited Time,l,46.949177331910604,41.73506140808449,50.6870168876267,57.185887463914426,41.73506140808449,50.6870168876267,46.949177331910604,57.185887463914426,-10,-0.33,0.33,10,47,37,46.67,47.33,57,3.1622776601683795,3.1622776601683795,3.1622776601683795,3.1622776601683795
5,3,0.00988819997292012,q,45.1,Unlimited Time,l,45.14082976538261,42.228760039182006,49.020969690345275,58.366113918846835,42.228760039182006,49.020969690345275,45.14082976538261,58.366113918846835,-10,-0.33,0.33,10,47,37,46.67,47.33,57,3.1622776601683795,3.1622776601683795,3.1622776601683795,3.1622776601683795
5,4,0.039451700053177774,w,32.7,Unlimited Time,l,50.86023400807074,32.67436148837008,48.051638687342155,55.99002155381986,32.67436148837008,48.051638687342155,50.86023400807074,55.99002155381986,-10,-0.33,0.33,10,47,37,46.67,47.33,57,3.1622776601683795,3.1622776601683795,3.1622776601683795,3.1622776601683795
5,5,0.2555753000197001,w,35.2,Unlimited Time,l,47.1861264149633,35.161325641870235,45.712724403545856,57.000673295080574,35.161325641870235,45.712724403545856,47.1861264149633,57.000673295080574,-10,-0.33,0.33,10,47,37,46.67,47.33,57,3.1622776601683795,3.1622776601683795,3.1622776601683795,3.1622776601683795
5,6,0.07245659996988252,q,40.7,Unlimited Time,l,40.70857723389399,32.92406990117092,46.73656207464982,56.77627823033584,32.92406990117092,46.73656207464982,40.70857723389399,56.77627823033584,-10,-0.33,0.33,10,47,37,46.67,47.33,57,3.1622776601683795,3.1622776601683795,3.1622776601683795,3.1622776601683795
5,7,0.00999650004087016,w,39.7,Unlimited Time,l,46.3322167919596,39.65596069228529,47.861646964931666,50.21955282732122,39.65596069228529,47.861646964931666,46.3322167919596,50.21955282732122,-10,-0.33,0.33,10,47,37,46.67,47.33,57,3.1622776601683795,3.1622776601683795,3.1622776601683795,3.1622776601683795
5,8,0.014445199980400503,w,43.0,Unlimited Time,l,47.02590166156339,43.00294267095653,47.4487913888833,58.09150162462813,43.00294267095653,47.4487913888833,47.02590166156339,58.09150162462813,-10,-0.33,0.33,10,47,37,46.67,47.33,57,3.1622776601683795,3.1622776601683795,3.1622776601683795,3.1622776601683795
5,9,0.18103870004415512,q,44.8,Unlimited Time,l,44.839573788717686,34.05938367812364,45.49301284813557,55.6792352783552,34.05938367812364,45.49301284813557,44.839573788717686,55.6792352783552,-10,-0.33,0.33,10,47,37,46.67,47.33,57,3.1622776601683795,3.1622776601683795,3.1622776601683795,3.1622776601683795
5,10,0.21850900002755225,w,28.1,Unlimited Time,l,46.61555544181669,28.13653986151108,43.31000793240688,52.607045411779026,28.13653986151108,43.31000793240688,46.61555544181669,52.607045411779026,-10,-0.33,0.33,10,47,37,46.67,47.33,57,3.1622776601683795,3.1622776601683795,3.1622776601683795,3.1622776601683795
5,11,0.2308076999615878,q,48.3,Unlimited Time,l,48.25173199769272,37.985934728774296,43.18846206676086,57.532142520845504,37.985934728774296,43.18846206676086,48.25173199769272,57.532142520845504,-10,-0.33,0.33,10,47,37,46.67,47.33,57,3.1622776601683795,3.1622776601683795,3.1622776601683795,3.1622776601683795
5,12,0.21083910000743344,q,51.1,Unlimited Time,l,51.136535396805485,35.37715370020915,41.974718776490256,56.22379752497988,35.37715370020915,41.974718776490256,51.136535396805485,56.22379752497988,-10,-0.33,0.33,10,47,37,46.67,47.33,57,3.1622776601683795,3.1622776601683795,3.1622776601683795,3.1622776601683795
5,13,0.014474600029643625,w,35.5,Unlimited Time,l,48.336864011339486,35.462437842399275,41.27929559952313,55.03468810857579,35.462437842399275,41.27929559952313,48.336864011339486,55.03468810857579,-10,-0.33,0.33,10,47,37,46.67,47.33,57,3.1622776601683795,3.1622776601683795,3.1622776601683795,3.1622776601683795
5,14,0.0315654999576509,w,43.2,Unlimited Time,l,51.13023119917321,43.24353731920039,52.011055779848846,56.35142676819362,43.24353731920039,52.011055779848846,51.13023119917321,56.35142676819362,-10,-0.33,0.33,10,47,37,46.67,47.33,57,3.1622776601683795,3.1622776601683795,3.1622776601683795,3.1622776601683795
5,15,0.08100219996413216,p,58.7,Unlimited Time,l,44.77650989536824,38.20081475951217,43.99253004731418,58.66782121237863,38.20081475951217,43.99253004731418,44.77650989536824,58.66782121237863,-10,-0.33,0.33,10,47,37,46.67,47.33,57,3.1622776601683795,3.1622776601683795,3.1622776601683795,3.1622776601683795
5,16,0.11818749998928979,q,48.5,Unlimited Time,l,48.46968877660828,37.56255109294195,44.41346080168691,53.89065528710002,37.56255109294195,44.41346080168691,48.46968877660828,53.89065528710002,-10,-0.33,0.33,10,47,37,46.67,47.33,57,3.1622776601683795,3.1622776601683795,3.1622776601683795,3.1622776601683795
5,17,0.06955099996412173,p,58.7,Unlimited Time,l,50.75941403665563,38.105375274953516,52.65208836423003,58.71544394402893,38.105375274953516,52.65208836423003,50.75941403665563,58.71544394402893,-10,-0.33,0.33,10,47,37,46.67,47.33,57,3.1622776601683795,3.1622776601683795,3.1622776601683795,3.1622776601683795
5,18,0.05696780001744628,w,35.5,Unlimited Time,l,48.30224408802112,35.527747534119044,42.738037395409556,58.89076114855337,35.527747534119044,42.738037395409556,48.30224408802112,58.89076114855337,-10,-0.33,0.33,10,47,37,46.67,47.33,57,3.1622776601683795,3.1622776601683795,3.1622776601683795,3.1622776601683795
5,19,0.13466739997966215,w,33.8,Unlimited Time,l,47.861693202355205,33.78903313164682,46.35160938017695,57.029787648947796,33.78903313164682,46.35160938017695,47.861693202355205,57.029787648947796,-10,-0.33,0.33,10,47,37,46.67,47.33,57,3.1622776601683795,3.1622776601683795,3.1622776601683795,3.1622776601683795
5,20,0.018220299971289933,w,41.7,Unlimited Time,l,49.037535201073155,41.69219518022806,49.12730226959133,59.09759931743625,41.69219518022806,49.12730226959133,49.037535201073155,59.09759931743625,-10,-0.33,0.33,10,47,37,46.67,47.33,57,3.1622776601683795,3.1622776601683795,3.1622776601683795,3.1622776601683795
6,1,0.21070070000132546,q,42.2,Limited Time,h,42.209596099768405,57.92999708172703,18.121410255930847,56.22566338233767,18.121410255930847,56.22566338233767,42.209596099768405,57.92999708172703,-10,-0.33,0.33,10,47,37,46.67,47.33,57,10,10,10,10
6,2,0.03713539999444038,w,60.6,Limited Time,h,55.810407420478164,60.60899411712172,40.484503427939764,46.188328139845765,40.484503427939764,46.188328139845765,55.810407420478164,60.60899411712172,-10,-0.33,0.33,10,47,37,46.67,47.33,57,10,10,10,10
6,3,0.21528500004205853,w,51.0,Limited Time,h,67.86692802162416,50.9890662582213,50.48995363514447,52.24984233364738,50.48995363514447,52.24984233364738,67.86692802162416,50.9890662582213,-10,-0.33,0.33,10,47,37,46.67,47.33,57,10,10,10,10
6,4,0.02848560002166778,q,62.7,Limited Time,h,62.69965913975116,52.11692337660057,37.5073091231228,53.436793266650376,37.5073091231228,53.436793266650376,62.69965913975116,52.11692337660057,-10,-0.33,0.33,10,47,37,46.67,47.33,57,10,10,10,10
6,5,0.26123349997214973,w,54.1,Limited Time,h,49.903584165351134,54.05962337972476,47.55690784213642,50.51594285465812,47.55690784213642,50.51594285465812,49.903584165351134,54.05962337972476,-10,-0.33,0.33,10,47,37,46.67,47.33,57,10,10,10,10
6,6,0.18682970001827925,w,61.7,Limited Time,h,19.453188860843568,61.732853262277004,36.73429177241142,41.25416554673956,36.73429177241142,41.25416554673956,19.453188860843568,61.732853262277004,-10,-0.33,0.33,10,47,37,46.67,47.33,57,10,10,10,10
6,7,0.11527880001813173,o,34.7,Limited Time,h,38.63842809206902,48.921199346635206,34.677465866771975,56.80569020552505,34.677465866771975,56.80569020552505,38.63842809206902,48.921199346635206,-10,-0.33,0.33,10,47,37,46.67,47.33,57,10,10,10,10
6,8,0.14078680000966415,o,40.8,Limited Time,h,51.16086113840902,70.45560189285615,40.82933957972987,57.949027926789554,40.82933957972987,57.949027926789554,51.16086113840902,70.45560189285615,-10,-0.33,0.33,10,47,37,46.67,47.33,57,10,10,10,10
6,9,0.10770259995479137,p,49.8,Limited Time,h,56.41616095255909,62.962274800388684,48.06345307037721,49.751364511551564,48.06345307037721,49.751364511551564,56.41616095255909,62.962274800388684,-10,-0.33,0.33,10,47,37,46.67,47.33,57,10,10,10,10
6,10,0.2574746999889612,q,42.8,Limited Time,h,42.766524184481725,61.85966645405541,40.625174688114846,45.010279838301116,40.625174688114846,45.010279838301116,42.766524184481725,61.85966645405541,-10,-0.33,0.33,10,47,37,46.67,47.33,57,10,10,10,10
6,11,0.2324711999972351,w,57.1,Limited Time,h,50.95604478518361,57.10882253351514,41.112855801224,53.6816914432408,41.112855801224,53.6816914432408,50.95604478518361,57.10882253351514,-10,-0.33,0.33,10,47,37,46.67,47.33,57,10,10,10,10
6,12,0.17429789999732748,w,51.4,Limited Time,h,24.067979976831268,51.37515603433633,35.13863737086636,63.80013212823204,35.13863737086636,63.80013212823204,24.067979976831268,51.37515603433633,-10,-0.33,0.33,10,47,37,46.67,47.33,57,10,10,10,10
6,13,0.00851019995752722,w,58.0,Limited Time,h,45.614068921538156,57.98548746131094,33.37861109350935,42.80086499056989,33.37861109350935,42.80086499056989,45.614068921538156,57.98548746131094,-10,-0.33,0.33,10,47,37,46.67,47.33,57,10,10,10,10
6,14,0.12032069999258965,q,49.8,Limited Time,h,49.79792137555327,48.85957109889263,41.15011893335281,37.1186818524373,41.15011893335281,37.1186818524373,49.79792137555327,48.85957109889263,-10,-0.33,0.33,10,47,37,46.67,47.33,57,10,10,10,10
6,15,0.1161863999441266,q,42.1,Limited Time,h,42.09908461110998,61.736682966435616,37.67576592309233,57.93085387628297,37.67576592309233,57.93085387628297,42.09908461110998,61.736682966435616,-10,-0.33,0.33,10,47,37,46.67,47.33,57,10,10,10,10
6,16,0.24138289998518303,w,50.5,Limited Time,h,43.83592539977148,50.5058677084843,29.296932104375884,42.9419296059341,29.296932104375884,42.9419296059341,43.83592539977148,50.5058677084843,-10,-0.33,0.33,10,47,37,46.67,47.33,57,10,10,10,10
6,17,0.044506600010208786,w,47.4,Limited Time,h,49.71132704302976,47.44690801523758,18.254424155328778,33.028959706821276,18.254424155328778,33.028959706821276,49.71132704302976,47.44690801523758,-10,-0.33,0.33,10,47,37,46.67,47.33,57,10,10,10,10
6,18,0.024510800023563206,w,44.3,Limited Time,h,49.635074778521954,44.31251145473519,25.550958954576814,47.330533866114315,25.550958954576814,47.330533866114315,49.635074778521954,44.31251145473519,-10,-0.33,0.33,10,47,37,46.67,47.33,57,10,10,10,10
6,19,0.02035599999362603,q,55.6,Limited Time,h,55.64201182437754,73.66636439858848,29.0448693152145,52.55101853761805,29.0448693152145,52.55101853761805,55.64201182437754,73.66636439858848,-10,-0.33,0.33,10,47,37,46.67,47.33,57,10,10,10,10
6,20,0.00412040000082925,q,61.1,Limited Time,h,61.11065318201727,56.10490384610352,59.82650775625059,61.15933772568289,59.82650775625059,61.15933772568289,61.11065318201727,56.10490384610352,-10,-0.33,0.33,10,47,37,46.67,47.33,57,10,10,10,10
7,1,0.26556889998028055,w,51.5,Unlimited Time,i,47.62536415038881,51.4905688268321,33.829863528474235,55.339557247592786,33.829863528474235,47.62536415038881,55.339557247592786,51.4905688268321,-10,-10,10,10,47,37,37,57,57,3.1622776601683795,10,3.1622776601683795,10
7,2,0.08359110000310466,o,40.9,Unlimited Time,i,44.87986405555751,49.379349679484676,40.867257924274426,50.97904894439498,40.867257924274426,44.87986405555751,50.97904894439498,49.379349679484676,-10,-10,10,10,47,37,37,57,57,3.1622776601683795,10,3.1622776601683795,10
7,3,0.27271320001455024,q,39.7,Unlimited Time,i,39.71661406830614,67.61735056746706,38.82195305355836,55.35011582145458,38.82195305355836,39.71661406830614,55.35011582145458,67.61735056746706,-10,-10,10,10,47,37,37,57,57,3.1622776601683795,10,3.1622776601683795,10
7,4,0.03373629995621741,w,63.5,Unlimited Time,i,45.143723775192065,63.54486364978884,38.02159012402513,62.71256632000764,38.02159012402513,45.143723775192065,62.71256632000764,63.54486364978884,-10,-10,10,10,47,37,37,57,57,3.1622776601683795,10,3.1622776601683795,10
7,5,0.27212619996862486,q,41.0,Unlimited Time,i,40.99027628447694,58.867613129522375,36.238640921137815,56.44283549956209,36.238640921137815,40.99027628447694,56.44283549956209,58.867613129522375,-10,-10,10,10,47,37,37,57,57,3.1622776601683795,10,3.1622776601683795,10
7,6,0.08951750001870096,q,42.6,Unlimited Time,i,42.565709532125155,58.99677558621868,40.50064398762522,54.97843110297721,40.50064398762522,42.565709532125155,54.97843110297721,58.99677558621868,-10,-10,10,10,47,37,37,57,57,3.1622776601683795,10,3.1622776601683795,10
7,7,0.008222300035413355,p,62.6,Unlimited Time,i,29.105390597527872,60.62543194534429,35.15135594189129,62.612784706898594,35.15135594189129,29.105390597527872,62.612784706898594,60.62543194534429,-10,-10,10,10,47,37,37,57,57,3.1622776601683795,10,3.1622776601683795,10
7,8,0.02647599996998906,w,52.5,Unlimited Time,i,39.72367192804917,52.500971394684576,31.640792684092496,55.31671182366866,31.640792684092496,39.72367192804917,55.31671182366866,52.500971394684576,-10,-10,10,10,47,37,37,57,57,3.1622776601683795,10,3.1622776601683795,10
7,9,0.00119859998812899,p,52.4,Unlimited Time,i,35.006642838386256,59.81046414645663,37.82524620994564,52.41920193898268,37.82524620994564,35.006642838386256,52.41920193898268,59.81046414645663,-10,-10,10,10,47,37,37,57,57,3.1622776601683795,10,3.1622776601683795,10
7,10,0.01783119997708127,w,60.5,Unlimited Time,i,40.95766022285805,60.5219674836605,36.0424745143128,57.29882051249381,36.0424745143128,40.95766022285805,57.29882051249381,60.5219674836605,-10,-10,10,10,47,37,37,57,57,3.1622776601683795,10,3.1622776601683795,10
7,11,0.017793000035453588,p,59.3,Unlimited Time,i,32.085312258955426,74.13321960961663,36.201634188316696,59.34344108637886,36.201634188316696,32.085312258955426,59.34344108637886,74.13321960961663,-10,-10,10,10,47,37,37,57,57,3.1622776601683795,10,3.1622776601683795,10
7,12,0.10509709996404126,p,56.6,Unlimited Time,i,34.17851195967146,48.20627696384574,35.63236705266412,56.64389037604396,35.63236705266412,34.17851195967146,56.64389037604396,48.20627696384574,-10,-10,10,10,47,37,37,57,57,3.1622776601683795,10,3.1622776601683795,10
7,13,0.098120300041046,w,44.3,Unlimited Time,i,32.08611191143447,44.319192199669004,33.21651893496239,53.16589346430316,33.21651893496239,32.08611191143447,53.16589346430316,44.319192199669004,-10,-10,10,10,47,37,37,57,57,3.1622776601683795,10,3.1622776601683795,10
7,14,0.09391080000204965,q,24.6,Unlimited Time,i,24.585574234252107,63.93815350923254,37.53225266908509,54.759818997738975,37.53225266908509,24.585574234252107,54.759818997738975,63.93815350923254,-10,-10,10,10,47,37,37,57,57,3.1622776601683795,10,3.1622776601683795,10
7,15,0.07632220000959933,o,39.2,Unlimited Time,i,58.84827833757059,57.21001687845411,39.171147687346426,58.85069922280808,39.171147687346426,58.84827833757059,58.85069922280808,57.21001687845411,-10,-10,10,10,47,37,37,57,57,3.1622776601683795,10,3.1622776601683795,10
7,16,0.04012379999039695,o,41.7,Unlimited Time,i,42.75590872865492,67.02096671960248,41.65063097277684,58.82698112779486,41.65063097277684,42.75590872865492,58.82698112779486,67.02096671960248,-10,-10,10,10,47,37,37,57,57,3.1622776601683795,10,3.1622776601683795,10
7,17,0.02180479996604845,w,47.9,Unlimited Time,i,32.662315117803196,47.90048045284445,38.022815507274544,61.91855730708638,38.022815507274544,32.662315117803196,61.91855730708638,47.90048045284445,-10,-10,10,10,47,37,37,57,57,3.1622776601683795,10,3.1622776601683795,10
7,18,0.0597950000083074,o,40.6,Unlimited Time,i,32.650120068243204,64.56368774929112,40.597163952873835,56.693446770306416,40.597163952873835,32.650120068243204,56.693446770306416,64.56368774929112,-10,-10,10,10,47,37,37,57,57,3.1622776601683795,10,3.1622776601683795,10
7,19,0.18059309996897355,w,49.5,Unlimited Time,i,37.18518850421659,49.50423258550326,40.225544015259494,59.78204919584629,40.225544015259494,37.18518850421659,59.78204919584629,49.50423258550326,-10,-10,10,10,47,37,37,57,57,3.1622776601683795,10,3.1622776601683795,10
7,20,0.13889790000393987,o,37.0,Unlimited Time,i,40.45672608691538,52.836239357475456,37.00874526997745,60.611096674195366,37.00874526997745,40.45672608691538,60.611096674195366,52.836239357475456,-10,-10,10,10,47,37,37,57,57,3.1622776601683795,10,3.1622776601683795,10
8,1,0.214410999964457,o,43.7,Limited Time,e,47.25298384653286,38.955864093205776,43.737195980161374,45.311720796220484,43.737195980161374,38.955864093205776,47.25298384653286,45.311720796220484,0,0,0,0,47,47,47,47,47,3.1622776601683795,6.324555320336759,8.366600265340756,10
8,2,0.11475289997179061,p,54.5,Limited Time,e,49.395216668665455,49.779149266514246,43.45823695438507,54.53848679530588,43.45823695438507,49.779149266514246,49.395216668665455,54.53848679530588,0,0,0,0,47,47,47,47,47,3.1622776601683795,6.324555320336759,8.366600265340756,10
8,3,0.11458479997236282,p,53.6,Limited Time,e,47.681804620558985,44.556373601559145,44.323174799666546,53.63665628134271,44.323174799666546,44.556373601559145,47.681804620558985,53.63665628134271,0,0,0,0,47,47,47,47,47,3.1622776601683795,6.324555320336759,8.366600265340756,10
8,4,0.06450559996301308,o,46.8,Limited Time,e,57.81478836009992,42.42265429075643,46.84738650633461,45.03422694925719,46.84738650633461,42.42265429075643,57.81478836009992,45.03422694925719,0,0,0,0,47,47,47,47,47,3.1622776601683795,6.324555320336759,8.366600265340756,10
8,5,0.11424399999668822,o,46.8,Limited Time,e,30.15194354398,43.046045935924006,46.77924413233484,54.93602249694337,46.77924413233484,43.046045935924006,30.15194354398,54.93602249694337,0,0,0,0,47,47,47,47,47,3.1622776601683795,6.324555320336759,8.366600265340756,10
8,6,0.07760600000619888,w,49.3,Limited Time,e,39.80959818393454,49.277651615173426,47.41250471338522,59.116869380994764,47.41250471338522,49.277651615173426,39.80959818393454,59.116869380994764,0,0,0,0,47,47,47,47,47,3.1622776601683795,6.324555320336759,8.366600265340756,10
8,7,0.01060530001996085,p,38.8,Limited Time,e,47.02624980918919,49.520500621449855,43.69451829812219,38.79902266527202,43.69451829812219,49.520500621449855,47.02624980918919,38.79902266527202,0,0,0,0,47,47,47,47,47,3.1622776601683795,6.324555320336759,8.366600265340756,10
8,8,0.060898999974597245,p,57.0,Limited Time,e,60.09448813230931,48.639428444469466,49.883459257468004,56.98091606103126,49.883459257468004,48.639428444469466,60.09448813230931,56.98091606103126,0,0,0,0,47,47,47,47,47,3.1622776601683795,6.324555320336759,8.366600265340756,10
8,9,0.014858799986541271,o,43.7,Limited Time,e,32.907741123005785,46.23204599426285,43.69588888914911,60.851891170191756,43.69588888914911,46.23204599426285,32.907741123005785,60.851891170191756,0,0,0,0,47,47,47,47,47,3.1622776601683795,6.324555320336759,8.366600265340756,10
8,10,0.10155759996268898,w,38.2,Limited Time,e,47.82703846643509,38.15755856712307,43.58743896818568,53.10240483067739,43.58743896818568,38.15755856712307,47.82703846643509,53.10240483067739,0,0,0,0,47,47,47,47,47,3.1622776601683795,6.324555320336759,8.366600265340756,10
8,11,0.02740090002771467,o,52.1,Limited Time,e,55.75582155552556,47.938195113310194,52.14349800134355,45.5029626983005,52.14349800134355,47.938195113310194,55.75582155552556,45.5029626983005,0,0,0,0,47,47,47,47,47,3.1622776601683795,6.324555320336759,8.366600265340756,10
8,12,0.0732972000259906,p,56.0,Limited Time,e,48.71314043067801,60.013000901810855,44.422843922302484,56.017768129415394,44.422843922302484,60.013000901810855,48.71314043067801,56.017768129415394,0,0,0,0,47,47,47,47,47,3.1622776601683795,6.324555320336759,8.366600265340756,10
8,13,0.018476700002793223,o,42.3,Limited Time,e,31.348209573076442,45.944341341794,42.29104648470302,50.76089854106905,42.29104648470302,45.944341341794,31.348209573076442,50.76089854106905,0,0,0,0,47,47,47,47,47,3.1622776601683795,6.324555320336759,8.366600265340756,10
8,14,0.10205929999938235,o,44.5,Limited Time,e,46.592617259694606,52.579763254358326,44.48305617350893,45.42061058254615,44.48305617350893,52.579763254358326,46.592617259694606,45.42061058254615,0,0,0,0,47,47,47,47,47,3.1622776601683795,6.324555320336759,8.366600265340756,10
8,15,0.0405148999998346,p,34.7,Limited Time,e,34.62267375776003,50.59604061156004,46.94211990053997,34.67516110952904,46.94211990053997,50.59604061156004,34.62267375776003,34.67516110952904,0,0,0,0,47,47,47,47,47,3.1622776601683795,6.324555320336759,8.366600265340756,10
8,16,0.006278800021391362,q,56.4,Limited Time,e,56.42341081054647,45.40568985044098,51.974605637849606,50.27238619077333,51.974605637849606,45.40568985044098,56.42341081054647,50.27238619077333,0,0,0,0,47,47,47,47,47,3.1622776601683795,6.324555320336759,8.366600265340756,10
8,17,0.04416390002006665,o,45.4,Limited Time,e,54.286675442999126,39.78878297557928,45.35476103811,31.95148103244655,45.35476103811,39.78878297557928,54.286675442999126,31.95148103244655,0,0,0,0,47,47,47,47,47,3.1622776601683795,6.324555320336759,8.366600265340756,10
8,18,0.060940499999560416,w,52.2,Limited Time,e,56.97225806829964,52.18057832205734,50.22181847943929,43.141668864684966,50.22181847943929,52.18057832205734,56.97225806829964,43.141668864684966,0,0,0,0,47,47,47,47,47,3.1622776601683795,6.324555320336759,8.366600265340756,10
8,19,0.12348690000362694,o,45.3,Limited Time,e,41.202611584221835,54.46704586714782,45.34077782923972,39.71138214418928,45.34077782923972,54.46704586714782,41.202611584221835,39.71138214418928,0,0,0,0,47,47,47,47,47,3.1622776601683795,6.324555320336759,8.366600265340756,10
8,20,0.08196810004301369,p,34.3,Limited Time,e,59.395709450586764,55.250994136195104,47.70888843557071,34.31532923003151,47.70888843557071,55.250994136195104,59.395709450586764,34.31532923003151,0,0,0,0,47,47,47,47,47,3.1622776601683795,6.324555320336759,8.366600265340756,10
9,1,0.2450783000094816,o,45.3,Unlimited Time,e,47.25298384653286,43.737195980161374,45.311720796220484,38.955864093205776,43.737195980161374,38.955864093205776,47.25298384653286,45.311720796220484,0,0,0,0,47,47,47,47,47,3.1622776601683795,6.324555320336759,8.366600265340756,10
9,2,0.18707679997896776,p,49.8,Unlimited Time,e,49.395216668665455,43.45823695438507,54.53848679530588,49.779149266514246,43.45823695438507,49.779149266514246,49.395216668665455,54.53848679530588,0,0,0,0,47,47,47,47,47,3.1622776601683795,6.324555320336759,8.366600265340756,10
9,3,0.008269499987363815,o,53.6,Unlimited Time,e,47.681804620558985,44.323174799666546,53.63665628134271,44.556373601559145,44.323174799666546,44.556373601559145,47.681804620558985,53.63665628134271,0,0,0,0,47,47,47,47,47,3.1622776601683795,6.324555320336759,8.366600265340756,10
9,4,0.14939929998945445,p,42.4,Unlimited Time,e,57.81478836009992,46.84738650633461,45.03422694925719,42.42265429075643,46.84738650633461,42.42265429075643,57.81478836009992,45.03422694925719,0,0,0,0,47,47,47,47,47,3.1622776601683795,6.324555320336759,8.366600265340756,10
9,5,0.09677230002125725,p,43.0,Unlimited Time,e,30.15194354398,46.77924413233484,54.93602249694337,43.046045935924006,46.77924413233484,43.046045935924006,30.15194354398,54.93602249694337,0,0,0,0,47,47,47,47,47,3.1622776601683795,6.324555320336759,8.366600265340756,10
9,6,0.056346099998336285,p,49.3,Unlimited Time,e,39.80959818393454,47.41250471338522,59.116869380994764,49.277651615173426,47.41250471338522,49.277651615173426,39.80959818393454,59.116869380994764,0,0,0,0,47,47,47,47,47,3.1622776601683795,6.324555320336759,8.366600265340756,10
9,7,0.033683400019071996,w,43.7,Unlimited Time,e,47.02624980918919,43.69451829812219,38.79902266527202,49.520500621449855,43.69451829812219,49.520500621449855,47.02624980918919,38.79902266527202,0,0,0,0,47,47,47,47,47,3.1622776601683795,6.324555320336759,8.366600265340756,10
9,8,0.19669460004661232,w,49.9,Unlimited Time,e,60.09448813230931,49.883459257468004,56.98091606103126,48.639428444469466,49.883459257468004,48.639428444469466,60.09448813230931,56.98091606103126,0,0,0,0,47,47,47,47,47,3.1622776601683795,6.324555320336759,8.366600265340756,10
9,9,0.087865499954205,w,43.7,Unlimited Time,e,32.907741123005785,43.69588888914911,60.851891170191756,46.23204599426285,43.69588888914911,46.23204599426285,32.907741123005785,60.851891170191756,0,0,0,0,47,47,47,47,47,3.1622776601683795,6.324555320336759,8.366600265340756,10
9,10,0.08324900001753122,o,53.1,Unlimited Time,e,47.82703846643509,43.58743896818568,53.10240483067739,38.15755856712307,43.58743896818568,38.15755856712307,47.82703846643509,53.10240483067739,0,0,0,0,47,47,47,47,47,3.1622776601683795,6.324555320336759,8.366600265340756,10
9,11,0.02186979999532923,o,45.5,Unlimited Time,e,55.75582155552556,52.14349800134355,45.5029626983005,47.938195113310194,52.14349800134355,47.938195113310194,55.75582155552556,45.5029626983005,0,0,0,0,47,47,47,47,47,3.1622776601683795,6.324555320336759,8.366600265340756,10
9,12,0.09544050000840798,p,60.0,Unlimited Time,e,48.71314043067801,44.422843922302484,56.017768129415394,60.013000901810855,44.422843922302484,60.013000901810855,48.71314043067801,56.017768129415394,0,0,0,0,47,47,47,47,47,3.1622776601683795,6.324555320336759,8.366600265340756,10
9,13,0.055625899985898286,w,42.3,Unlimited Time,e,31.348209573076442,42.29104648470302,50.76089854106905,45.944341341794,42.29104648470302,45.944341341794,31.348209573076442,50.76089854106905,0,0,0,0,47,47,47,47,47,3.1622776601683795,6.324555320336759,8.366600265340756,10
9,14,0.05840009998064488,o,45.4,Unlimited Time,e,46.592617259694606,44.48305617350893,45.42061058254615,52.579763254358326,44.48305617350893,52.579763254358326,46.592617259694606,45.42061058254615,0,0,0,0,47,47,47,47,47,3.1622776601683795,6.324555320336759,8.366600265340756,10
9,15,0.025454899994656444,o,34.7,Unlimited Time,e,34.62267375776003,46.94211990053997,34.67516110952904,50.59604061156004,46.94211990053997,50.59604061156004,34.62267375776003,34.67516110952904,0,0,0,0,47,47,47,47,47,3.1622776601683795,6.324555320336759,8.366600265340756,10
9,16,0.025414199975784868,w,52.0,Unlimited Time,e,56.42341081054647,51.974605637849606,50.27238619077333,45.40568985044098,51.974605637849606,45.40568985044098,56.42341081054647,50.27238619077333,0,0,0,0,47,47,47,47,47,3.1622776601683795,6.324555320336759,8.366600265340756,10
9,17,0.022735099948477,w,45.4,Unlimited Time,e,54.286675442999126,45.35476103811,31.95148103244655,39.78878297557928,45.35476103811,39.78878297557928,54.286675442999126,31.95148103244655,0,0,0,0,47,47,47,47,47,3.1622776601683795,6.324555320336759,8.366600265340756,10
9,18,0.008624300011433661,o,43.1,Unlimited Time,e,56.97225806829964,50.22181847943929,43.141668864684966,52.18057832205734,50.22181847943929,52.18057832205734,56.97225806829964,43.141668864684966,0,0,0,0,47,47,47,47,47,3.1622776601683795,6.324555320336759,8.366600265340756,10
9,19,0.012834299996029586,o,39.7,Unlimited Time,e,41.202611584221835,45.34077782923972,39.71138214418928,54.46704586714782,45.34077782923972,54.46704586714782,41.202611584221835,39.71138214418928,0,0,0,0,47,47,47,47,47,3.1622776601683795,6.324555320336759,8.366600265340756,10
9,20,0.004957999975886196,o,34.3,Unlimited Time,e,59.395709450586764,47.70888843557071,34.31532923003151,55.250994136195104,47.70888843557071,55.250994136195104,59.395709450586764,34.31532923003151,0,0,0,0,47,47,47,47,47,3.1622776601683795,6.324555320336759,8.366600265340756,10
10,1,0.11885349999647588,w,43.7,Limited Time,e,47.25298384653286,43.737195980161374,38.955864093205776,45.311720796220484,43.737195980161374,38.955864093205776,47.25298384653286,45.311720796220484,0,0,0,0,47,47,47,47,47,3.1622776601683795,6.324555320336759,8.366600265340756,10
10,2,0.03069419995881617,w,43.5,Limited Time,e,49.395216668665455,43.45823695438507,49.779149266514246,54.53848679530588,43.45823695438507,49.779149266514246,49.395216668665455,54.53848679530588,0,0,0,0,47,47,47,47,47,3.1622776601683795,6.324555320336759,8.366600265340756,10
10,3,0.18095190002350137,w,44.3,Limited Time,e,47.681804620558985,44.323174799666546,44.556373601559145,53.63665628134271,44.323174799666546,44.556373601559145,47.681804620558985,53.63665628134271,0,0,0,0,47,47,47,47,47,3.1622776601683795,6.324555320336759,8.366600265340756,10
10,4,0.039230199996382,o,42.4,Limited Time,e,57.81478836009992,46.84738650633461,42.42265429075643,45.03422694925719,46.84738650633461,42.42265429075643,57.81478836009992,45.03422694925719,0,0,0,0,47,47,47,47,47,3.1622776601683795,6.324555320336759,8.366600265340756,10
10,5,0.017635999945923686,p,54.9,Limited Time,e,30.15194354398,46.77924413233484,43.046045935924006,54.93602249694337,46.77924413233484,43.046045935924006,30.15194354398,54.93602249694337,0,0,0,0,47,47,47,47,47,3.1622776601683795,6.324555320336759,8.366600265340756,10
10,6,0.17750240000896156,o,49.3,Limited Time,e,39.80959818393454,47.41250471338522,49.277651615173426,59.116869380994764,47.41250471338522,49.277651615173426,39.80959818393454,59.116869380994764,0,0,0,0,47,47,47,47,47,3.1622776601683795,6.324555320336759,8.366600265340756,10
10,7,0.0467930999584496,o,49.5,Limited Time,e,47.02624980918919,43.69451829812219,49.520500621449855,38.79902266527202,43.69451829812219,49.520500621449855,47.02624980918919,38.79902266527202,0,0,0,0,47,47,47,47,47,3.1622776601683795,6.324555320336759,8.366600265340756,10
10,8,0.03927010000916198,p,57.0,Limited Time,e,60.09448813230931,49.883459257468004,48.639428444469466,56.98091606103126,49.883459257468004,48.639428444469466,60.09448813230931,56.98091606103126,0,0,0,0,47,47,47,47,47,3.1622776601683795,6.324555320336759,8.366600265340756,10
10,9,0.031091799959540367,p,60.9,Limited Time,e,32.907741123005785,43.69588888914911,46.23204599426285,60.851891170191756,43.69588888914911,46.23204599426285,32.907741123005785,60.851891170191756,0,0,0,0,47,47,47,47,47,3.1622776601683795,6.324555320336759,8.366600265340756,10
10,10,0.08969260001322255,p,53.1,Limited Time,e,47.82703846643509,43.58743896818568,38.15755856712307,53.10240483067739,43.58743896818568,38.15755856712307,47.82703846643509,53.10240483067739,0,0,0,0,47,47,47,47,47,3.1622776601683795,6.324555320336759,8.366600265340756,10
10,11,0.030556999961845577,o,47.9,Limited Time,e,55.75582155552556,52.14349800134355,47.938195113310194,45.5029626983005,52.14349800134355,47.938195113310194,55.75582155552556,45.5029626983005,0,0,0,0,47,47,47,47,47,3.1622776601683795,6.324555320336759,8.366600265340756,10
10,12,0.014641000016126782,w,44.4,Limited Time,e,48.71314043067801,44.422843922302484,60.013000901810855,56.017768129415394,44.422843922302484,60.013000901810855,48.71314043067801,56.017768129415394,0,0,0,0,47,47,47,47,47,3.1622776601683795,6.324555320336759,8.366600265340756,10
10,13,0.03990299999713898,w,42.3,Limited Time,e,31.348209573076442,42.29104648470302,45.944341341794,50.76089854106905,42.29104648470302,45.944341341794,31.348209573076442,50.76089854106905,0,0,0,0,47,47,47,47,47,3.1622776601683795,6.324555320336759,8.366600265340756,10
10,14,0.023365299974102527,w,44.5,Limited Time,e,46.592617259694606,44.48305617350893,52.579763254358326,45.42061058254615,44.48305617350893,52.579763254358326,46.592617259694606,45.42061058254615,0,0,0,0,47,47,47,47,47,3.1622776601683795,6.324555320336759,8.366600265340756,10
10,15,0.03236549999564886,o,50.6,Limited Time,e,34.62267375776003,46.94211990053997,50.59604061156004,34.67516110952904,46.94211990053997,50.59604061156004,34.62267375776003,34.67516110952904,0,0,0,0,47,47,47,47,47,3.1622776601683795,6.324555320336759,8.366600265340756,10
10,16,0.09000919997924939,w,52.0,Limited Time,e,56.42341081054647,51.974605637849606,45.40568985044098,50.27238619077333,51.974605637849606,45.40568985044098,56.42341081054647,50.27238619077333,0,0,0,0,47,47,47,47,47,3.1622776601683795,6.324555320336759,8.366600265340756,10
10,17,0.044455100025516,o,39.8,Limited Time,e,54.286675442999126,45.35476103811,39.78878297557928,31.95148103244655,45.35476103811,39.78878297557928,54.286675442999126,31.95148103244655,0,0,0,0,47,47,47,47,47,3.1622776601683795,6.324555320336759,8.366600265340756,10
10,18,0.010483299964107573,o,52.2,Limited Time,e,56.97225806829964,50.22181847943929,52.18057832205734,43.141668864684966,50.22181847943929,52.18057832205734,56.97225806829964,43.141668864684966,0,0,0,0,47,47,47,47,47,3.1622776601683795,6.324555320336759,8.366600265340756,10
10,19,0.09766099997796118,p,39.7,Limited Time,e,41.202611584221835,45.34077782923972,54.46704586714782,39.71138214418928,45.34077782923972,54.46704586714782,41.202611584221835,39.71138214418928,0,0,0,0,47,47,47,47,47,3.1622776601683795,6.324555320336759,8.366600265340756,10
10,20,0.07774370000697672,o,55.3,Limited Time,e,59.395709450586764,47.70888843557071,55.250994136195104,34.31532923003151,47.70888843557071,55.250994136195104,59.395709450586764,34.31532923003151,0,0,0,0,47,47,47,47,47,3.1622776601683795,6.324555320336759,8.366600265340756,10
11,1,0.2983411999884993,w,39.0,Unlimited Time,e,43.737195980161374,38.955864093205776,47.25298384653286,45.311720796220484,43.737195980161374,38.955864093205776,47.25298384653286,45.311720796220484,0,0,0,0,47,47,47,47,47,3.1622776601683795,6.324555320336759,8.366600265340756,10
11,2,0.1150144999846816,p,54.5,Unlimited Time,e,43.45823695438507,49.779149266514246,49.395216668665455,54.53848679530588,43.45823695438507,49.779149266514246,49.395216668665455,54.53848679530588,0,0,0,0,47,47,47,47,47,3.1622776601683795,6.324555320336759,8.366600265340756,10
11,3,0.11912769998889416,o,47.7,Unlimited Time,e,44.323174799666546,44.556373601559145,47.681804620558985,53.63665628134271,44.323174799666546,44.556373601559145,47.681804620558985,53.63665628134271,0,0,0,0,47,47,47,47,47,3.1622776601683795,6.324555320336759,8.366600265340756,10
11,4,0.07007610000437126,o,57.8,Unlimited Time,e,46.84738650633461,42.42265429075643,57.81478836009992,45.03422694925719,46.84738650633461,42.42265429075643,57.81478836009992,45.03422694925719,0,0,0,0,47,47,47,47,47,3.1622776601683795,6.324555320336759,8.366600265340756,10
11,5,0.056524100014939904,w,43.0,Unlimited Time,e,46.77924413233484,43.046045935924006,30.15194354398,54.93602249694337,46.77924413233484,43.046045935924006,30.15194354398,54.93602249694337,0,0,0,0,47,47,47,47,47,3.1622776601683795,6.324555320336759,8.366600265340756,10
11,6,0.049167999997735023,p,59.1,Unlimited Time,e,47.41250471338522,49.277651615173426,39.80959818393454,59.116869380994764,47.41250471338522,49.277651615173426,39.80959818393454,59.116869380994764,0,0,0,0,47,47,47,47,47,3.1622776601683795,6.324555320336759,8.366600265340756,10
11,7,0.10763580002821982,o,47.0,Unlimited Time,e,43.69451829812219,49.520500621449855,47.02624980918919,38.79902266527202,43.69451829812219,49.520500621449855,47.02624980918919,38.79902266527202,0,0,0,0,47,47,47,47,47,3.1622776601683795,6.324555320336759,8.366600265340756,10
11,8,0.18643100000917912,w,48.6,Unlimited Time,e,49.883459257468004,48.639428444469466,60.09448813230931,56.98091606103126,49.883459257468004,48.639428444469466,60.09448813230931,56.98091606103126,0,0,0,0,47,47,47,47,47,3.1622776601683795,6.324555320336759,8.366600265340756,10
11,9,0.10778070002561435,p,60.9,Unlimited Time,e,43.69588888914911,46.23204599426285,32.907741123005785,60.851891170191756,43.69588888914911,46.23204599426285,32.907741123005785,60.851891170191756,0,0,0,0,47,47,47,47,47,3.1622776601683795,6.324555320336759,8.366600265340756,10
11,10,0.048703900014515966,p,53.1,Unlimited Time,e,43.58743896818568,38.15755856712307,47.82703846643509,53.10240483067739,43.58743896818568,38.15755856712307,47.82703846643509,53.10240483067739,0,0,0,0,47,47,47,47,47,3.1622776601683795,6.324555320336759,8.366600265340756,10
11,11,0.03292850003344938,o,55.8,Unlimited Time,e,52.14349800134355,47.938195113310194,55.75582155552556,45.5029626983005,52.14349800134355,47.938195113310194,55.75582155552556,45.5029626983005,0,0,0,0,47,47,47,47,47,3.1622776601683795,6.324555320336759,8.366600265340756,10
11,12,0.1326940999715589,p,56.0,Unlimited Time,e,44.422843922302484,60.013000901810855,48.71314043067801,56.017768129415394,44.422843922302484,60.013000901810855,48.71314043067801,56.017768129415394,0,0,0,0,47,47,47,47,47,3.1622776601683795,6.324555320336759,8.366600265340756,10
11,13,0.019879699975717813,o,31.3,Unlimited Time,e,42.29104648470302,45.944341341794,31.348209573076442,50.76089854106905,42.29104648470302,45.944341341794,31.348209573076442,50.76089854106905,0,0,0,0,47,47,47,47,47,3.1622776601683795,6.324555320336759,8.366600265340756,10
11,14,0.1450819000019692,p,45.4,Unlimited Time,e,44.48305617350893,52.579763254358326,46.592617259694606,45.42061058254615,44.48305617350893,52.579763254358326,46.592617259694606,45.42061058254615,0,0,0,0,47,47,47,47,47,3.1622776601683795,6.324555320336759,8.366600265340756,10
11,15,0.15350430004764348,p,34.7,Unlimited Time,e,46.94211990053997,50.59604061156004,34.62267375776003,34.67516110952904,46.94211990053997,50.59604061156004,34.62267375776003,34.67516110952904,0,0,0,0,47,47,47,47,47,3.1622776601683795,6.324555320336759,8.366600265340756,10
11,16,0.007499599945731461,p,50.3,Unlimited Time,e,51.974605637849606,45.40568985044098,56.42341081054647,50.27238619077333,51.974605637849606,45.40568985044098,56.42341081054647,50.27238619077333,0,0,0,0,47,47,47,47,47,3.1622776601683795,6.324555320336759,8.366600265340756,10
11,17,0.05097500002011657,o,54.3,Unlimited Time,e,45.35476103811,39.78878297557928,54.286675442999126,31.95148103244655,45.35476103811,39.78878297557928,54.286675442999126,31.95148103244655,0,0,0,0,47,47,47,47,47,3.1622776601683795,6.324555320336759,8.366600265340756,10
11,18,0.08829370001330972,p,43.1,Unlimited Time,e,50.22181847943929,52.18057832205734,56.97225806829964,43.141668864684966,50.22181847943929,52.18057832205734,56.97225806829964,43.141668864684966,0,0,0,0,47,47,47,47,47,3.1622776601683795,6.324555320336759,8.366600265340756,10
11,19,0.0551833999925293,o,41.2,Unlimited Time,e,45.34077782923972,54.46704586714782,41.202611584221835,39.71138214418928,45.34077782923972,54.46704586714782,41.202611584221835,39.71138214418928,0,0,0,0,47,47,47,47,47,3.1622776601683795,6.324555320336759,8.366600265340756,10
11,20,0.10785099997883663,p,34.3,Unlimited Time,e,47.70888843557071,55.250994136195104,59.395709450586764,34.31532923003151,47.70888843557071,55.250994136195104,59.395709450586764,34.31532923003151,0,0,0,0,47,47,47,47,47,3.1622776601683795,6.324555320336759,8.366600265340756,10
12,1,0.15048229997046292,w,18.1,Limited Time,h,56.22566338233767,18.121410255930847,57.92999708172703,42.209596099768405,18.121410255930847,56.22566338233767,42.209596099768405,57.92999708172703,-10,-0.33,0.33,10,47,37,46.67,47.33,57,10,10,10,10
12,2,0.06639009999344125,o,60.6,Limited Time,h,46.188328139845765,40.484503427939764,60.60899411712172,55.810407420478164,40.484503427939764,46.188328139845765,55.810407420478164,60.60899411712172,-10,-0.33,0.33,10,47,37,46.67,47.33,57,10,10,10,10
12,3,0.04214979999233037,o,51.0,Limited Time,h,52.24984233364738,50.48995363514447,50.9890662582213,67.86692802162416,50.48995363514447,52.24984233364738,67.86692802162416,50.9890662582213,-10,-0.33,0.33,10,47,37,46.67,47.33,57,10,10,10,10
12,4,0.05897369998274371,o,52.1,Limited Time,h,53.436793266650376,37.5073091231228,52.11692337660057,62.69965913975116,37.5073091231228,53.436793266650376,62.69965913975116,52.11692337660057,-10,-0.33,0.33,10,47,37,46.67,47.33,57,10,10,10,10
12,5,0.03337169997394085,o,54.1,Limited Time,h,50.51594285465812,47.55690784213642,54.05962337972476,49.903584165351134,47.55690784213642,50.51594285465812,49.903584165351134,54.05962337972476,-10,-0.33,0.33,10,47,37,46.67,47.33,57,10,10,10,10
12,6,0.030440100003033876,o,61.7,Limited Time,h,41.25416554673956,36.73429177241142,61.732853262277004,19.453188860843568,36.73429177241142,41.25416554673956,19.453188860843568,61.732853262277004,-10,-0.33,0.33,10,47,37,46.67,47.33,57,10,10,10,10
12,7,0.0509526000241749,o,48.9,Limited Time,h,56.80569020552505,34.677465866771975,48.921199346635206,38.63842809206902,34.677465866771975,56.80569020552505,38.63842809206902,48.921199346635206,-10,-0.33,0.33,10,47,37,46.67,47.33,57,10,10,10,10
12,8,0.024534800031688064,o,70.5,Limited Time,h,57.949027926789554,40.82933957972987,70.45560189285615,51.16086113840902,40.82933957972987,57.949027926789554,51.16086113840902,70.45560189285615,-10,-0.33,0.33,10,47,37,46.67,47.33,57,10,10,10,10
12,9,0.033735099947080016,o,63.0,Limited Time,h,49.751364511551564,48.06345307037721,62.962274800388684,56.41616095255909,48.06345307037721,49.751364511551564,56.41616095255909,62.962274800388684,-10,-0.33,0.33,10,47,37,46.67,47.33,57,10,10,10,10
12,10,0.11758849996840581,p,42.8,Limited Time,h,45.010279838301116,40.625174688114846,61.85966645405541,42.766524184481725,40.625174688114846,45.010279838301116,42.766524184481725,61.85966645405541,-10,-0.33,0.33,10,47,37,46.67,47.33,57,10,10,10,10
12,11,0.06368650001240894,p,51.0,Limited Time,h,53.6816914432408,41.112855801224,57.10882253351514,50.95604478518361,41.112855801224,53.6816914432408,50.95604478518361,57.10882253351514,-10,-0.33,0.33,10,47,37,46.67,47.33,57,10,10,10,10
12,12,0.0635382000473328,p,24.1,Limited Time,h,63.80013212823204,35.13863737086636,51.37515603433633,24.067979976831268,35.13863737086636,63.80013212823204,24.067979976831268,51.37515603433633,-10,-0.33,0.33,10,47,37,46.67,47.33,57,10,10,10,10
12,13,0.03904760000295937,w,33.4,Limited Time,h,42.80086499056989,33.37861109350935,57.98548746131094,45.614068921538156,33.37861109350935,42.80086499056989,45.614068921538156,57.98548746131094,-10,-0.33,0.33,10,47,37,46.67,47.33,57,10,10,10,10
12,14,0.11776310001732782,w,41.2,Limited Time,h,37.1186818524373,41.15011893335281,48.85957109889263,49.79792137555327,41.15011893335281,37.1186818524373,49.79792137555327,48.85957109889263,-10,-0.33,0.33,10,47,37,46.67,47.33,57,10,10,10,10
12,15,0.3632207000046037,q,57.9,Limited Time,h,57.93085387628297,37.67576592309233,61.736682966435616,42.09908461110998,37.67576592309233,57.93085387628297,42.09908461110998,61.736682966435616,-10,-0.33,0.33,10,47,37,46.67,47.33,57,10,10,10,10
12,16,0.20141519996104762,q,42.9,Limited Time,h,42.9419296059341,29.296932104375884,50.5058677084843,43.83592539977148,29.296932104375884,42.9419296059341,43.83592539977148,50.5058677084843,-10,-0.33,0.33,10,47,37,46.67,47.33,57,10,10,10,10
12,17,0.15014079998945817,q,33.0,Limited Time,h,33.028959706821276,18.254424155328778,47.44690801523758,49.71132704302976,18.254424155328778,33.028959706821276,49.71132704302976,47.44690801523758,-10,-0.33,0.33,10,47,37,46.67,47.33,57,10,10,10,10
12,18,0.16874940000707284,q,47.3,Limited Time,h,47.330533866114315,25.550958954576814,44.31251145473519,49.635074778521954,25.550958954576814,47.330533866114315,49.635074778521954,44.31251145473519,-10,-0.33,0.33,10,47,37,46.67,47.33,57,10,10,10,10
12,19,0.15180719998897985,q,52.6,Limited Time,h,52.55101853761805,29.0448693152145,73.66636439858848,55.64201182437754,29.0448693152145,52.55101853761805,55.64201182437754,73.66636439858848,-10,-0.33,0.33,10,47,37,46.67,47.33,57,10,10,10,10
12,20,0.17653670004801825,q,61.2,Limited Time,h,61.15933772568289,59.82650775625059,56.10490384610352,61.11065318201727,59.82650775625059,61.15933772568289,61.11065318201727,56.10490384610352,-10,-0.33,0.33,10,47,37,46.67,47.33,57,10,10,10,10
13,1,2.1478374000289477,w,56.2,Unlimited Time,h,57.92999708172703,56.22566338233767,42.209596099768405,18.121410255930847,18.121410255930847,56.22566338233767,42.209596099768405,57.92999708172703,-10,-0.33,0.33,10,47,37,46.67,47.33,57,10,10,10,10
13,2,0.08209339994937181,w,46.2,Unlimited Time,h,60.60899411712172,46.188328139845765,55.810407420478164,40.484503427939764,40.484503427939764,46.188328139845765,55.810407420478164,60.60899411712172,-10,-0.33,0.33,10,47,37,46.67,47.33,57,10,10,10,10
13,3,0.014821199991274625,q,51.0,Unlimited Time,h,50.9890662582213,52.24984233364738,67.86692802162416,50.48995363514447,50.48995363514447,52.24984233364738,67.86692802162416,50.9890662582213,-10,-0.33,0.33,10,47,37,46.67,47.33,57,10,10,10,10
13,4,0.09345820004818961,o,62.7,Unlimited Time,h,52.11692337660057,53.436793266650376,62.69965913975116,37.5073091231228,37.5073091231228,53.436793266650376,62.69965913975116,52.11692337660057,-10,-0.33,0.33,10,47,37,46.67,47.33,57,10,10,10,10
13,5,0.0018047000048682094,o,49.9,Unlimited Time,h,54.05962337972476,50.51594285465812,49.903584165351134,47.55690784213642,47.55690784213642,50.51594285465812,49.903584165351134,54.05962337972476,-10,-0.33,0.33,10,47,37,46.67,47.33,57,10,10,10,10
13,6,0.006807200028561056,q,61.7,Unlimited Time,h,61.732853262277004,41.25416554673956,19.453188860843568,36.73429177241142,36.73429177241142,41.25416554673956,19.453188860843568,61.732853262277004,-10,-0.33,0.33,10,47,37,46.67,47.33,57,10,10,10,10
13,7,0.0886556999757886,p,34.7,Unlimited Time,h,48.921199346635206,56.80569020552505,38.63842809206902,34.677465866771975,34.677465866771975,56.80569020552505,38.63842809206902,48.921199346635206,-10,-0.33,0.33,10,47,37,46.67,47.33,57,10,10,10,10
13,8,0.09450519998790696,p,40.8,Unlimited Time,h,70.45560189285615,57.949027926789554,51.16086113840902,40.82933957972987,40.82933957972987,57.949027926789554,51.16086113840902,70.45560189285615,-10,-0.33,0.33,10,47,37,46.67,47.33,57,10,10,10,10
13,9,0.028450099984183908,o,56.4,Unlimited Time,h,62.962274800388684,49.751364511551564,56.41616095255909,48.06345307037721,48.06345307037721,49.751364511551564,56.41616095255909,62.962274800388684,-10,-0.33,0.33,10,47,37,46.67,47.33,57,10,10,10,10
13,10,0.05364239995833486,p,40.6,Unlimited Time,h,61.85966645405541,45.010279838301116,42.766524184481725,40.625174688114846,40.625174688114846,45.010279838301116,42.766524184481725,61.85966645405541,-10,-0.33,0.33,10,47,37,46.67,47.33,57,10,10,10,10
13,11,0.3696380999754183,w,53.7,Unlimited Time,h,57.10882253351514,53.6816914432408,50.95604478518361,41.112855801224,41.112855801224,53.6816914432408,50.95604478518361,57.10882253351514,-10,-0.33,0.33,10,47,37,46.67,47.33,57,10,10,10,10
13,12,0.033138400001917034,w,63.8,Unlimited Time,h,51.37515603433633,63.80013212823204,24.067979976831268,35.13863737086636,35.13863737086636,63.80013212823204,24.067979976831268,51.37515603433633,-10,-0.33,0.33,10,47,37,46.67,47.33,57,10,10,10,10
13,13,0.022857700008898973,p,33.4,Unlimited Time,h,57.98548746131094,42.80086499056989,45.614068921538156,33.37861109350935,33.37861109350935,42.80086499056989,45.614068921538156,57.98548746131094,-10,-0.33,0.33,10,47,37,46.67,47.33,57,10,10,10,10
13,14,0.04767770000034943,o,49.8,Unlimited Time,h,48.85957109889263,37.1186818524373,49.79792137555327,41.15011893335281,41.15011893335281,37.1186818524373,49.79792137555327,48.85957109889263,-10,-0.33,0.33,10,47,37,46.67,47.33,57,10,10,10,10
13,15,0.05332740000449121,p,37.7,Unlimited Time,h,61.736682966435616,57.93085387628297,42.09908461110998,37.67576592309233,37.67576592309233,57.93085387628297,42.09908461110998,61.736682966435616,-10,-0.33,0.33,10,47,37,46.67,47.33,57,10,10,10,10
13,16,0.05770969996228814,o,43.8,Unlimited Time,h,50.5058677084843,42.9419296059341,43.83592539977148,29.296932104375884,29.296932104375884,42.9419296059341,43.83592539977148,50.5058677084843,-10,-0.33,0.33,10,47,37,46.67,47.33,57,10,10,10,10
13,17,0.07380620000185445,p,18.3,Unlimited Time,h,47.44690801523758,33.028959706821276,49.71132704302976,18.254424155328778,18.254424155328778,33.028959706821276,49.71132704302976,47.44690801523758,-10,-0.33,0.33,10,47,37,46.67,47.33,57,10,10,10,10
13,18,0.049969399988185614,o,49.6,Unlimited Time,h,44.31251145473519,47.330533866114315,49.635074778521954,25.550958954576814,25.550958954576814,47.330533866114315,49.635074778521954,44.31251145473519,-10,-0.33,0.33,10,47,37,46.67,47.33,57,10,10,10,10
13,19,0.12164440000196919,p,29.0,Unlimited Time,h,73.66636439858848,52.55101853761805,55.64201182437754,29.0448693152145,29.0448693152145,52.55101853761805,55.64201182437754,73.66636439858848,-10,-0.33,0.33,10,47,37,46.67,47.33,57,10,10,10,10
13,20,0.05766510003013536,o,61.1,Unlimited Time,h,56.10490384610352,61.15933772568289,61.11065318201727,59.82650775625059,59.82650775625059,61.15933772568289,61.11065318201727,56.10490384610352,-10,-0.33,0.33,10,47,37,46.67,47.33,57,10,10,10,10
14,1,0.3327310000313446,o,45.5,Limited Time,l,42.844849024493385,59.76830319614118,45.54767098911296,48.05768974423755,42.844849024493385,45.54767098911296,48.05768974423755,59.76830319614118,-10,-0.33,0.33,10,47,37,46.67,47.33,57,3.1622776601683795,3.1622776601683795,3.1622776601683795,3.1622776601683795
14,2,0.0036726000253111124,o,50.7,Limited Time,l,41.73506140808449,57.185887463914426,50.6870168876267,46.949177331910604,41.73506140808449,50.6870168876267,46.949177331910604,57.185887463914426,-10,-0.33,0.33,10,47,37,46.67,47.33,57,3.1622776601683795,3.1622776601683795,3.1622776601683795,3.1622776601683795
14,3,0.09092839999357238,p,45.1,Limited Time,l,42.228760039182006,58.366113918846835,49.020969690345275,45.14082976538261,42.228760039182006,49.020969690345275,45.14082976538261,58.366113918846835,-10,-0.33,0.33,10,47,37,46.67,47.33,57,3.1622776601683795,3.1622776601683795,3.1622776601683795,3.1622776601683795
14,4,0.03260129998670891,o,48.1,Limited Time,l,32.67436148837008,55.99002155381986,48.051638687342155,50.86023400807074,32.67436148837008,48.051638687342155,50.86023400807074,55.99002155381986,-10,-0.33,0.33,10,47,37,46.67,47.33,57,3.1622776601683795,3.1622776601683795,3.1622776601683795,3.1622776601683795
14,5,0.1318870999966748,p,47.2,Limited Time,l,35.161325641870235,57.000673295080574,45.712724403545856,47.1861264149633,35.161325641870235,45.712724403545856,47.1861264149633,57.000673295080574,-10,-0.33,0.33,10,47,37,46.67,47.33,57,3.1622776601683795,3.1622776601683795,3.1622776601683795,3.1622776601683795
14,6,0.04970810003578663,o,46.7,Limited Time,l,32.92406990117092,56.77627823033584,46.73656207464982,40.70857723389399,32.92406990117092,46.73656207464982,40.70857723389399,56.77627823033584,-10,-0.33,0.33,10,47,37,46.67,47.33,57,3.1622776601683795,3.1622776601683795,3.1622776601683795,3.1622776601683795
14,7,0.004004899994470179,w,50.2,Limited Time,l,39.65596069228529,50.21955282732122,47.861646964931666,46.3322167919596,39.65596069228529,47.861646964931666,46.3322167919596,50.21955282732122,-10,-0.33,0.33,10,47,37,46.67,47.33,57,3.1622776601683795,3.1622776601683795,3.1622776601683795,3.1622776601683795
14,8,0.00655470002675429,w,58.1,Limited Time,l,43.00294267095653,58.09150162462813,47.4487913888833,47.02590166156339,43.00294267095653,47.4487913888833,47.02590166156339,58.09150162462813,-10,-0.33,0.33,10,47,37,46.67,47.33,57,3.1622776601683795,3.1622776601683795,3.1622776601683795,3.1622776601683795
14,9,0.018220400030259043,w,55.7,Limited Time,l,34.05938367812364,55.6792352783552,45.49301284813557,44.839573788717686,34.05938367812364,45.49301284813557,44.839573788717686,55.6792352783552,-10,-0.33,0.33,10,47,37,46.67,47.33,57,3.1622776601683795,3.1622776601683795,3.1622776601683795,3.1622776601683795
14,10,0.02457549999235198,q,28.1,Limited Time,l,28.13653986151108,52.607045411779026,43.31000793240688,46.61555544181669,28.13653986151108,43.31000793240688,46.61555544181669,52.607045411779026,-10,-0.33,0.33,10,47,37,46.67,47.33,57,3.1622776601683795,3.1622776601683795,3.1622776601683795,3.1622776601683795
14,11,0.05927470000460744,p,48.3,Limited Time,l,37.985934728774296,57.532142520845504,43.18846206676086,48.25173199769272,37.985934728774296,43.18846206676086,48.25173199769272,57.532142520845504,-10,-0.33,0.33,10,47,37,46.67,47.33,57,3.1622776601683795,3.1622776601683795,3.1622776601683795,3.1622776601683795
14,12,0.008431299997027963,o,42.0,Limited Time,l,35.37715370020915,56.22379752497988,41.974718776490256,51.136535396805485,35.37715370020915,41.974718776490256,51.136535396805485,56.22379752497988,-10,-0.33,0.33,10,47,37,46.67,47.33,57,3.1622776601683795,3.1622776601683795,3.1622776601683795,3.1622776601683795
14,13,,,0.0,Limited Time,l,35.462437842399275,55.03468810857579,41.27929559952313,48.336864011339486,35.462437842399275,41.27929559952313,48.336864011339486,55.03468810857579,-10,-0.33,0.33,10,47,37,46.67,47.33,57,3.1622776601683795,3.1622776601683795,3.1622776601683795,3.1622776601683795
14,14,0.1834626000490971,o,52.0,Limited Time,l,43.24353731920039,56.35142676819362,52.011055779848846,51.13023119917321,43.24353731920039,52.011055779848846,51.13023119917321,56.35142676819362,-10,-0.33,0.33,10,47,37,46.67,47.33,57,3.1622776601683795,3.1622776601683795,3.1622776601683795,3.1622776601683795
14,15,0.06695410003885627,o,44.0,Limited Time,l,38.20081475951217,58.66782121237863,43.99253004731418,44.77650989536824,38.20081475951217,43.99253004731418,44.77650989536824,58.66782121237863,-10,-0.33,0.33,10,47,37,46.67,47.33,57,3.1622776601683795,3.1622776601683795,3.1622776601683795,3.1622776601683795
14,16,0.03010739997262135,o,44.4,Limited Time,l,37.56255109294195,53.89065528710002,44.41346080168691,48.46968877660828,37.56255109294195,44.41346080168691,48.46968877660828,53.89065528710002,-10,-0.33,0.33,10,47,37,46.67,47.33,57,3.1622776601683795,3.1622776601683795,3.1622776601683795,3.1622776601683795
14,17,0.18827220000093803,p,50.8,Limited Time,l,38.105375274953516,58.71544394402893,52.65208836423003,50.75941403665563,38.105375274953516,52.65208836423003,50.75941403665563,58.71544394402893,-10,-0.33,0.33,10,47,37,46.67,47.33,57,3.1622776601683795,3.1622776601683795,3.1622776601683795,3.1622776601683795
14,18,0.12957119999919087,p,48.3,Limited Time,l,35.527747534119044,58.89076114855337,42.738037395409556,48.30224408802112,35.527747534119044,42.738037395409556,48.30224408802112,58.89076114855337,-10,-0.33,0.33,10,47,37,46.67,47.33,57,3.1622776601683795,3.1622776601683795,3.1622776601683795,3.1622776601683795
14,19,0.13896449998719618,w,57.0,Limited Time,l,33.78903313164682,57.029787648947796,46.35160938017695,47.861693202355205,33.78903313164682,46.35160938017695,47.861693202355205,57.029787648947796,-10,-0.33,0.33,10,47,37,46.67,47.33,57,3.1622776601683795,3.1622776601683795,3.1622776601683795,3.1622776601683795
14,20,0.17956070002401248,w,59.1,Limited Time,l,41.69219518022806,59.09759931743625,49.12730226959133,49.037535201073155,41.69219518022806,49.12730226959133,49.037535201073155,59.09759931743625,-10,-0.33,0.33,10,47,37,46.67,47.33,57,3.1622776601683795,3.1622776601683795,3.1622776601683795,3.1622776601683795
15,1,0.22208859998499975,w,51.5,Unlimited Time,i,55.339557247592786,51.4905688268321,47.62536415038881,33.829863528474235,33.829863528474235,47.62536415038881,55.339557247592786,51.4905688268321,-10,-10,10,10,47,37,37,57,57,3.1622776601683795,10,3.1622776601683795,10
15,2,0.19702520000282675,w,49.4,Unlimited Time,i,50.97904894439498,49.379349679484676,44.87986405555751,40.867257924274426,40.867257924274426,44.87986405555751,50.97904894439498,49.379349679484676,-10,-10,10,10,47,37,37,57,57,3.1622776601683795,10,3.1622776601683795,10
15,3,0.0184163999510929,w,67.6,Unlimited Time,i,55.35011582145458,67.61735056746706,39.71661406830614,38.82195305355836,38.82195305355836,39.71661406830614,55.35011582145458,67.61735056746706,-10,-10,10,10,47,37,37,57,57,3.1622776601683795,10,3.1622776601683795,10
15,4,0.03029580001020804,w,63.5,Unlimited Time,i,62.71256632000764,63.54486364978884,45.143723775192065,38.02159012402513,38.02159012402513,45.143723775192065,62.71256632000764,63.54486364978884,-10,-10,10,10,47,37,37,57,57,3.1622776601683795,10,3.1622776601683795,10
15,5,0.03120699996361509,w,58.9,Unlimited Time,i,56.44283549956209,58.867613129522375,40.99027628447694,36.238640921137815,36.238640921137815,40.99027628447694,56.44283549956209,58.867613129522375,-10,-10,10,10,47,37,37,57,57,3.1622776601683795,10,3.1622776601683795,10
15,6,0.043677200039383024,w,59.0,Unlimited Time,i,54.97843110297721,58.99677558621868,42.565709532125155,40.50064398762522,40.50064398762522,42.565709532125155,54.97843110297721,58.99677558621868,-10,-10,10,10,47,37,37,57,57,3.1622776601683795,10,3.1622776601683795,10
15,7,0.01435550005408004,w,60.6,Unlimited Time,i,62.612784706898594,60.62543194534429,29.105390597527872,35.15135594189129,35.15135594189129,29.105390597527872,62.612784706898594,60.62543194534429,-10,-10,10,10,47,37,37,57,57,3.1622776601683795,10,3.1622776601683795,10
15,8,0.0813958999933675,w,52.5,Unlimited Time,i,55.31671182366866,52.500971394684576,39.72367192804917,31.640792684092496,31.640792684092496,39.72367192804917,55.31671182366866,52.500971394684576,-10,-10,10,10,47,37,37,57,57,3.1622776601683795,10,3.1622776601683795,10
15,9,0.03144239995162934,w,59.8,Unlimited Time,i,52.41920193898268,59.81046414645663,35.006642838386256,37.82524620994564,37.82524620994564,35.006642838386256,52.41920193898268,59.81046414645663,-10,-10,10,10,47,37,37,57,57,3.1622776601683795,10,3.1622776601683795,10
15,10,0.03094769996823743,w,60.5,Unlimited Time,i,57.29882051249381,60.5219674836605,40.95766022285805,36.0424745143128,36.0424745143128,40.95766022285805,57.29882051249381,60.5219674836605,-10,-10,10,10,47,37,37,57,57,3.1622776601683795,10,3.1622776601683795,10
15,11,0.03074640000704676,w,74.1,Unlimited Time,i,59.34344108637886,74.13321960961663,32.085312258955426,36.201634188316696,36.201634188316696,32.085312258955426,59.34344108637886,74.13321960961663,-10,-10,10,10,47,37,37,57,57,3.1622776601683795,10,3.1622776601683795,10
15,12,0.056057299952954054,w,48.2,Unlimited Time,i,56.64389037604396,48.20627696384574,34.17851195967146,35.63236705266412,35.63236705266412,34.17851195967146,56.64389037604396,48.20627696384574,-10,-10,10,10,47,37,37,57,57,3.1622776601683795,10,3.1622776601683795,10
15,13,0.26098500000080094,q,53.2,Unlimited Time,i,53.16589346430316,44.319192199669004,32.08611191143447,33.21651893496239,33.21651893496239,32.08611191143447,53.16589346430316,44.319192199669004,-10,-10,10,10,47,37,37,57,57,3.1622776601683795,10,3.1622776601683795,10
15,14,0.026789999974425882,q,54.8,Unlimited Time,i,54.759818997738975,63.93815350923254,24.585574234252107,37.53225266908509,37.53225266908509,24.585574234252107,54.759818997738975,63.93815350923254,-10,-10,10,10,47,37,37,57,57,3.1622776601683795,10,3.1622776601683795,10
15,15,0.0016713999793864787,q,58.9,Unlimited Time,i,58.85069922280808,57.21001687845411,58.84827833757059,39.171147687346426,39.171147687346426,58.84827833757059,58.85069922280808,57.21001687845411,-10,-10,10,10,47,37,37,57,57,3.1622776601683795,10,3.1622776601683795,10
15,16,0.017787699995096773,q,58.8,Unlimited Time,i,58.82698112779486,67.02096671960248,42.75590872865492,41.65063097277684,41.65063097277684,42.75590872865492,58.82698112779486,67.02096671960248,-10,-10,10,10,47,37,37,57,57,3.1622776601683795,10,3.1622776601683795,10
15,17,0.15540769998915493,w,47.9,Unlimited Time,i,61.91855730708638,47.90048045284445,32.662315117803196,38.022815507274544,38.022815507274544,32.662315117803196,61.91855730708638,47.90048045284445,-10,-10,10,10,47,37,37,57,57,3.1622776601683795,10,3.1622776601683795,10
15,18,0.04815759998746216,w,64.6,Unlimited Time,i,56.693446770306416,64.56368774929112,32.650120068243204,40.597163952873835,40.597163952873835,32.650120068243204,56.693446770306416,64.56368774929112,-10,-10,10,10,47,37,37,57,57,3.1622776601683795,10,3.1622776601683795,10
15,19,0.056685300020035356,w,49.5,Unlimited Time,i,59.78204919584629,49.50423258550326,37.18518850421659,40.225544015259494,40.225544015259494,37.18518850421659,59.78204919584629,49.50423258550326,-10,-10,10,10,47,37,37,57,57,3.1622776601683795,10,3.1622776601683795,10
15,20,0.010877099994104356,w,52.8,Unlimited Time,i,60.611096674195366,52.836239357475456,40.45672608691538,37.00874526997745,37.00874526997745,40.45672608691538,60.611096674195366,52.836239357475456,-10,-10,10,10,47,37,37,57,57,3.1622776601683795,10,3.1622776601683795,10
16,1,0.2151455999701284,o,51.5,Limited Time,i,47.62536415038881,55.339557247592786,51.4905688268321,33.829863528474235,33.829863528474235,47.62536415038881,55.339557247592786,51.4905688268321,-10,-10,10,10,47,37,37,57,57,3.1622776601683795,10,3.1622776601683795,10
16,2,0.07806689996505156,p,40.9,Limited Time,i,44.87986405555751,50.97904894439498,49.379349679484676,40.867257924274426,40.867257924274426,44.87986405555751,50.97904894439498,49.379349679484676,-10,-10,10,10,47,37,37,57,57,3.1622776601683795,10,3.1622776601683795,10
16,3,0.01125440001487732,w,55.4,Limited Time,i,39.71661406830614,55.35011582145458,67.61735056746706,38.82195305355836,38.82195305355836,39.71661406830614,55.35011582145458,67.61735056746706,-10,-10,10,10,47,37,37,57,57,3.1622776601683795,10,3.1622776601683795,10
16,4,0.06009410001570359,o,63.5,Limited Time,i,45.143723775192065,62.71256632000764,63.54486364978884,38.02159012402513,38.02159012402513,45.143723775192065,62.71256632000764,63.54486364978884,-10,-10,10,10,47,37,37,57,57,3.1622776601683795,10,3.1622776601683795,10
16,5,0.023238699999637902,p,36.2,Limited Time,i,40.99027628447694,56.44283549956209,58.867613129522375,36.238640921137815,36.238640921137815,40.99027628447694,56.44283549956209,58.867613129522375,-10,-10,10,10,47,37,37,57,57,3.1622776601683795,10,3.1622776601683795,10
16,6,0.0867069999803789,w,55.0,Limited Time,i,42.565709532125155,54.97843110297721,58.99677558621868,40.50064398762522,40.50064398762522,42.565709532125155,54.97843110297721,58.99677558621868,-10,-10,10,10,47,37,37,57,57,3.1622776601683795,10,3.1622776601683795,10
16,7,0.04331440001260489,w,62.6,Limited Time,i,29.105390597527872,62.612784706898594,60.62543194534429,35.15135594189129,35.15135594189129,29.105390597527872,62.612784706898594,60.62543194534429,-10,-10,10,10,47,37,37,57,57,3.1622776601683795,10,3.1622776601683795,10
16,8,0.00760509999236092,p,31.6,Limited Time,i,39.72367192804917,55.31671182366866,52.500971394684576,31.640792684092496,31.640792684092496,39.72367192804917,55.31671182366866,52.500971394684576,-10,-10,10,10,47,37,37,57,57,3.1622776601683795,10,3.1622776601683795,10
16,9,0.02060159994289279,o,59.8,Limited Time,i,35.006642838386256,52.41920193898268,59.81046414645663,37.82524620994564,37.82524620994564,35.006642838386256,52.41920193898268,59.81046414645663,-10,-10,10,10,47,37,37,57,57,3.1622776601683795,10,3.1622776601683795,10
16,10,0.040839900029823184,w,57.3,Limited Time,i,40.95766022285805,57.29882051249381,60.5219674836605,36.0424745143128,36.0424745143128,40.95766022285805,57.29882051249381,60.5219674836605,-10,-10,10,10,47,37,37,57,57,3.1622776601683795,10,3.1622776601683795,10
16,11,0.007478700019419193,w,59.3,Limited Time,i,32.085312258955426,59.34344108637886,74.13321960961663,36.201634188316696,36.201634188316696,32.085312258955426,59.34344108637886,74.13321960961663,-10,-10,10,10,47,37,37,57,57,3.1622776601683795,10,3.1622776601683795,10
16,12,0.04537880001589656,o,48.2,Limited Time,i,34.17851195967146,56.64389037604396,48.20627696384574,35.63236705266412,35.63236705266412,34.17851195967146,56.64389037604396,48.20627696384574,-10,-10,10,10,47,37,37,57,57,3.1622776601683795,10,3.1622776601683795,10
16,13,0.024572200025431812,w,53.2,Limited Time,i,32.08611191143447,53.16589346430316,44.319192199669004,33.21651893496239,33.21651893496239,32.08611191143447,53.16589346430316,44.319192199669004,-10,-10,10,10,47,37,37,57,57,3.1622776601683795,10,3.1622776601683795,10
16,14,0.007893499976489693,p,37.5,Limited Time,i,24.585574234252107,54.759818997738975,63.93815350923254,37.53225266908509,37.53225266908509,24.585574234252107,54.759818997738975,63.93815350923254,-10,-10,10,10,47,37,37,57,57,3.1622776601683795,10,3.1622776601683795,10
16,15,0.0699585999827832,w,58.9,Limited Time,i,58.84827833757059,58.85069922280808,57.21001687845411,39.171147687346426,39.171147687346426,58.84827833757059,58.85069922280808,57.21001687845411,-10,-10,10,10,47,37,37,57,57,3.1622776601683795,10,3.1622776601683795,10
16,16,0.028519699990283698,o,67.0,Limited Time,i,42.75590872865492,58.82698112779486,67.02096671960248,41.65063097277684,41.65063097277684,42.75590872865492,58.82698112779486,67.02096671960248,-10,-10,10,10,47,37,37,57,57,3.1622776601683795,10,3.1622776601683795,10
16,17,0.06273060000967234,w,61.9,Limited Time,i,32.662315117803196,61.91855730708638,47.90048045284445,38.022815507274544,38.022815507274544,32.662315117803196,61.91855730708638,47.90048045284445,-10,-10,10,10,47,37,37,57,57,3.1622776601683795,10,3.1622776601683795,10
16,18,0.05035420000785962,p,40.6,Limited Time,i,32.650120068243204,56.693446770306416,64.56368774929112,40.597163952873835,40.597163952873835,32.650120068243204,56.693446770306416,64.56368774929112,-10,-10,10,10,47,37,37,57,57,3.1622776601683795,10,3.1622776601683795,10
16,19,0.11577869998291135,o,49.5,Limited Time,i,37.18518850421659,59.78204919584629,49.50423258550326,40.225544015259494,40.225544015259494,37.18518850421659,59.78204919584629,49.50423258550326,-10,-10,10,10,47,37,37,57,57,3.1622776601683795,10,3.1622776601683795,10
16,20,0.23327339999377728,w,60.6,Limited Time,i,40.45672608691538,60.611096674195366,52.836239357475456,37.00874526997745,37.00874526997745,40.45672608691538,60.611096674195366,52.836239357475456,-10,-10,10,10,47,37,37,57,57,3.1622776601683795,10,3.1622776601683795,10
