Round Number,Trial Number,Reaction Time,Choice,Reward,Time Condition,Payoff Condition,Q mapped,W mapped,O mapped,P mapped,One value,Two value,Three value,Four value,One mean,Two mean,Three mean,Four mean,Mean Shift,One shifted mean,Two shifted mean,Three shifted mean,Four shifted mean,One SD,Two SD,Three SD,Four SD
1,1,0.7312325000530109,q,30.9,Unlimited Time,l,30.916590192210162,34.39884451762596,53.09078823646167,41.99825147800294,30.916590192210162,34.39884451762596,41.99825147800294,53.09078823646167,-10,-0.33,0.33,10,42,32,41.67,42.33,52,3.1622776601683795,3.1622776601683795,3.1622776601683795,3.1622776601683795
1,2,0.35703279997687787,w,34.8,Unlimited Time,l,34.764629636227575,34.805526777856535,52.04334418836478,48.34144761048536,34.764629636227575,34.805526777856535,48.34144761048536,52.04334418836478,-10,-0.33,0.33,10,42,32,41.67,42.33,52,3.1622776601683795,3.1622776601683795,3.1622776601683795,3.1622776601683795
1,3,0.36648139997851104,o,47.6,Unlimited Time,l,32.98690071668082,40.40410144259275,47.610391168222606,40.721293559328416,32.98690071668082,40.40410144259275,40.721293559328416,47.610391168222606,-10,-0.33,0.33,10,42,32,41.67,42.33,52,3.1622776601683795,3.1622776601683795,3.1622776601683795,3.1622776601683795
1,4,0.33410610002465546,p,41.5,Unlimited Time,l,31.85590919980437,37.88321764848821,51.38218264993144,41.54954005339106,31.85590919980437,37.88321764848821,41.54954005339106,51.38218264993144,-10,-0.33,0.33,10,42,32,41.67,42.33,52,3.1622776601683795,3.1622776601683795,3.1622776601683795,3.1622776601683795
1,5,0.2673846000107005,o,48.7,Unlimited Time,l,33.789685279642015,42.78115403403998,48.699710387797204,43.0606294276508,33.789685279642015,42.78115403403998,43.0606294276508,48.699710387797204,-10,-0.33,0.33,10,42,32,41.67,42.33,52,3.1622776601683795,3.1622776601683795,3.1622776601683795,3.1622776601683795
1,6,0.0623867999529466,o,48.5,Unlimited Time,l,31.178494724542485,36.43357099390462,48.53449559938563,42.56050481377658,31.178494724542485,36.43357099390462,42.56050481377658,48.53449559938563,-10,-0.33,0.33,10,42,32,41.67,42.33,52,3.1622776601683795,3.1622776601683795,3.1622776601683795,3.1622776601683795
1,7,0.3607691000215709,o,48.9,Unlimited Time,l,29.27616080923787,36.31554135687113,48.94993902636631,46.551448831009196,29.27616080923787,36.31554135687113,46.551448831009196,48.94993902636631,-10,-0.33,0.33,10,42,32,41.67,42.33,52,3.1622776601683795,3.1622776601683795,3.1622776601683795,3.1622776601683795
1,8,0.27409419999457896,o,49.6,Unlimited Time,l,31.01534394977543,43.51917458955216,49.60753560966468,41.37463363577971,31.01534394977543,43.51917458955216,41.37463363577971,49.60753560966468,-10,-0.33,0.33,10,42,32,41.67,42.33,52,3.1622776601683795,3.1622776601683795,3.1622776601683795,3.1622776601683795
1,9,0.32285519992001355,o,51.7,Unlimited Time,l,28.925701105264714,43.26207312439413,51.669260549579796,42.026700761427186,28.925701105264714,43.26207312439413,42.026700761427186,51.669260549579796,-10,-0.33,0.33,10,42,32,41.67,42.33,52,3.1622776601683795,3.1622776601683795,3.1622776601683795,3.1622776601683795
1,10,0.2612915000645444,o,51.0,Unlimited Time,l,34.3352422693929,44.67206092753943,50.96248075909969,42.760290709804714,34.3352422693929,44.67206092753943,42.760290709804714,50.96248075909969,-10,-0.33,0.33,10,42,32,41.67,42.33,52,3.1622776601683795,3.1622776601683795,3.1622776601683795,3.1622776601683795
1,11,0.2710973001085222,o,56.3,Unlimited Time,l,32.23023120644695,39.69433425159371,56.328996375574576,46.4687650937147,32.23023120644695,39.69433425159371,46.4687650937147,56.328996375574576,-10,-0.33,0.33,10,42,32,41.67,42.33,52,3.1622776601683795,3.1622776601683795,3.1622776601683795,3.1622776601683795
1,12,0.2673318999586627,o,50.3,Unlimited Time,l,25.441688947950013,41.68048912216092,50.32482278695261,41.54023087822933,25.441688947950013,41.68048912216092,41.54023087822933,50.32482278695261,-10,-0.33,0.33,10,42,32,41.67,42.33,52,3.1622776601683795,3.1622776601683795,3.1622776601683795,3.1622776601683795
1,13,0.3001735999714583,w,36.4,Unlimited Time,l,31.777829385255426,36.43715582091884,56.303468117442314,40.04972299000528,31.777829385255426,36.43715582091884,40.04972299000528,56.303468117442314,-10,-0.33,0.33,10,42,32,41.67,42.33,52,3.1622776601683795,3.1622776601683795,3.1622776601683795,3.1622776601683795
1,14,0.46855290001258254,q,28.7,Unlimited Time,l,28.691529829289465,41.89284291654343,46.1040284346385,44.61692727672647,28.691529829289465,41.89284291654343,44.61692727672647,46.1040284346385,-10,-0.33,0.33,10,42,32,41.67,42.33,52,3.1622776601683795,3.1622776601683795,3.1622776601683795,3.1622776601683795
1,15,0.6173738000215963,p,34.9,Unlimited Time,l,36.72112822443485,39.14156492532826,56.02696608523209,34.93736469120369,36.72112822443485,39.14156492532826,34.93736469120369,56.02696608523209,-10,-0.33,0.33,10,42,32,41.67,42.33,52,3.1622776601683795,3.1622776601683795,3.1622776601683795,3.1622776601683795
1,16,0.20385849999729544,o,50.8,Unlimited Time,l,34.6563734121414,41.54415322496187,50.75017602374029,45.259352089460634,34.6563734121414,41.54415322496187,45.259352089460634,50.75017602374029,-10,-0.33,0.33,10,42,32,41.67,42.33,52,3.1622776601683795,3.1622776601683795,3.1622776601683795,3.1622776601683795
1,17,0.3939981999574229,o,48.8,Unlimited Time,l,29.73287842018551,39.63393655002969,48.75177594123507,41.847589206339826,29.73287842018551,39.63393655002969,41.847589206339826,48.75177594123507,-10,-0.33,0.33,10,42,32,41.67,42.33,52,3.1622776601683795,3.1622776601683795,3.1622776601683795,3.1622776601683795
1,18,0.3495226000668481,o,54.3,Unlimited Time,l,35.00112476000239,42.99790342902847,54.30953093913325,47.88967917413022,35.00112476000239,42.99790342902847,47.88967917413022,54.30953093913325,-10,-0.33,0.33,10,42,32,41.67,42.33,52,3.1622776601683795,3.1622776601683795,3.1622776601683795,3.1622776601683795
1,19,0.4202701000031084,o,49.9,Unlimited Time,l,34.64790927016223,45.56831016976979,49.88237860101124,39.033005496785464,34.64790927016223,45.56831016976979,39.033005496785464,49.88237860101124,-10,-0.33,0.33,10,42,32,41.67,42.33,52,3.1622776601683795,3.1622776601683795,3.1622776601683795,3.1622776601683795
1,20,0.36653430003207177,o,47.9,Unlimited Time,l,32.89319968928341,44.812812813747,47.924978623700355,42.67663804355803,32.89319968928341,44.812812813747,42.67663804355803,47.924978623700355,-10,-0.33,0.33,10,42,32,41.67,42.33,52,3.1622776601683795,3.1622776601683795,3.1622776601683795,3.1622776601683795
2,1,,,0.0,Limited Time,h,30.896028998436684,39.73193031447635,38.51941288655181,61.329099957192405,38.51941288655181,39.73193031447635,30.896028998436684,61.329099957192405,-10,-0.33,0.33,10,42,32,41.67,42.33,52,10,10,10,10
2,2,,,0.0,Limited Time,h,50.46684688404959,45.50462962591168,21.56941411029695,49.56106731773914,21.56941411029695,45.50462962591168,50.46684688404959,49.56106731773914,-10,-0.33,0.33,10,42,32,41.67,42.33,52,10,10,10,10
2,3,0.258989299996756,q,39.0,Limited Time,h,39.04789168503085,24.740046048586844,48.610041412050684,36.31603455520457,48.610041412050684,24.740046048586844,39.04789168503085,36.31603455520457,-10,-0.33,0.33,10,42,32,41.67,42.33,52,10,10,10,10
2,4,0.3331427000230178,w,25.7,Limited Time,h,30.16032597231682,25.692655056659817,33.27793921409512,46.30405575468088,33.27793921409512,25.692655056659817,30.16032597231682,46.30405575468088,-10,-0.33,0.33,10,42,32,41.67,42.33,52,10,10,10,10
2,5,0.2858116999268532,o,34.3,Limited Time,h,32.41269082880092,63.310425539356025,34.274335463340776,60.98206000788284,34.274335463340776,63.310425539356025,32.41269082880092,60.98206000788284,-10,-0.33,0.33,10,42,32,41.67,42.33,52,10,10,10,10
2,6,0.3465781999984756,o,29.4,Limited Time,h,57.42259189566315,60.030694787837305,29.421703669876756,41.67210586984575,29.421703669876756,60.030694787837305,57.42259189566315,41.67210586984575,-10,-0.33,0.33,10,42,32,41.67,42.33,52,10,10,10,10
2,7,,,0.0,Limited Time,h,44.47005175387805,44.45036539457227,13.233025711314102,54.38561317043824,13.233025711314102,44.45036539457227,44.47005175387805,54.38561317043824,-10,-0.33,0.33,10,42,32,41.67,42.33,52,10,10,10,10
2,8,0.35242310003377497,p,45.5,Limited Time,h,38.81575957769378,30.211088997653505,36.6361073482443,45.524228885447805,36.6361073482443,30.211088997653505,38.81575957769378,45.524228885447805,-10,-0.33,0.33,10,42,32,41.67,42.33,52,10,10,10,10
2,9,,,0.0,Limited Time,h,38.93826262792064,53.605556831465805,46.86954495157413,64.36015011554767,46.86954495157413,53.605556831465805,38.93826262792064,64.36015011554767,-10,-0.33,0.33,10,42,32,41.67,42.33,52,10,10,10,10
2,10,,,0.0,Limited Time,h,27.654514735688583,42.44370735091904,49.24386819765107,62.136182764544664,49.24386819765107,42.44370735091904,27.654514735688583,62.136182764544664,-10,-0.33,0.33,10,42,32,41.67,42.33,52,10,10,10,10
2,11,,,0.0,Limited Time,h,36.65303226105425,33.09106378377496,42.99585492539231,32.53512080619029,42.99585492539231,33.09106378377496,36.65303226105425,32.53512080619029,-10,-0.33,0.33,10,42,32,41.67,42.33,52,10,10,10,10
2,12,0.19936570001300424,p,42.3,Limited Time,h,49.14166171484868,23.470542427527075,35.36612957169057,42.348216409966895,35.36612957169057,23.470542427527075,49.14166171484868,42.348216409966895,-10,-0.33,0.33,10,42,32,41.67,42.33,52,10,10,10,10
2,13,0.32843919994775206,p,52.2,Limited Time,h,25.33894009425034,35.4598096975446,19.575008236854988,52.208455830574145,19.575008236854988,35.4598096975446,25.33894009425034,52.208455830574145,-10,-0.33,0.33,10,42,32,41.67,42.33,52,10,10,10,10
2,14,0.34828519995789975,p,44.0,Limited Time,h,47.040561061856174,58.284295856688146,56.254926703183756,44.032087318307646,56.254926703183756,58.284295856688146,47.040561061856174,44.032087318307646,-10,-0.33,0.33,10,42,32,41.67,42.33,52,10,10,10,10
2,15,0.3493750999914482,p,50.7,Limited Time,h,51.301962282909344,49.80930313847277,50.016374403149264,50.682545125246065,50.016374403149264,49.80930313847277,51.301962282909344,50.682545125246065,-10,-0.33,0.33,10,42,32,41.67,42.33,52,10,10,10,10
2,16,0.35506990004796535,o,34.2,Limited Time,h,24.24753448519808,46.60546754999227,34.24164482207221,26.233762696707743,34.24164482207221,46.60546754999227,24.24753448519808,26.233762696707743,-10,-0.33,0.33,10,42,32,41.67,42.33,52,10,10,10,10
2,17,0.3104791999794543,p,60.1,Limited Time,h,57.06669540578173,44.73704534615717,52.129057625942636,60.0715052122661,52.129057625942636,44.73704534615717,57.06669540578173,60.0715052122661,-10,-0.33,0.33,10,42,32,41.67,42.33,52,10,10,10,10
2,18,0.32044979999773204,p,68.6,Limited Time,h,49.96503074965175,39.11348604662569,45.46027377712762,68.61794678207504,45.46027377712762,39.11348604662569,49.96503074965175,68.61794678207504,-10,-0.33,0.33,10,42,32,41.67,42.33,52,10,10,10,10
2,19,0.3228786000981927,p,52.6,Limited Time,h,40.63706351630413,30.130100764493676,49.41204762642902,52.628028875968305,49.41204762642902,30.130100764493676,40.63706351630413,52.628028875968305,-10,-0.33,0.33,10,42,32,41.67,42.33,52,10,10,10,10
2,20,0.33289829990826547,p,52.2,Limited Time,h,62.82465036571213,20.418892308182876,37.79572723259354,52.17187799809015,37.79572723259354,20.418892308182876,62.82465036571213,52.17187799809015,-10,-0.33,0.33,10,42,32,41.67,42.33,52,10,10,10,10
3,1,0.4416783999186009,q,38.5,Unlimited Time,h,38.51941288655181,61.329099957192405,39.73193031447635,30.896028998436684,38.51941288655181,39.73193031447635,30.896028998436684,61.329099957192405,-10,-0.33,0.33,10,42,32,41.67,42.33,52,10,10,10,10
3,2,0.41714120004326105,w,49.6,Unlimited Time,h,21.56941411029695,49.56106731773914,45.50462962591168,50.46684688404959,21.56941411029695,45.50462962591168,50.46684688404959,49.56106731773914,-10,-0.33,0.33,10,42,32,41.67,42.33,52,10,10,10,10
3,3,0.4300456999335438,o,24.7,Unlimited Time,h,48.610041412050684,36.31603455520457,24.740046048586844,39.04789168503085,48.610041412050684,24.740046048586844,39.04789168503085,36.31603455520457,-10,-0.33,0.33,10,42,32,41.67,42.33,52,10,10,10,10
3,4,0.2633718999568373,p,30.2,Unlimited Time,h,33.27793921409512,46.30405575468088,25.692655056659817,30.16032597231682,33.27793921409512,25.692655056659817,30.16032597231682,46.30405575468088,-10,-0.33,0.33,10,42,32,41.67,42.33,52,10,10,10,10
3,5,0.366507500060834,w,61.0,Unlimited Time,h,34.274335463340776,60.98206000788284,63.310425539356025,32.41269082880092,34.274335463340776,63.310425539356025,32.41269082880092,60.98206000788284,-10,-0.33,0.33,10,42,32,41.67,42.33,52,10,10,10,10
3,6,0.40437180001754314,w,41.7,Unlimited Time,h,29.421703669876756,41.67210586984575,60.030694787837305,57.42259189566315,29.421703669876756,60.030694787837305,57.42259189566315,41.67210586984575,-10,-0.33,0.33,10,42,32,41.67,42.33,52,10,10,10,10
3,7,0.41580830002203584,w,54.4,Unlimited Time,h,13.233025711314102,54.38561317043824,44.45036539457227,44.47005175387805,13.233025711314102,44.45036539457227,44.47005175387805,54.38561317043824,-10,-0.33,0.33,10,42,32,41.67,42.33,52,10,10,10,10
3,8,0.38697810005396605,w,45.5,Unlimited Time,h,36.6361073482443,45.524228885447805,30.211088997653505,38.81575957769378,36.6361073482443,30.211088997653505,38.81575957769378,45.524228885447805,-10,-0.33,0.33,10,42,32,41.67,42.33,52,10,10,10,10
3,9,0.4738162999274209,w,64.4,Unlimited Time,h,46.86954495157413,64.36015011554767,53.605556831465805,38.93826262792064,46.86954495157413,53.605556831465805,38.93826262792064,64.36015011554767,-10,-0.33,0.33,10,42,32,41.67,42.33,52,10,10,10,10
3,10,0.3147308999905363,w,62.1,Unlimited Time,h,49.24386819765107,62.136182764544664,42.44370735091904,27.654514735688583,49.24386819765107,42.44370735091904,27.654514735688583,62.136182764544664,-10,-0.33,0.33,10,42,32,41.67,42.33,52,10,10,10,10
3,11,0.3771669000852853,w,32.5,Unlimited Time,h,42.99585492539231,32.53512080619029,33.09106378377496,36.65303226105425,42.99585492539231,33.09106378377496,36.65303226105425,32.53512080619029,-10,-0.33,0.33,10,42,32,41.67,42.33,52,10,10,10,10
3,12,0.3378252999391407,q,35.4,Unlimited Time,h,35.36612957169057,42.348216409966895,23.470542427527075,49.14166171484868,35.36612957169057,23.470542427527075,49.14166171484868,42.348216409966895,-10,-0.33,0.33,10,42,32,41.67,42.33,52,10,10,10,10
3,13,0.41542840003967285,o,35.5,Unlimited Time,h,19.575008236854988,52.208455830574145,35.4598096975446,25.33894009425034,19.575008236854988,35.4598096975446,25.33894009425034,52.208455830574145,-10,-0.33,0.33,10,42,32,41.67,42.33,52,10,10,10,10
3,14,0.3710158000467345,p,47.0,Unlimited Time,h,56.254926703183756,44.032087318307646,58.284295856688146,47.040561061856174,56.254926703183756,58.284295856688146,47.040561061856174,44.032087318307646,-10,-0.33,0.33,10,42,32,41.67,42.33,52,10,10,10,10
3,15,0.3516015999484807,w,50.7,Unlimited Time,h,50.016374403149264,50.682545125246065,49.80930313847277,51.301962282909344,50.016374403149264,49.80930313847277,51.301962282909344,50.682545125246065,-10,-0.33,0.33,10,42,32,41.67,42.33,52,10,10,10,10
3,16,0.3408025000244379,w,26.2,Unlimited Time,h,34.24164482207221,26.233762696707743,46.60546754999227,24.24753448519808,34.24164482207221,46.60546754999227,24.24753448519808,26.233762696707743,-10,-0.33,0.33,10,42,32,41.67,42.33,52,10,10,10,10
3,17,1.1183094000443816,p,57.1,Unlimited Time,h,52.129057625942636,60.0715052122661,44.73704534615717,57.06669540578173,52.129057625942636,44.73704534615717,57.06669540578173,60.0715052122661,-10,-0.33,0.33,10,42,32,41.67,42.33,52,10,10,10,10
3,18,0.3238545999629423,p,50.0,Unlimited Time,h,45.46027377712762,68.61794678207504,39.11348604662569,49.96503074965175,45.46027377712762,39.11348604662569,49.96503074965175,68.61794678207504,-10,-0.33,0.33,10,42,32,41.67,42.33,52,10,10,10,10
3,19,0.5271652999799699,p,40.6,Unlimited Time,h,49.41204762642902,52.628028875968305,30.130100764493676,40.63706351630413,49.41204762642902,30.130100764493676,40.63706351630413,52.628028875968305,-10,-0.33,0.33,10,42,32,41.67,42.33,52,10,10,10,10
3,20,0.3859277000883594,p,62.8,Unlimited Time,h,37.79572723259354,52.17187799809015,20.418892308182876,62.82465036571213,37.79572723259354,20.418892308182876,62.82465036571213,52.17187799809015,-10,-0.33,0.33,10,42,32,41.67,42.33,52,10,10,10,10
4,1,,,0.0,Limited Time,i,33.64940273264579,30.873753337351165,54.446812513772656,49.35803839390649,30.873753337351165,33.64940273264579,49.35803839390649,54.446812513772656,-10,-10,10,10,42,32,32,52,52,3.1622776601683795,10,3.1622776601683795,10
4,2,0.09030999999959022,q,48.5,Limited Time,i,48.49092728342286,37.356535032775,42.72725127306945,52.790204431339326,37.356535032775,48.49092728342286,52.790204431339326,42.72725127306945,-10,-10,10,10,42,32,32,52,52,3.1622776601683795,10,3.1622776601683795,10
4,3,0.2177131000207737,q,23.2,Limited Time,i,23.17912594913989,30.115632905445477,40.89134774398016,51.72790137004664,30.115632905445477,23.17912594913989,51.72790137004664,40.89134774398016,-10,-10,10,10,42,32,32,52,52,3.1622776601683795,10,3.1622776601683795,10
4,4,0.35034210002049804,q,35.8,Limited Time,i,35.77867517227919,30.711439967388802,25.15210984311198,50.62392437655063,30.711439967388802,35.77867517227919,50.62392437655063,25.15210984311198,-10,-10,10,10,42,32,32,52,52,3.1622776601683795,10,3.1622776601683795,10
4,5,0.1832082000328228,w,30.2,Limited Time,i,22.676201300495563,30.172434434738776,34.4000931794097,60.11840502398843,30.172434434738776,22.676201300495563,60.11840502398843,34.4000931794097,-10,-10,10,10,42,32,32,52,52,3.1622776601683795,10,3.1622776601683795,10
4,6,0.2415351999225095,o,52.4,Limited Time,i,39.787191019414514,34.737889544702604,52.40354188383631,51.088229645281764,34.737889544702604,39.787191019414514,51.088229645281764,52.40354188383631,-10,-10,10,10,42,32,32,52,52,3.1622776601683795,10,3.1622776601683795,10
4,7,0.30684640002436936,p,49.5,Limited Time,i,40.648401098531075,33.65965027622505,31.821932060518378,49.47258195958314,33.65965027622505,40.648401098531075,49.47258195958314,31.821932060518378,-10,-10,10,10,42,32,32,52,52,3.1622776601683795,10,3.1622776601683795,10
4,8,0.24939050001557916,o,39.4,Limited Time,i,29.583039790971842,35.424774302207844,39.38781444158886,54.74124530299951,35.424774302207844,29.583039790971842,54.74124530299951,39.38781444158886,-10,-10,10,10,42,32,32,52,52,3.1622776601683795,10,3.1622776601683795,10
4,9,0.2228706000605598,o,50.0,Limited Time,i,25.451530912237942,29.61426480841659,49.95550527660064,45.988581258748916,29.61426480841659,25.451530912237942,45.988581258748916,49.95550527660064,-10,-10,10,10,42,32,32,52,52,3.1622776601683795,10,3.1622776601683795,10
4,10,0.21012429997790605,o,49.1,Limited Time,i,46.77070637634911,29.3570023851605,49.134963941833206,50.55976359706786,29.3570023851605,46.77070637634911,50.55976359706786,49.134963941833206,-10,-10,10,10,42,32,32,52,52,3.1622776601683795,10,3.1622776601683795,10
4,11,0.2581672000233084,o,37.5,Limited Time,i,20.080908643804037,36.62002357285847,37.48718926797053,51.350521296338144,36.62002357285847,20.080908643804037,51.350521296338144,37.48718926797053,-10,-10,10,10,42,32,32,52,52,3.1622776601683795,10,3.1622776601683795,10
4,12,0.22425970004405826,o,62.7,Limited Time,i,47.52476635657308,28.08437832273631,62.664149008824026,48.25588994642925,28.08437832273631,47.52476635657308,48.25588994642925,62.664149008824026,-10,-10,10,10,42,32,32,52,52,3.1622776601683795,10,3.1622776601683795,10
4,13,0.24861820007208735,o,68.9,Limited Time,i,30.28972300902432,31.88791475673047,68.85471441015898,50.41036127652967,31.88791475673047,30.28972300902432,50.41036127652967,68.85471441015898,-10,-10,10,10,42,32,32,52,52,3.1622776601683795,10,3.1622776601683795,10
4,14,0.22248389991000295,o,40.0,Limited Time,i,43.52661188369902,32.1733108010207,40.00614968754983,50.269450730985184,32.1733108010207,43.52661188369902,50.269450730985184,40.00614968754983,-10,-10,10,10,42,32,32,52,52,3.1622776601683795,10,3.1622776601683795,10
4,15,0.24098050000611693,o,53.5,Limited Time,i,37.39116805489339,30.15663068052713,53.51564969695281,51.001028395291385,30.15663068052713,37.39116805489339,51.001028395291385,53.51564969695281,-10,-10,10,10,42,32,32,52,52,3.1622776601683795,10,3.1622776601683795,10
4,16,0.2599930999567732,o,56.5,Limited Time,i,19.036909691474726,33.46639372006084,56.485730112144076,48.56896335598379,33.46639372006084,19.036909691474726,48.56896335598379,56.485730112144076,-10,-10,10,10,42,32,32,52,52,3.1622776601683795,10,3.1622776601683795,10
4,17,0.2114720999961719,o,62.1,Limited Time,i,40.0973081690007,26.387141201894096,62.06416689838781,50.65136170602637,26.387141201894096,40.0973081690007,50.65136170602637,62.06416689838781,-10,-10,10,10,42,32,32,52,52,3.1622776601683795,10,3.1622776601683795,10
4,18,0.24213800008874387,o,47.5,Limited Time,i,26.26067040581646,34.330408552608795,47.48864408464409,52.937459120203506,34.330408552608795,26.26067040581646,52.937459120203506,47.48864408464409,-10,-10,10,10,42,32,32,52,52,3.1622776601683795,10,3.1622776601683795,10
4,19,0.2396882000612095,o,68.2,Limited Time,i,37.5376245249865,30.173851190588252,68.19471515220857,50.793667341952684,30.173851190588252,37.5376245249865,50.793667341952684,68.19471515220857,-10,-10,10,10,42,32,32,52,52,3.1622776601683795,10,3.1622776601683795,10
4,20,0.20419170008972287,o,40.9,Limited Time,i,24.03090460426134,29.178896715425704,40.8916106692095,51.71051166181982,29.178896715425704,24.03090460426134,51.71051166181982,40.8916106692095,-10,-10,10,10,42,32,32,52,52,3.1622776601683795,10,3.1622776601683795,10
5,1,0.565498000010848,q,30.7,Unlimited Time,e,30.72095230915945,63.02022315476049,40.26530756951781,54.45234715561874,40.26530756951781,54.45234715561874,30.72095230915945,63.02022315476049,0,0,0,0,42,42,42,42,42,3.1622776601683795,6.324555320336759,8.366600265340756,10
5,2,0.24628359999042004,w,41.2,Unlimited Time,e,53.09141823536636,41.23130647349445,46.63851379759219,39.33042666878053,46.63851379759219,39.33042666878053,53.09141823536636,41.23130647349445,0,0,0,0,42,42,42,42,42,3.1622776601683795,6.324555320336759,8.366600265340756,10
5,3,0.2526707999641076,o,42.8,Unlimited Time,e,44.85084812569569,35.24768490863029,42.76324402827276,42.33118547445053,42.76324402827276,42.33118547445053,44.85084812569569,35.24768490863029,0,0,0,0,42,42,42,42,42,3.1622776601683795,6.324555320336759,8.366600265340756,10
5,4,0.1469590999186039,p,49.5,Unlimited Time,e,33.05761158142442,54.62853642680292,43.65635618722819,49.454542840215474,43.65635618722819,49.454542840215474,33.05761158142442,54.62853642680292,0,0,0,0,42,42,42,42,42,3.1622776601683795,6.324555320336759,8.366600265340756,10
5,5,0.2627594000659883,p,24.5,Unlimited Time,e,41.33568494290879,37.549277830471105,42.608981251782026,24.47623707147291,42.608981251782026,24.47623707147291,41.33568494290879,37.549277830471105,0,0,0,0,42,42,42,42,42,3.1622776601683795,6.324555320336759,8.366600265340756,10
5,6,0.2261325999861583,p,42.1,Unlimited Time,e,45.184587033953065,37.43456907013137,39.31948916740074,42.088270087477575,39.31948916740074,42.088270087477575,45.184587033953065,37.43456907013137,0,0,0,0,42,42,42,42,42,3.1622776601683795,6.324555320336759,8.366600265340756,10
5,7,0.2605613999767229,o,42.5,Unlimited Time,e,46.63231300353472,25.646517931132816,42.51881188988839,43.3041241436272,42.51881188988839,43.3041241436272,46.63231300353472,25.646517931132816,0,0,0,0,42,42,42,42,42,3.1622776601683795,6.324555320336759,8.366600265340756,10
5,8,0.24680820002686232,p,48.1,Unlimited Time,e,44.79891071184887,45.477771914744366,48.09203558256309,48.148295448056174,48.09203558256309,48.148295448056174,44.79891071184887,45.477771914744366,0,0,0,0,42,42,42,42,42,3.1622776601683795,6.324555320336759,8.366600265340756,10
5,9,0.2190847999881953,p,37.3,Unlimited Time,e,36.96388149761433,35.211635779226604,46.346227093017504,37.252165249787105,46.346227093017504,37.252165249787105,36.96388149761433,35.211635779226604,0,0,0,0,42,42,42,42,42,3.1622776601683795,6.324555320336759,8.366600265340756,10
5,10,0.2794862000737339,p,47.2,Unlimited Time,e,48.869558928268944,36.4533913325603,41.4619016684733,47.195971599801986,41.4619016684733,47.195971599801986,48.869558928268944,36.4533913325603,0,0,0,0,42,42,42,42,42,3.1622776601683795,6.324555320336759,8.366600265340756,10
5,11,0.210241699940525,p,31.1,Unlimited Time,e,35.15536679098291,39.50430353079871,42.095053311334496,31.05660026430231,42.095053311334496,31.05660026430231,35.15536679098291,39.50430353079871,0,0,0,0,42,42,42,42,42,3.1622776601683795,6.324555320336759,8.366600265340756,10
5,12,0.3973665999947116,w,41.0,Unlimited Time,e,27.113802159163072,41.009904740751075,42.98874384716385,42.767454935905604,42.98874384716385,42.767454935905604,27.113802159163072,41.009904740751075,0,0,0,0,42,42,42,42,42,3.1622776601683795,6.324555320336759,8.366600265340756,10
5,13,0.2635329000186175,w,40.0,Unlimited Time,e,57.45299999879042,39.97657343323899,39.78370926301277,38.16137774148932,39.78370926301277,38.16137774148932,57.45299999879042,39.97657343323899,0,0,0,0,42,42,42,42,42,3.1622776601683795,6.324555320336759,8.366600265340756,10
5,14,0.22100519994273782,w,43.9,Unlimited Time,e,39.222983405748245,43.88183297273198,42.641146323590434,43.57802857105543,42.641146323590434,43.57802857105543,39.222983405748245,43.88183297273198,0,0,0,0,42,42,42,42,42,3.1622776601683795,6.324555320336759,8.366600265340756,10
5,15,0.25223739992361516,w,54.5,Unlimited Time,e,37.44911176386499,54.54272156662029,44.343984461693495,39.46231863530198,44.343984461693495,39.46231863530198,37.44911176386499,54.54272156662029,0,0,0,0,42,42,42,42,42,3.1622776601683795,6.324555320336759,8.366600265340756,10
5,16,0.21795129997190088,w,39.9,Unlimited Time,e,33.45595565248898,39.88565373082686,37.4026994604111,40.34891124049454,37.4026994604111,40.34891124049454,33.45595565248898,39.88565373082686,0,0,0,0,42,42,42,42,42,3.1622776601683795,6.324555320336759,8.366600265340756,10
5,17,0.26556590001564473,w,32.4,Unlimited Time,e,35.852421851185575,32.43588554304885,39.14540239348017,50.92461659987314,39.14540239348017,50.92461659987314,35.852421851185575,32.43588554304885,0,0,0,0,42,42,42,42,42,3.1622776601683795,6.324555320336759,8.366600265340756,10
5,18,0.5390909999841824,w,50.0,Unlimited Time,e,31.130889024437174,49.97953865278935,42.674583667741885,33.4166102953224,42.674583667741885,33.4166102953224,31.130889024437174,49.97953865278935,0,0,0,0,42,42,42,42,42,3.1622776601683795,6.324555320336759,8.366600265340756,10
5,19,0.2496032000053674,w,41.9,Unlimited Time,e,34.366025922354694,41.88459051669349,44.79453516705645,46.338967209712145,44.79453516705645,46.338967209712145,34.366025922354694,41.88459051669349,0,0,0,0,42,42,42,42,42,3.1622776601683795,6.324555320336759,8.366600265340756,10
5,20,0.22391549998428673,w,38.2,Unlimited Time,e,32.174306110936406,38.1829537952373,42.49561312903916,36.67667110325919,42.49561312903916,36.67667110325919,32.174306110936406,38.1829537952373,0,0,0,0,42,42,42,42,42,3.1622776601683795,6.324555320336759,8.366600265340756,10
6,1,0.34094040002673864,q,61.3,Limited Time,h,61.329099957192405,30.896028998436684,39.73193031447635,38.51941288655181,38.51941288655181,39.73193031447635,30.896028998436684,61.329099957192405,-10,-0.33,0.33,10,42,32,41.67,42.33,52,10,10,10,10
6,2,0.25255990005098283,w,50.5,Limited Time,h,49.56106731773914,50.46684688404959,45.50462962591168,21.56941411029695,21.56941411029695,45.50462962591168,50.46684688404959,49.56106731773914,-10,-0.33,0.33,10,42,32,41.67,42.33,52,10,10,10,10
6,3,0.16415159997995943,o,24.7,Limited Time,h,36.31603455520457,39.04789168503085,24.740046048586844,48.610041412050684,48.610041412050684,24.740046048586844,39.04789168503085,36.31603455520457,-10,-0.33,0.33,10,42,32,41.67,42.33,52,10,10,10,10
6,4,0.2548806000268087,p,33.3,Limited Time,h,46.30405575468088,30.16032597231682,25.692655056659817,33.27793921409512,33.27793921409512,25.692655056659817,30.16032597231682,46.30405575468088,-10,-0.33,0.33,10,42,32,41.67,42.33,52,10,10,10,10
6,5,0.21724829997401685,w,32.4,Limited Time,h,60.98206000788284,32.41269082880092,63.310425539356025,34.274335463340776,34.274335463340776,63.310425539356025,32.41269082880092,60.98206000788284,-10,-0.33,0.33,10,42,32,41.67,42.33,52,10,10,10,10
6,6,0.2677874000510201,o,60.0,Limited Time,h,41.67210586984575,57.42259189566315,60.030694787837305,29.421703669876756,29.421703669876756,60.030694787837305,57.42259189566315,41.67210586984575,-10,-0.33,0.33,10,42,32,41.67,42.33,52,10,10,10,10
6,7,0.2756304000504315,o,44.5,Limited Time,h,54.38561317043824,44.47005175387805,44.45036539457227,13.233025711314102,13.233025711314102,44.45036539457227,44.47005175387805,54.38561317043824,-10,-0.33,0.33,10,42,32,41.67,42.33,52,10,10,10,10
6,8,0.19782310002483428,o,30.2,Limited Time,h,45.524228885447805,38.81575957769378,30.211088997653505,36.6361073482443,36.6361073482443,30.211088997653505,38.81575957769378,45.524228885447805,-10,-0.33,0.33,10,42,32,41.67,42.33,52,10,10,10,10
6,9,0.21716500003822148,o,53.6,Limited Time,h,64.36015011554767,38.93826262792064,53.605556831465805,46.86954495157413,46.86954495157413,53.605556831465805,38.93826262792064,64.36015011554767,-10,-0.33,0.33,10,42,32,41.67,42.33,52,10,10,10,10
6,10,0.18208870000671595,o,42.4,Limited Time,h,62.136182764544664,27.654514735688583,42.44370735091904,49.24386819765107,49.24386819765107,42.44370735091904,27.654514735688583,62.136182764544664,-10,-0.33,0.33,10,42,32,41.67,42.33,52,10,10,10,10
6,11,0.2214793999446556,o,33.1,Limited Time,h,32.53512080619029,36.65303226105425,33.09106378377496,42.99585492539231,42.99585492539231,33.09106378377496,36.65303226105425,32.53512080619029,-10,-0.33,0.33,10,42,32,41.67,42.33,52,10,10,10,10
6,12,0.2308554999763146,o,23.5,Limited Time,h,42.348216409966895,49.14166171484868,23.470542427527075,35.36612957169057,35.36612957169057,23.470542427527075,49.14166171484868,42.348216409966895,-10,-0.33,0.33,10,42,32,41.67,42.33,52,10,10,10,10
6,13,0.3028766999486834,o,35.5,Limited Time,h,52.208455830574145,25.33894009425034,35.4598096975446,19.575008236854988,19.575008236854988,35.4598096975446,25.33894009425034,52.208455830574145,-10,-0.33,0.33,10,42,32,41.67,42.33,52,10,10,10,10
6,14,0.19038789998739958,o,58.3,Limited Time,h,44.032087318307646,47.040561061856174,58.284295856688146,56.254926703183756,56.254926703183756,58.284295856688146,47.040561061856174,44.032087318307646,-10,-0.33,0.33,10,42,32,41.67,42.33,52,10,10,10,10
6,15,0.2940055000362918,o,49.8,Limited Time,h,50.682545125246065,51.301962282909344,49.80930313847277,50.016374403149264,50.016374403149264,49.80930313847277,51.301962282909344,50.682545125246065,-10,-0.33,0.33,10,42,32,41.67,42.33,52,10,10,10,10
6,16,0.16690049995668232,o,46.6,Limited Time,h,26.233762696707743,24.24753448519808,46.60546754999227,34.24164482207221,34.24164482207221,46.60546754999227,24.24753448519808,26.233762696707743,-10,-0.33,0.33,10,42,32,41.67,42.33,52,10,10,10,10
6,17,0.17594119999557734,o,44.7,Limited Time,h,60.0715052122661,57.06669540578173,44.73704534615717,52.129057625942636,52.129057625942636,44.73704534615717,57.06669540578173,60.0715052122661,-10,-0.33,0.33,10,42,32,41.67,42.33,52,10,10,10,10
6,18,0.19232540007214993,o,39.1,Limited Time,h,68.61794678207504,49.96503074965175,39.11348604662569,45.46027377712762,45.46027377712762,39.11348604662569,49.96503074965175,68.61794678207504,-10,-0.33,0.33,10,42,32,41.67,42.33,52,10,10,10,10
6,19,0.2408790000481531,o,30.1,Limited Time,h,52.628028875968305,40.63706351630413,30.130100764493676,49.41204762642902,49.41204762642902,30.130100764493676,40.63706351630413,52.628028875968305,-10,-0.33,0.33,10,42,32,41.67,42.33,52,10,10,10,10
6,20,0.13688760006334633,o,20.4,Limited Time,h,52.17187799809015,62.82465036571213,20.418892308182876,37.79572723259354,37.79572723259354,20.418892308182876,62.82465036571213,52.17187799809015,-10,-0.33,0.33,10,42,32,41.67,42.33,52,10,10,10,10
7,1,0.24488549993839115,q,30.9,Unlimited Time,l,30.916590192210162,34.39884451762596,53.09078823646167,41.99825147800294,30.916590192210162,34.39884451762596,41.99825147800294,53.09078823646167,-10,-0.33,0.33,10,42,32,41.67,42.33,52,3.1622776601683795,3.1622776601683795,3.1622776601683795,3.1622776601683795
7,2,0.3020184999331832,w,34.8,Unlimited Time,l,34.764629636227575,34.805526777856535,52.04334418836478,48.34144761048536,34.764629636227575,34.805526777856535,48.34144761048536,52.04334418836478,-10,-0.33,0.33,10,42,32,41.67,42.33,52,3.1622776601683795,3.1622776601683795,3.1622776601683795,3.1622776601683795
7,3,0.13717100000940263,o,47.6,Unlimited Time,l,32.98690071668082,40.40410144259275,47.610391168222606,40.721293559328416,32.98690071668082,40.40410144259275,40.721293559328416,47.610391168222606,-10,-0.33,0.33,10,42,32,41.67,42.33,52,3.1622776601683795,3.1622776601683795,3.1622776601683795,3.1622776601683795
7,4,0.19308890006504953,p,41.5,Unlimited Time,l,31.85590919980437,37.88321764848821,51.38218264993144,41.54954005339106,31.85590919980437,37.88321764848821,41.54954005339106,51.38218264993144,-10,-0.33,0.33,10,42,32,41.67,42.33,52,3.1622776601683795,3.1622776601683795,3.1622776601683795,3.1622776601683795
7,5,0.23696559993550181,o,48.7,Unlimited Time,l,33.789685279642015,42.78115403403998,48.699710387797204,43.0606294276508,33.789685279642015,42.78115403403998,43.0606294276508,48.699710387797204,-10,-0.33,0.33,10,42,32,41.67,42.33,52,3.1622776601683795,3.1622776601683795,3.1622776601683795,3.1622776601683795
7,6,0.2321804000530392,o,48.5,Unlimited Time,l,31.178494724542485,36.43357099390462,48.53449559938563,42.56050481377658,31.178494724542485,36.43357099390462,42.56050481377658,48.53449559938563,-10,-0.33,0.33,10,42,32,41.67,42.33,52,3.1622776601683795,3.1622776601683795,3.1622776601683795,3.1622776601683795
7,7,0.16720500006340444,o,48.9,Unlimited Time,l,29.27616080923787,36.31554135687113,48.94993902636631,46.551448831009196,29.27616080923787,36.31554135687113,46.551448831009196,48.94993902636631,-10,-0.33,0.33,10,42,32,41.67,42.33,52,3.1622776601683795,3.1622776601683795,3.1622776601683795,3.1622776601683795
7,8,0.20035090006422251,o,49.6,Unlimited Time,l,31.01534394977543,43.51917458955216,49.60753560966468,41.37463363577971,31.01534394977543,43.51917458955216,41.37463363577971,49.60753560966468,-10,-0.33,0.33,10,42,32,41.67,42.33,52,3.1622776601683795,3.1622776601683795,3.1622776601683795,3.1622776601683795
7,9,0.10513279994484037,o,51.7,Unlimited Time,l,28.925701105264714,43.26207312439413,51.669260549579796,42.026700761427186,28.925701105264714,43.26207312439413,42.026700761427186,51.669260549579796,-10,-0.33,0.33,10,42,32,41.67,42.33,52,3.1622776601683795,3.1622776601683795,3.1622776601683795,3.1622776601683795
7,10,0.22154439997393638,o,51.0,Unlimited Time,l,34.3352422693929,44.67206092753943,50.96248075909969,42.760290709804714,34.3352422693929,44.67206092753943,42.760290709804714,50.96248075909969,-10,-0.33,0.33,10,42,32,41.67,42.33,52,3.1622776601683795,3.1622776601683795,3.1622776601683795,3.1622776601683795
7,11,0.2927993000485003,o,56.3,Unlimited Time,l,32.23023120644695,39.69433425159371,56.328996375574576,46.4687650937147,32.23023120644695,39.69433425159371,46.4687650937147,56.328996375574576,-10,-0.33,0.33,10,42,32,41.67,42.33,52,3.1622776601683795,3.1622776601683795,3.1622776601683795,3.1622776601683795
7,12,0.19119589996989816,o,50.3,Unlimited Time,l,25.441688947950013,41.68048912216092,50.32482278695261,41.54023087822933,25.441688947950013,41.68048912216092,41.54023087822933,50.32482278695261,-10,-0.33,0.33,10,42,32,41.67,42.33,52,3.1622776601683795,3.1622776601683795,3.1622776601683795,3.1622776601683795
7,13,0.16827550006564707,o,56.3,Unlimited Time,l,31.777829385255426,36.43715582091884,56.303468117442314,40.04972299000528,31.777829385255426,36.43715582091884,40.04972299000528,56.303468117442314,-10,-0.33,0.33,10,42,32,41.67,42.33,52,3.1622776601683795,3.1622776601683795,3.1622776601683795,3.1622776601683795
7,14,0.13393749995157123,o,46.1,Unlimited Time,l,28.691529829289465,41.89284291654343,46.1040284346385,44.61692727672647,28.691529829289465,41.89284291654343,44.61692727672647,46.1040284346385,-10,-0.33,0.33,10,42,32,41.67,42.33,52,3.1622776601683795,3.1622776601683795,3.1622776601683795,3.1622776601683795
7,15,0.17220460006501526,o,56.0,Unlimited Time,l,36.72112822443485,39.14156492532826,56.02696608523209,34.93736469120369,36.72112822443485,39.14156492532826,34.93736469120369,56.02696608523209,-10,-0.33,0.33,10,42,32,41.67,42.33,52,3.1622776601683795,3.1622776601683795,3.1622776601683795,3.1622776601683795
7,16,0.1102188000222668,o,50.8,Unlimited Time,l,34.6563734121414,41.54415322496187,50.75017602374029,45.259352089460634,34.6563734121414,41.54415322496187,45.259352089460634,50.75017602374029,-10,-0.33,0.33,10,42,32,41.67,42.33,52,3.1622776601683795,3.1622776601683795,3.1622776601683795,3.1622776601683795
7,17,0.1581069000530988,o,48.8,Unlimited Time,l,29.73287842018551,39.63393655002969,48.75177594123507,41.847589206339826,29.73287842018551,39.63393655002969,41.847589206339826,48.75177594123507,-10,-0.33,0.33,10,42,32,41.67,42.33,52,3.1622776601683795,3.1622776601683795,3.1622776601683795,3.1622776601683795
7,18,0.14672730001620948,o,54.3,Unlimited Time,l,35.00112476000239,42.99790342902847,54.30953093913325,47.88967917413022,35.00112476000239,42.99790342902847,47.88967917413022,54.30953093913325,-10,-0.33,0.33,10,42,32,41.67,42.33,52,3.1622776601683795,3.1622776601683795,3.1622776601683795,3.1622776601683795
7,19,0.1149305000435561,o,49.9,Unlimited Time,l,34.64790927016223,45.56831016976979,49.88237860101124,39.033005496785464,34.64790927016223,45.56831016976979,39.033005496785464,49.88237860101124,-10,-0.33,0.33,10,42,32,41.67,42.33,52,3.1622776601683795,3.1622776601683795,3.1622776601683795,3.1622776601683795
7,20,0.07898230000864714,o,47.9,Unlimited Time,l,32.89319968928341,44.812812813747,47.924978623700355,42.67663804355803,32.89319968928341,44.812812813747,42.67663804355803,47.924978623700355,-10,-0.33,0.33,10,42,32,41.67,42.33,52,3.1622776601683795,3.1622776601683795,3.1622776601683795,3.1622776601683795
8,1,0.18025680002756417,q,33.6,Limited Time,i,33.64940273264579,49.35803839390649,30.873753337351165,54.446812513772656,30.873753337351165,33.64940273264579,49.35803839390649,54.446812513772656,-10,-10,10,10,42,32,32,52,52,3.1622776601683795,10,3.1622776601683795,10
8,2,0.12043670006096363,w,52.8,Limited Time,i,48.49092728342286,52.790204431339326,37.356535032775,42.72725127306945,37.356535032775,48.49092728342286,52.790204431339326,42.72725127306945,-10,-10,10,10,42,32,32,52,52,3.1622776601683795,10,3.1622776601683795,10
8,3,0.06758659996557981,o,30.1,Limited Time,i,23.17912594913989,51.72790137004664,30.115632905445477,40.89134774398016,30.115632905445477,23.17912594913989,51.72790137004664,40.89134774398016,-10,-10,10,10,42,32,32,52,52,3.1622776601683795,10,3.1622776601683795,10
8,4,0.08950210001785308,p,25.2,Limited Time,i,35.77867517227919,50.62392437655063,30.711439967388802,25.15210984311198,30.711439967388802,35.77867517227919,50.62392437655063,25.15210984311198,-10,-10,10,10,42,32,32,52,52,3.1622776601683795,10,3.1622776601683795,10
8,5,0.08757090009748936,w,60.1,Limited Time,i,22.676201300495563,60.11840502398843,30.172434434738776,34.4000931794097,30.172434434738776,22.676201300495563,60.11840502398843,34.4000931794097,-10,-10,10,10,42,32,32,52,52,3.1622776601683795,10,3.1622776601683795,10
8,6,0.13616600004024804,w,51.1,Limited Time,i,39.787191019414514,51.088229645281764,34.737889544702604,52.40354188383631,34.737889544702604,39.787191019414514,51.088229645281764,52.40354188383631,-10,-10,10,10,42,32,32,52,52,3.1622776601683795,10,3.1622776601683795,10
8,7,0.11358510004356503,w,49.5,Limited Time,i,40.648401098531075,49.47258195958314,33.65965027622505,31.821932060518378,33.65965027622505,40.648401098531075,49.47258195958314,31.821932060518378,-10,-10,10,10,42,32,32,52,52,3.1622776601683795,10,3.1622776601683795,10
8,8,0.10729840002022684,w,54.7,Limited Time,i,29.583039790971842,54.74124530299951,35.424774302207844,39.38781444158886,35.424774302207844,29.583039790971842,54.74124530299951,39.38781444158886,-10,-10,10,10,42,32,32,52,52,3.1622776601683795,10,3.1622776601683795,10
8,9,0.11409329995512962,w,46.0,Limited Time,i,25.451530912237942,45.988581258748916,29.61426480841659,49.95550527660064,29.61426480841659,25.451530912237942,45.988581258748916,49.95550527660064,-10,-10,10,10,42,32,32,52,52,3.1622776601683795,10,3.1622776601683795,10
8,10,0.1274206000380218,w,50.6,Limited Time,i,46.77070637634911,50.55976359706786,29.3570023851605,49.134963941833206,29.3570023851605,46.77070637634911,50.55976359706786,49.134963941833206,-10,-10,10,10,42,32,32,52,52,3.1622776601683795,10,3.1622776601683795,10
8,11,0.12557070003822446,w,51.4,Limited Time,i,20.080908643804037,51.350521296338144,36.62002357285847,37.48718926797053,36.62002357285847,20.080908643804037,51.350521296338144,37.48718926797053,-10,-10,10,10,42,32,32,52,52,3.1622776601683795,10,3.1622776601683795,10
8,12,0.13247599999886006,w,48.3,Limited Time,i,47.52476635657308,48.25588994642925,28.08437832273631,62.664149008824026,28.08437832273631,47.52476635657308,48.25588994642925,62.664149008824026,-10,-10,10,10,42,32,32,52,52,3.1622776601683795,10,3.1622776601683795,10
8,13,0.1299206999829039,w,50.4,Limited Time,i,30.28972300902432,50.41036127652967,31.88791475673047,68.85471441015898,31.88791475673047,30.28972300902432,50.41036127652967,68.85471441015898,-10,-10,10,10,42,32,32,52,52,3.1622776601683795,10,3.1622776601683795,10
8,14,0.15664609998930246,w,50.3,Limited Time,i,43.52661188369902,50.269450730985184,32.1733108010207,40.00614968754983,32.1733108010207,43.52661188369902,50.269450730985184,40.00614968754983,-10,-10,10,10,42,32,32,52,52,3.1622776601683795,10,3.1622776601683795,10
8,15,0.1078179000178352,w,51.0,Limited Time,i,37.39116805489339,51.001028395291385,30.15663068052713,53.51564969695281,30.15663068052713,37.39116805489339,51.001028395291385,53.51564969695281,-10,-10,10,10,42,32,32,52,52,3.1622776601683795,10,3.1622776601683795,10
8,16,0.15041810006368905,w,48.6,Limited Time,i,19.036909691474726,48.56896335598379,33.46639372006084,56.485730112144076,33.46639372006084,19.036909691474726,48.56896335598379,56.485730112144076,-10,-10,10,10,42,32,32,52,52,3.1622776601683795,10,3.1622776601683795,10
8,17,0.1570810000412166,w,50.7,Limited Time,i,40.0973081690007,50.65136170602637,26.387141201894096,62.06416689838781,26.387141201894096,40.0973081690007,50.65136170602637,62.06416689838781,-10,-10,10,10,42,32,32,52,52,3.1622776601683795,10,3.1622776601683795,10
8,18,0.16023150004912168,w,52.9,Limited Time,i,26.26067040581646,52.937459120203506,34.330408552608795,47.48864408464409,34.330408552608795,26.26067040581646,52.937459120203506,47.48864408464409,-10,-10,10,10,42,32,32,52,52,3.1622776601683795,10,3.1622776601683795,10
8,19,0.14482339995447546,w,50.8,Limited Time,i,37.5376245249865,50.793667341952684,30.173851190588252,68.19471515220857,30.173851190588252,37.5376245249865,50.793667341952684,68.19471515220857,-10,-10,10,10,42,32,32,52,52,3.1622776601683795,10,3.1622776601683795,10
8,20,0.15534089994616807,w,51.7,Limited Time,i,24.03090460426134,51.71051166181982,29.178896715425704,40.8916106692095,29.178896715425704,24.03090460426134,51.71051166181982,40.8916106692095,-10,-10,10,10,42,32,32,52,52,3.1622776601683795,10,3.1622776601683795,10
9,1,0.26851179997902364,q,39.7,Unlimited Time,h,39.73193031447635,61.329099957192405,30.896028998436684,38.51941288655181,38.51941288655181,39.73193031447635,30.896028998436684,61.329099957192405,-10,-0.33,0.33,10,42,32,41.67,42.33,52,10,10,10,10
9,2,0.13419550005346537,w,49.6,Unlimited Time,h,45.50462962591168,49.56106731773914,50.46684688404959,21.56941411029695,21.56941411029695,45.50462962591168,50.46684688404959,49.56106731773914,-10,-0.33,0.33,10,42,32,41.67,42.33,52,10,10,10,10
9,3,0.15045159996952862,o,39.0,Unlimited Time,h,24.740046048586844,36.31603455520457,39.04789168503085,48.610041412050684,48.610041412050684,24.740046048586844,39.04789168503085,36.31603455520457,-10,-0.33,0.33,10,42,32,41.67,42.33,52,10,10,10,10
9,4,0.03962389996740967,p,33.3,Unlimited Time,h,25.692655056659817,46.30405575468088,30.16032597231682,33.27793921409512,33.27793921409512,25.692655056659817,30.16032597231682,46.30405575468088,-10,-0.33,0.33,10,42,32,41.67,42.33,52,10,10,10,10
9,5,0.21913109999150038,w,61.0,Unlimited Time,h,63.310425539356025,60.98206000788284,32.41269082880092,34.274335463340776,34.274335463340776,63.310425539356025,32.41269082880092,60.98206000788284,-10,-0.33,0.33,10,42,32,41.67,42.33,52,10,10,10,10
9,6,0.2420646999962628,w,41.7,Unlimited Time,h,60.030694787837305,41.67210586984575,57.42259189566315,29.421703669876756,29.421703669876756,60.030694787837305,57.42259189566315,41.67210586984575,-10,-0.33,0.33,10,42,32,41.67,42.33,52,10,10,10,10
9,7,0.22983999992720783,w,54.4,Unlimited Time,h,44.45036539457227,54.38561317043824,44.47005175387805,13.233025711314102,13.233025711314102,44.45036539457227,44.47005175387805,54.38561317043824,-10,-0.33,0.33,10,42,32,41.67,42.33,52,10,10,10,10
9,8,0.2775239000329748,w,45.5,Unlimited Time,h,30.211088997653505,45.524228885447805,38.81575957769378,36.6361073482443,36.6361073482443,30.211088997653505,38.81575957769378,45.524228885447805,-10,-0.33,0.33,10,42,32,41.67,42.33,52,10,10,10,10
9,9,0.26859760005027056,w,64.4,Unlimited Time,h,53.605556831465805,64.36015011554767,38.93826262792064,46.86954495157413,46.86954495157413,53.605556831465805,38.93826262792064,64.36015011554767,-10,-0.33,0.33,10,42,32,41.67,42.33,52,10,10,10,10
9,10,0.25101000000722706,w,62.1,Unlimited Time,h,42.44370735091904,62.136182764544664,27.654514735688583,49.24386819765107,49.24386819765107,42.44370735091904,27.654514735688583,62.136182764544664,-10,-0.33,0.33,10,42,32,41.67,42.33,52,10,10,10,10
9,11,0.28010870004072785,w,32.5,Unlimited Time,h,33.09106378377496,32.53512080619029,36.65303226105425,42.99585492539231,42.99585492539231,33.09106378377496,36.65303226105425,32.53512080619029,-10,-0.33,0.33,10,42,32,41.67,42.33,52,10,10,10,10
9,12,0.1328617000253871,o,49.1,Unlimited Time,h,23.470542427527075,42.348216409966895,49.14166171484868,35.36612957169057,35.36612957169057,23.470542427527075,49.14166171484868,42.348216409966895,-10,-0.33,0.33,10,42,32,41.67,42.33,52,10,10,10,10
9,13,1.27493069996126,o,25.3,Unlimited Time,h,35.4598096975446,52.208455830574145,25.33894009425034,19.575008236854988,19.575008236854988,35.4598096975446,25.33894009425034,52.208455830574145,-10,-0.33,0.33,10,42,32,41.67,42.33,52,10,10,10,10
9,14,0.2832314999541268,w,44.0,Unlimited Time,h,58.284295856688146,44.032087318307646,47.040561061856174,56.254926703183756,56.254926703183756,58.284295856688146,47.040561061856174,44.032087318307646,-10,-0.33,0.33,10,42,32,41.67,42.33,52,10,10,10,10
9,15,0.28312509995885193,w,50.7,Unlimited Time,h,49.80930313847277,50.682545125246065,51.301962282909344,50.016374403149264,50.016374403149264,49.80930313847277,51.301962282909344,50.682545125246065,-10,-0.33,0.33,10,42,32,41.67,42.33,52,10,10,10,10
9,16,0.2287460999796167,w,26.2,Unlimited Time,h,46.60546754999227,26.233762696707743,24.24753448519808,34.24164482207221,34.24164482207221,46.60546754999227,24.24753448519808,26.233762696707743,-10,-0.33,0.33,10,42,32,41.67,42.33,52,10,10,10,10
9,17,0.14128740003798157,w,60.1,Unlimited Time,h,44.73704534615717,60.0715052122661,57.06669540578173,52.129057625942636,52.129057625942636,44.73704534615717,57.06669540578173,60.0715052122661,-10,-0.33,0.33,10,42,32,41.67,42.33,52,10,10,10,10
9,18,0.1755941000301391,w,68.6,Unlimited Time,h,39.11348604662569,68.61794678207504,49.96503074965175,45.46027377712762,45.46027377712762,39.11348604662569,49.96503074965175,68.61794678207504,-10,-0.33,0.33,10,42,32,41.67,42.33,52,10,10,10,10
9,19,0.1846390999853611,w,52.6,Unlimited Time,h,30.130100764493676,52.628028875968305,40.63706351630413,49.41204762642902,49.41204762642902,30.130100764493676,40.63706351630413,52.628028875968305,-10,-0.33,0.33,10,42,32,41.67,42.33,52,10,10,10,10
9,20,0.22133420000318438,w,52.2,Unlimited Time,h,20.418892308182876,52.17187799809015,62.82465036571213,37.79572723259354,37.79572723259354,20.418892308182876,62.82465036571213,52.17187799809015,-10,-0.33,0.33,10,42,32,41.67,42.33,52,10,10,10,10
10,1,0.36063680006191134,q,30.7,Limited Time,e,30.72095230915945,63.02022315476049,54.45234715561874,40.26530756951781,40.26530756951781,54.45234715561874,30.72095230915945,63.02022315476049,0,0,0,0,42,42,42,42,42,3.1622776601683795,6.324555320336759,8.366600265340756,10
10,2,0.18414949998259544,w,41.2,Limited Time,e,53.09141823536636,41.23130647349445,39.33042666878053,46.63851379759219,46.63851379759219,39.33042666878053,53.09141823536636,41.23130647349445,0,0,0,0,42,42,42,42,42,3.1622776601683795,6.324555320336759,8.366600265340756,10
10,3,0.18388349993620068,o,42.3,Limited Time,e,44.85084812569569,35.24768490863029,42.33118547445053,42.76324402827276,42.76324402827276,42.33118547445053,44.85084812569569,35.24768490863029,0,0,0,0,42,42,42,42,42,3.1622776601683795,6.324555320336759,8.366600265340756,10
10,4,0.13369090005289763,p,43.7,Limited Time,e,33.05761158142442,54.62853642680292,49.454542840215474,43.65635618722819,43.65635618722819,49.454542840215474,33.05761158142442,54.62853642680292,0,0,0,0,42,42,42,42,42,3.1622776601683795,6.324555320336759,8.366600265340756,10
10,5,0.3103225000668317,o,24.5,Limited Time,e,41.33568494290879,37.549277830471105,24.47623707147291,42.608981251782026,42.608981251782026,24.47623707147291,41.33568494290879,37.549277830471105,0,0,0,0,42,42,42,42,42,3.1622776601683795,6.324555320336759,8.366600265340756,10
10,6,0.15318340004887432,p,39.3,Limited Time,e,45.184587033953065,37.43456907013137,42.088270087477575,39.31948916740074,39.31948916740074,42.088270087477575,45.184587033953065,37.43456907013137,0,0,0,0,42,42,42,42,42,3.1622776601683795,6.324555320336759,8.366600265340756,10
10,7,0.12626460008323193,p,42.5,Limited Time,e,46.63231300353472,25.646517931132816,43.3041241436272,42.51881188988839,42.51881188988839,43.3041241436272,46.63231300353472,25.646517931132816,0,0,0,0,42,42,42,42,42,3.1622776601683795,6.324555320336759,8.366600265340756,10
10,8,0.1299469000659883,p,48.1,Limited Time,e,44.79891071184887,45.477771914744366,48.148295448056174,48.09203558256309,48.09203558256309,48.148295448056174,44.79891071184887,45.477771914744366,0,0,0,0,42,42,42,42,42,3.1622776601683795,6.324555320336759,8.366600265340756,10
10,9,0.12508730008266866,p,46.3,Limited Time,e,36.96388149761433,35.211635779226604,37.252165249787105,46.346227093017504,46.346227093017504,37.252165249787105,36.96388149761433,35.211635779226604,0,0,0,0,42,42,42,42,42,3.1622776601683795,6.324555320336759,8.366600265340756,10
10,10,0.15074800001457334,p,41.5,Limited Time,e,48.869558928268944,36.4533913325603,47.195971599801986,41.4619016684733,41.4619016684733,47.195971599801986,48.869558928268944,36.4533913325603,0,0,0,0,42,42,42,42,42,3.1622776601683795,6.324555320336759,8.366600265340756,10
10,11,0.25203249999321997,p,42.1,Limited Time,e,35.15536679098291,39.50430353079871,31.05660026430231,42.095053311334496,42.095053311334496,31.05660026430231,35.15536679098291,39.50430353079871,0,0,0,0,42,42,42,42,42,3.1622776601683795,6.324555320336759,8.366600265340756,10
10,12,0.1681032000342384,p,43.0,Limited Time,e,27.113802159163072,41.009904740751075,42.767454935905604,42.98874384716385,42.98874384716385,42.767454935905604,27.113802159163072,41.009904740751075,0,0,0,0,42,42,42,42,42,3.1622776601683795,6.324555320336759,8.366600265340756,10
10,13,0.11354490008670837,p,39.8,Limited Time,e,57.45299999879042,39.97657343323899,38.16137774148932,39.78370926301277,39.78370926301277,38.16137774148932,57.45299999879042,39.97657343323899,0,0,0,0,42,42,42,42,42,3.1622776601683795,6.324555320336759,8.366600265340756,10
10,14,0.118491500033997,p,42.6,Limited Time,e,39.222983405748245,43.88183297273198,43.57802857105543,42.641146323590434,42.641146323590434,43.57802857105543,39.222983405748245,43.88183297273198,0,0,0,0,42,42,42,42,42,3.1622776601683795,6.324555320336759,8.366600265340756,10
10,15,0.10355370002798736,p,44.3,Limited Time,e,37.44911176386499,54.54272156662029,39.46231863530198,44.343984461693495,44.343984461693495,39.46231863530198,37.44911176386499,54.54272156662029,0,0,0,0,42,42,42,42,42,3.1622776601683795,6.324555320336759,8.366600265340756,10
10,16,0.16795240005012602,p,37.4,Limited Time,e,33.45595565248898,39.88565373082686,40.34891124049454,37.4026994604111,37.4026994604111,40.34891124049454,33.45595565248898,39.88565373082686,0,0,0,0,42,42,42,42,42,3.1622776601683795,6.324555320336759,8.366600265340756,10
10,17,0.11891820002347231,p,39.1,Limited Time,e,35.852421851185575,32.43588554304885,50.92461659987314,39.14540239348017,39.14540239348017,50.92461659987314,35.852421851185575,32.43588554304885,0,0,0,0,42,42,42,42,42,3.1622776601683795,6.324555320336759,8.366600265340756,10
10,18,0.07662109995726496,p,42.7,Limited Time,e,31.130889024437174,49.97953865278935,33.4166102953224,42.674583667741885,42.674583667741885,33.4166102953224,31.130889024437174,49.97953865278935,0,0,0,0,42,42,42,42,42,3.1622776601683795,6.324555320336759,8.366600265340756,10
10,19,0.1584341999841854,p,44.8,Limited Time,e,34.366025922354694,41.88459051669349,46.338967209712145,44.79453516705645,44.79453516705645,46.338967209712145,34.366025922354694,41.88459051669349,0,0,0,0,42,42,42,42,42,3.1622776601683795,6.324555320336759,8.366600265340756,10
10,20,0.12597219995222986,p,42.5,Limited Time,e,32.174306110936406,38.1829537952373,36.67667110325919,42.49561312903916,42.49561312903916,36.67667110325919,32.174306110936406,38.1829537952373,0,0,0,0,42,42,42,42,42,3.1622776601683795,6.324555320336759,8.366600265340756,10
11,1,0.3204905999591574,q,40.3,Unlimited Time,e,40.26530756951781,54.45234715561874,30.72095230915945,63.02022315476049,40.26530756951781,54.45234715561874,30.72095230915945,63.02022315476049,0,0,0,0,42,42,42,42,42,3.1622776601683795,6.324555320336759,8.366600265340756,10
11,2,0.19524060003459454,w,39.3,Unlimited Time,e,46.63851379759219,39.33042666878053,53.09141823536636,41.23130647349445,46.63851379759219,39.33042666878053,53.09141823536636,41.23130647349445,0,0,0,0,42,42,42,42,42,3.1622776601683795,6.324555320336759,8.366600265340756,10
11,3,0.21639610000420362,o,44.9,Unlimited Time,e,42.76324402827276,42.33118547445053,44.85084812569569,35.24768490863029,42.76324402827276,42.33118547445053,44.85084812569569,35.24768490863029,0,0,0,0,42,42,42,42,42,3.1622776601683795,6.324555320336759,8.366600265340756,10
11,4,0.18050030001904815,p,54.6,Unlimited Time,e,43.65635618722819,49.454542840215474,33.05761158142442,54.62853642680292,43.65635618722819,49.454542840215474,33.05761158142442,54.62853642680292,0,0,0,0,42,42,42,42,42,3.1622776601683795,6.324555320336759,8.366600265340756,10
11,5,0.2536008999450132,p,37.5,Unlimited Time,e,42.608981251782026,24.47623707147291,41.33568494290879,37.549277830471105,42.608981251782026,24.47623707147291,41.33568494290879,37.549277830471105,0,0,0,0,42,42,42,42,42,3.1622776601683795,6.324555320336759,8.366600265340756,10
11,6,0.1922398000024259,p,37.4,Unlimited Time,e,39.31948916740074,42.088270087477575,45.184587033953065,37.43456907013137,39.31948916740074,42.088270087477575,45.184587033953065,37.43456907013137,0,0,0,0,42,42,42,42,42,3.1622776601683795,6.324555320336759,8.366600265340756,10
11,7,0.15623039996717125,p,25.6,Unlimited Time,e,42.51881188988839,43.3041241436272,46.63231300353472,25.646517931132816,42.51881188988839,43.3041241436272,46.63231300353472,25.646517931132816,0,0,0,0,42,42,42,42,42,3.1622776601683795,6.324555320336759,8.366600265340756,10
11,8,0.15676879999227822,p,45.5,Unlimited Time,e,48.09203558256309,48.148295448056174,44.79891071184887,45.477771914744366,48.09203558256309,48.148295448056174,44.79891071184887,45.477771914744366,0,0,0,0,42,42,42,42,42,3.1622776601683795,6.324555320336759,8.366600265340756,10
11,9,0.08313669997733086,o,37.0,Unlimited Time,e,46.346227093017504,37.252165249787105,36.96388149761433,35.211635779226604,46.346227093017504,37.252165249787105,36.96388149761433,35.211635779226604,0,0,0,0,42,42,42,42,42,3.1622776601683795,6.324555320336759,8.366600265340756,10
11,10,0.14177099999506027,o,48.9,Unlimited Time,e,41.4619016684733,47.195971599801986,48.869558928268944,36.4533913325603,41.4619016684733,47.195971599801986,48.869558928268944,36.4533913325603,0,0,0,0,42,42,42,42,42,3.1622776601683795,6.324555320336759,8.366600265340756,10
11,11,0.14712280000094324,o,35.2,Unlimited Time,e,42.095053311334496,31.05660026430231,35.15536679098291,39.50430353079871,42.095053311334496,31.05660026430231,35.15536679098291,39.50430353079871,0,0,0,0,42,42,42,42,42,3.1622776601683795,6.324555320336759,8.366600265340756,10
11,12,0.14188070001546293,o,27.1,Unlimited Time,e,42.98874384716385,42.767454935905604,27.113802159163072,41.009904740751075,42.98874384716385,42.767454935905604,27.113802159163072,41.009904740751075,0,0,0,0,42,42,42,42,42,3.1622776601683795,6.324555320336759,8.366600265340756,10
11,13,0.06422609998844564,o,57.5,Unlimited Time,e,39.78370926301277,38.16137774148932,57.45299999879042,39.97657343323899,39.78370926301277,38.16137774148932,57.45299999879042,39.97657343323899,0,0,0,0,42,42,42,42,42,3.1622776601683795,6.324555320336759,8.366600265340756,10
11,14,0.19409350003115833,o,39.2,Unlimited Time,e,42.641146323590434,43.57802857105543,39.222983405748245,43.88183297273198,42.641146323590434,43.57802857105543,39.222983405748245,43.88183297273198,0,0,0,0,42,42,42,42,42,3.1622776601683795,6.324555320336759,8.366600265340756,10
11,15,0.19711100007407367,o,37.4,Unlimited Time,e,44.343984461693495,39.46231863530198,37.44911176386499,54.54272156662029,44.343984461693495,39.46231863530198,37.44911176386499,54.54272156662029,0,0,0,0,42,42,42,42,42,3.1622776601683795,6.324555320336759,8.366600265340756,10
11,16,0.167708299937658,o,33.5,Unlimited Time,e,37.4026994604111,40.34891124049454,33.45595565248898,39.88565373082686,37.4026994604111,40.34891124049454,33.45595565248898,39.88565373082686,0,0,0,0,42,42,42,42,42,3.1622776601683795,6.324555320336759,8.366600265340756,10
11,17,0.16807220003101975,o,35.9,Unlimited Time,e,39.14540239348017,50.92461659987314,35.852421851185575,32.43588554304885,39.14540239348017,50.92461659987314,35.852421851185575,32.43588554304885,0,0,0,0,42,42,42,42,42,3.1622776601683795,6.324555320336759,8.366600265340756,10
11,18,0.13825810002163053,o,31.1,Unlimited Time,e,42.674583667741885,33.4166102953224,31.130889024437174,49.97953865278935,42.674583667741885,33.4166102953224,31.130889024437174,49.97953865278935,0,0,0,0,42,42,42,42,42,3.1622776601683795,6.324555320336759,8.366600265340756,10
11,19,0.07912639994174242,p,41.9,Unlimited Time,e,44.79453516705645,46.338967209712145,34.366025922354694,41.88459051669349,44.79453516705645,46.338967209712145,34.366025922354694,41.88459051669349,0,0,0,0,42,42,42,42,42,3.1622776601683795,6.324555320336759,8.366600265340756,10
11,20,0.12411590002011508,p,38.2,Unlimited Time,e,42.49561312903916,36.67667110325919,32.174306110936406,38.1829537952373,42.49561312903916,36.67667110325919,32.174306110936406,38.1829537952373,0,0,0,0,42,42,42,42,42,3.1622776601683795,6.324555320336759,8.366600265340756,10
12,1,0.20133119996171445,q,30.9,Limited Time,l,30.916590192210162,53.09078823646167,34.39884451762596,41.99825147800294,30.916590192210162,34.39884451762596,41.99825147800294,53.09078823646167,-10,-0.33,0.33,10,42,32,41.67,42.33,52,3.1622776601683795,3.1622776601683795,3.1622776601683795,3.1622776601683795
12,2,0.1368516000220552,w,52.0,Limited Time,l,34.764629636227575,52.04334418836478,34.805526777856535,48.34144761048536,34.764629636227575,34.805526777856535,48.34144761048536,52.04334418836478,-10,-0.33,0.33,10,42,32,41.67,42.33,52,3.1622776601683795,3.1622776601683795,3.1622776601683795,3.1622776601683795
12,3,0.013993400032632053,o,40.4,Limited Time,l,32.98690071668082,47.610391168222606,40.40410144259275,40.721293559328416,32.98690071668082,40.40410144259275,40.721293559328416,47.610391168222606,-10,-0.33,0.33,10,42,32,41.67,42.33,52,3.1622776601683795,3.1622776601683795,3.1622776601683795,3.1622776601683795
12,4,0.09581049997359514,p,41.5,Limited Time,l,31.85590919980437,51.38218264993144,37.88321764848821,41.54954005339106,31.85590919980437,37.88321764848821,41.54954005339106,51.38218264993144,-10,-0.33,0.33,10,42,32,41.67,42.33,52,3.1622776601683795,3.1622776601683795,3.1622776601683795,3.1622776601683795
12,5,0.08080609992612153,w,48.7,Limited Time,l,33.789685279642015,48.699710387797204,42.78115403403998,43.0606294276508,33.789685279642015,42.78115403403998,43.0606294276508,48.699710387797204,-10,-0.33,0.33,10,42,32,41.67,42.33,52,3.1622776601683795,3.1622776601683795,3.1622776601683795,3.1622776601683795
12,6,0.060460499953478575,w,48.5,Limited Time,l,31.178494724542485,48.53449559938563,36.43357099390462,42.56050481377658,31.178494724542485,36.43357099390462,42.56050481377658,48.53449559938563,-10,-0.33,0.33,10,42,32,41.67,42.33,52,3.1622776601683795,3.1622776601683795,3.1622776601683795,3.1622776601683795
12,7,0.015442000003531575,w,48.9,Limited Time,l,29.27616080923787,48.94993902636631,36.31554135687113,46.551448831009196,29.27616080923787,36.31554135687113,46.551448831009196,48.94993902636631,-10,-0.33,0.33,10,42,32,41.67,42.33,52,3.1622776601683795,3.1622776601683795,3.1622776601683795,3.1622776601683795
12,8,0.018944900017231703,w,49.6,Limited Time,l,31.01534394977543,49.60753560966468,43.51917458955216,41.37463363577971,31.01534394977543,43.51917458955216,41.37463363577971,49.60753560966468,-10,-0.33,0.33,10,42,32,41.67,42.33,52,3.1622776601683795,3.1622776601683795,3.1622776601683795,3.1622776601683795
12,9,0.012646300019696355,w,51.7,Limited Time,l,28.925701105264714,51.669260549579796,43.26207312439413,42.026700761427186,28.925701105264714,43.26207312439413,42.026700761427186,51.669260549579796,-10,-0.33,0.33,10,42,32,41.67,42.33,52,3.1622776601683795,3.1622776601683795,3.1622776601683795,3.1622776601683795
12,10,0.0022099000634625554,w,51.0,Limited Time,l,34.3352422693929,50.96248075909969,44.67206092753943,42.760290709804714,34.3352422693929,44.67206092753943,42.760290709804714,50.96248075909969,-10,-0.33,0.33,10,42,32,41.67,42.33,52,3.1622776601683795,3.1622776601683795,3.1622776601683795,3.1622776601683795
12,11,0.3511818000115454,w,56.3,Limited Time,l,32.23023120644695,56.328996375574576,39.69433425159371,46.4687650937147,32.23023120644695,39.69433425159371,46.4687650937147,56.328996375574576,-10,-0.33,0.33,10,42,32,41.67,42.33,52,3.1622776601683795,3.1622776601683795,3.1622776601683795,3.1622776601683795
12,12,0.023072400013916194,w,50.3,Limited Time,l,25.441688947950013,50.32482278695261,41.68048912216092,41.54023087822933,25.441688947950013,41.68048912216092,41.54023087822933,50.32482278695261,-10,-0.33,0.33,10,42,32,41.67,42.33,52,3.1622776601683795,3.1622776601683795,3.1622776601683795,3.1622776601683795
12,13,,,0.0,Limited Time,l,31.777829385255426,56.303468117442314,36.43715582091884,40.04972299000528,31.777829385255426,36.43715582091884,40.04972299000528,56.303468117442314,-10,-0.33,0.33,10,42,32,41.67,42.33,52,3.1622776601683795,3.1622776601683795,3.1622776601683795,3.1622776601683795
12,14,,,0.0,Limited Time,l,28.691529829289465,46.1040284346385,41.89284291654343,44.61692727672647,28.691529829289465,41.89284291654343,44.61692727672647,46.1040284346385,-10,-0.33,0.33,10,42,32,41.67,42.33,52,3.1622776601683795,3.1622776601683795,3.1622776601683795,3.1622776601683795
12,15,0.3594768000766635,w,56.0,Limited Time,l,36.72112822443485,56.02696608523209,39.14156492532826,34.93736469120369,36.72112822443485,39.14156492532826,34.93736469120369,56.02696608523209,-10,-0.33,0.33,10,42,32,41.67,42.33,52,3.1622776601683795,3.1622776601683795,3.1622776601683795,3.1622776601683795
12,16,0.117039900040254,w,50.8,Limited Time,l,34.6563734121414,50.75017602374029,41.54415322496187,45.259352089460634,34.6563734121414,41.54415322496187,45.259352089460634,50.75017602374029,-10,-0.33,0.33,10,42,32,41.67,42.33,52,3.1622776601683795,3.1622776601683795,3.1622776601683795,3.1622776601683795
12,17,0.12502150004729629,w,48.8,Limited Time,l,29.73287842018551,48.75177594123507,39.63393655002969,41.847589206339826,29.73287842018551,39.63393655002969,41.847589206339826,48.75177594123507,-10,-0.33,0.33,10,42,32,41.67,42.33,52,3.1622776601683795,3.1622776601683795,3.1622776601683795,3.1622776601683795
12,18,0.11661530006676912,w,54.3,Limited Time,l,35.00112476000239,54.30953093913325,42.99790342902847,47.88967917413022,35.00112476000239,42.99790342902847,47.88967917413022,54.30953093913325,-10,-0.33,0.33,10,42,32,41.67,42.33,52,3.1622776601683795,3.1622776601683795,3.1622776601683795,3.1622776601683795
12,19,0.06033689994364977,w,49.9,Limited Time,l,34.64790927016223,49.88237860101124,45.56831016976979,39.033005496785464,34.64790927016223,45.56831016976979,39.033005496785464,49.88237860101124,-10,-0.33,0.33,10,42,32,41.67,42.33,52,3.1622776601683795,3.1622776601683795,3.1622776601683795,3.1622776601683795
12,20,0.07549750001635402,w,47.9,Limited Time,l,32.89319968928341,47.924978623700355,44.812812813747,42.67663804355803,32.89319968928341,44.812812813747,42.67663804355803,47.924978623700355,-10,-0.33,0.33,10,42,32,41.67,42.33,52,3.1622776601683795,3.1622776601683795,3.1622776601683795,3.1622776601683795
13,1,0.2464455000590533,q,54.4,Unlimited Time,i,54.446812513772656,33.64940273264579,49.35803839390649,30.873753337351165,30.873753337351165,33.64940273264579,49.35803839390649,54.446812513772656,-10,-10,10,10,42,32,32,52,52,3.1622776601683795,10,3.1622776601683795,10
13,2,0.10150390001945198,w,48.5,Unlimited Time,i,42.72725127306945,48.49092728342286,52.790204431339326,37.356535032775,37.356535032775,48.49092728342286,52.790204431339326,42.72725127306945,-10,-10,10,10,42,32,32,52,52,3.1622776601683795,10,3.1622776601683795,10
13,3,0.06587129994295537,o,51.7,Unlimited Time,i,40.89134774398016,23.17912594913989,51.72790137004664,30.115632905445477,30.115632905445477,23.17912594913989,51.72790137004664,40.89134774398016,-10,-10,10,10,42,32,32,52,52,3.1622776601683795,10,3.1622776601683795,10
13,4,0.1288102000253275,p,30.7,Unlimited Time,i,25.15210984311198,35.77867517227919,50.62392437655063,30.711439967388802,30.711439967388802,35.77867517227919,50.62392437655063,25.15210984311198,-10,-10,10,10,42,32,32,52,52,3.1622776601683795,10,3.1622776601683795,10
13,5,0.09323390002828091,o,60.1,Unlimited Time,i,34.4000931794097,22.676201300495563,60.11840502398843,30.172434434738776,30.172434434738776,22.676201300495563,60.11840502398843,34.4000931794097,-10,-10,10,10,42,32,32,52,52,3.1622776601683795,10,3.1622776601683795,10
13,6,0.07658630004152656,o,51.1,Unlimited Time,i,52.40354188383631,39.787191019414514,51.088229645281764,34.737889544702604,34.737889544702604,39.787191019414514,51.088229645281764,52.40354188383631,-10,-10,10,10,42,32,32,52,52,3.1622776601683795,10,3.1622776601683795,10
13,7,0.05201790004502982,o,49.5,Unlimited Time,i,31.821932060518378,40.648401098531075,49.47258195958314,33.65965027622505,33.65965027622505,40.648401098531075,49.47258195958314,31.821932060518378,-10,-10,10,10,42,32,32,52,52,3.1622776601683795,10,3.1622776601683795,10
13,8,0.0654391999123618,o,54.7,Unlimited Time,i,39.38781444158886,29.583039790971842,54.74124530299951,35.424774302207844,35.424774302207844,29.583039790971842,54.74124530299951,39.38781444158886,-10,-10,10,10,42,32,32,52,52,3.1622776601683795,10,3.1622776601683795,10
13,9,0.07659670000430197,o,46.0,Unlimited Time,i,49.95550527660064,25.451530912237942,45.988581258748916,29.61426480841659,29.61426480841659,25.451530912237942,45.988581258748916,49.95550527660064,-10,-10,10,10,42,32,32,52,52,3.1622776601683795,10,3.1622776601683795,10
13,10,0.08032090007327497,o,50.6,Unlimited Time,i,49.134963941833206,46.77070637634911,50.55976359706786,29.3570023851605,29.3570023851605,46.77070637634911,50.55976359706786,49.134963941833206,-10,-10,10,10,42,32,32,52,52,3.1622776601683795,10,3.1622776601683795,10
13,11,0.08856750000268221,o,51.4,Unlimited Time,i,37.48718926797053,20.080908643804037,51.350521296338144,36.62002357285847,36.62002357285847,20.080908643804037,51.350521296338144,37.48718926797053,-10,-10,10,10,42,32,32,52,52,3.1622776601683795,10,3.1622776601683795,10
13,12,0.08072009996976703,o,48.3,Unlimited Time,i,62.664149008824026,47.52476635657308,48.25588994642925,28.08437832273631,28.08437832273631,47.52476635657308,48.25588994642925,62.664149008824026,-10,-10,10,10,42,32,32,52,52,3.1622776601683795,10,3.1622776601683795,10
13,13,0.07043389999307692,o,50.4,Unlimited Time,i,68.85471441015898,30.28972300902432,50.41036127652967,31.88791475673047,31.88791475673047,30.28972300902432,50.41036127652967,68.85471441015898,-10,-10,10,10,42,32,32,52,52,3.1622776601683795,10,3.1622776601683795,10
13,14,0.05356839997693896,o,50.3,Unlimited Time,i,40.00614968754983,43.52661188369902,50.269450730985184,32.1733108010207,32.1733108010207,43.52661188369902,50.269450730985184,40.00614968754983,-10,-10,10,10,42,32,32,52,52,3.1622776601683795,10,3.1622776601683795,10
13,15,0.03794450010173023,o,51.0,Unlimited Time,i,53.51564969695281,37.39116805489339,51.001028395291385,30.15663068052713,30.15663068052713,37.39116805489339,51.001028395291385,53.51564969695281,-10,-10,10,10,42,32,32,52,52,3.1622776601683795,10,3.1622776601683795,10
13,16,0.05749059992376715,o,48.6,Unlimited Time,i,56.485730112144076,19.036909691474726,48.56896335598379,33.46639372006084,33.46639372006084,19.036909691474726,48.56896335598379,56.485730112144076,-10,-10,10,10,42,32,32,52,52,3.1622776601683795,10,3.1622776601683795,10
13,17,0.10128750000149012,o,50.7,Unlimited Time,i,62.06416689838781,40.0973081690007,50.65136170602637,26.387141201894096,26.387141201894096,40.0973081690007,50.65136170602637,62.06416689838781,-10,-10,10,10,42,32,32,52,52,3.1622776601683795,10,3.1622776601683795,10
13,18,0.006275800056755543,o,52.9,Unlimited Time,i,47.48864408464409,26.26067040581646,52.937459120203506,34.330408552608795,34.330408552608795,26.26067040581646,52.937459120203506,47.48864408464409,-10,-10,10,10,42,32,32,52,52,3.1622776601683795,10,3.1622776601683795,10
13,19,0.04708129994105548,o,50.8,Unlimited Time,i,68.19471515220857,37.5376245249865,50.793667341952684,30.173851190588252,30.173851190588252,37.5376245249865,50.793667341952684,68.19471515220857,-10,-10,10,10,42,32,32,52,52,3.1622776601683795,10,3.1622776601683795,10
13,20,0.01563359994906932,o,51.7,Unlimited Time,i,40.8916106692095,24.03090460426134,51.71051166181982,29.178896715425704,29.178896715425704,24.03090460426134,51.71051166181982,40.8916106692095,-10,-10,10,10,42,32,32,52,52,3.1622776601683795,10,3.1622776601683795,10
14,1,0.2615886999992654,q,30.9,Limited Time,l,30.916590192210162,41.99825147800294,34.39884451762596,53.09078823646167,30.916590192210162,34.39884451762596,41.99825147800294,53.09078823646167,-10,-0.33,0.33,10,42,32,41.67,42.33,52,3.1622776601683795,3.1622776601683795,3.1622776601683795,3.1622776601683795
14,2,0.03457949997391552,w,48.3,Limited Time,l,34.764629636227575,48.34144761048536,34.805526777856535,52.04334418836478,34.764629636227575,34.805526777856535,48.34144761048536,52.04334418836478,-10,-0.33,0.33,10,42,32,41.67,42.33,52,3.1622776601683795,3.1622776601683795,3.1622776601683795,3.1622776601683795
14,3,,,0.0,Limited Time,l,32.98690071668082,40.721293559328416,40.40410144259275,47.610391168222606,32.98690071668082,40.40410144259275,40.721293559328416,47.610391168222606,-10,-0.33,0.33,10,42,32,41.67,42.33,52,3.1622776601683795,3.1622776601683795,3.1622776601683795,3.1622776601683795
14,4,0.21202710003126413,w,41.5,Limited Time,l,31.85590919980437,41.54954005339106,37.88321764848821,51.38218264993144,31.85590919980437,37.88321764848821,41.54954005339106,51.38218264993144,-10,-0.33,0.33,10,42,32,41.67,42.33,52,3.1622776601683795,3.1622776601683795,3.1622776601683795,3.1622776601683795
14,5,0.07833520008716732,w,43.1,Limited Time,l,33.789685279642015,43.0606294276508,42.78115403403998,48.699710387797204,33.789685279642015,42.78115403403998,43.0606294276508,48.699710387797204,-10,-0.33,0.33,10,42,32,41.67,42.33,52,3.1622776601683795,3.1622776601683795,3.1622776601683795,3.1622776601683795
14,6,0.1425872000399977,w,42.6,Limited Time,l,31.178494724542485,42.56050481377658,36.43357099390462,48.53449559938563,31.178494724542485,36.43357099390462,42.56050481377658,48.53449559938563,-10,-0.33,0.33,10,42,32,41.67,42.33,52,3.1622776601683795,3.1622776601683795,3.1622776601683795,3.1622776601683795
14,7,0.1164048999780789,w,46.6,Limited Time,l,29.27616080923787,46.551448831009196,36.31554135687113,48.94993902636631,29.27616080923787,36.31554135687113,46.551448831009196,48.94993902636631,-10,-0.33,0.33,10,42,32,41.67,42.33,52,3.1622776601683795,3.1622776601683795,3.1622776601683795,3.1622776601683795
14,8,0.0771332000149414,o,43.5,Limited Time,l,31.01534394977543,41.37463363577971,43.51917458955216,49.60753560966468,31.01534394977543,43.51917458955216,41.37463363577971,49.60753560966468,-10,-0.33,0.33,10,42,32,41.67,42.33,52,3.1622776601683795,3.1622776601683795,3.1622776601683795,3.1622776601683795
14,9,0.06041229993570596,o,43.3,Limited Time,l,28.925701105264714,42.026700761427186,43.26207312439413,51.669260549579796,28.925701105264714,43.26207312439413,42.026700761427186,51.669260549579796,-10,-0.33,0.33,10,42,32,41.67,42.33,52,3.1622776601683795,3.1622776601683795,3.1622776601683795,3.1622776601683795
14,10,0.043043000041507185,o,44.7,Limited Time,l,34.3352422693929,42.760290709804714,44.67206092753943,50.96248075909969,34.3352422693929,44.67206092753943,42.760290709804714,50.96248075909969,-10,-0.33,0.33,10,42,32,41.67,42.33,52,3.1622776601683795,3.1622776601683795,3.1622776601683795,3.1622776601683795
14,11,0.08677920000627637,w,46.5,Limited Time,l,32.23023120644695,46.4687650937147,39.69433425159371,56.328996375574576,32.23023120644695,39.69433425159371,46.4687650937147,56.328996375574576,-10,-0.33,0.33,10,42,32,41.67,42.33,52,3.1622776601683795,3.1622776601683795,3.1622776601683795,3.1622776601683795
14,12,0.06751669989898801,w,41.5,Limited Time,l,25.441688947950013,41.54023087822933,41.68048912216092,50.32482278695261,25.441688947950013,41.68048912216092,41.54023087822933,50.32482278695261,-10,-0.33,0.33,10,42,32,41.67,42.33,52,3.1622776601683795,3.1622776601683795,3.1622776601683795,3.1622776601683795
14,13,0.04051720001734793,w,40.0,Limited Time,l,31.777829385255426,40.04972299000528,36.43715582091884,56.303468117442314,31.777829385255426,36.43715582091884,40.04972299000528,56.303468117442314,-10,-0.33,0.33,10,42,32,41.67,42.33,52,3.1622776601683795,3.1622776601683795,3.1622776601683795,3.1622776601683795
14,14,0.053519300068728626,w,44.6,Limited Time,l,28.691529829289465,44.61692727672647,41.89284291654343,46.1040284346385,28.691529829289465,41.89284291654343,44.61692727672647,46.1040284346385,-10,-0.33,0.33,10,42,32,41.67,42.33,52,3.1622776601683795,3.1622776601683795,3.1622776601683795,3.1622776601683795
14,15,,,0.0,Limited Time,l,36.72112822443485,34.93736469120369,39.14156492532826,56.02696608523209,36.72112822443485,39.14156492532826,34.93736469120369,56.02696608523209,-10,-0.33,0.33,10,42,32,41.67,42.33,52,3.1622776601683795,3.1622776601683795,3.1622776601683795,3.1622776601683795
14,16,0.21834719995968044,o,41.5,Limited Time,l,34.6563734121414,45.259352089460634,41.54415322496187,50.75017602374029,34.6563734121414,41.54415322496187,45.259352089460634,50.75017602374029,-10,-0.33,0.33,10,42,32,41.67,42.33,52,3.1622776601683795,3.1622776601683795,3.1622776601683795,3.1622776601683795
14,17,0.04940809996332973,o,39.6,Limited Time,l,29.73287842018551,41.847589206339826,39.63393655002969,48.75177594123507,29.73287842018551,39.63393655002969,41.847589206339826,48.75177594123507,-10,-0.33,0.33,10,42,32,41.67,42.33,52,3.1622776601683795,3.1622776601683795,3.1622776601683795,3.1622776601683795
14,18,0.0939376000314951,o,43.0,Limited Time,l,35.00112476000239,47.88967917413022,42.99790342902847,54.30953093913325,35.00112476000239,42.99790342902847,47.88967917413022,54.30953093913325,-10,-0.33,0.33,10,42,32,41.67,42.33,52,3.1622776601683795,3.1622776601683795,3.1622776601683795,3.1622776601683795
14,19,0.04171210003551096,o,45.6,Limited Time,l,34.64790927016223,39.033005496785464,45.56831016976979,49.88237860101124,34.64790927016223,45.56831016976979,39.033005496785464,49.88237860101124,-10,-0.33,0.33,10,42,32,41.67,42.33,52,3.1622776601683795,3.1622776601683795,3.1622776601683795,3.1622776601683795
14,20,0.0422537000849843,o,44.8,Limited Time,l,32.89319968928341,42.67663804355803,44.812812813747,47.924978623700355,32.89319968928341,44.812812813747,42.67663804355803,47.924978623700355,-10,-0.33,0.33,10,42,32,41.67,42.33,52,3.1622776601683795,3.1622776601683795,3.1622776601683795,3.1622776601683795
15,1,0.3304675000254065,q,33.6,Unlimited Time,i,33.64940273264579,54.446812513772656,30.873753337351165,49.35803839390649,30.873753337351165,33.64940273264579,49.35803839390649,54.446812513772656,-10,-10,10,10,42,32,32,52,52,3.1622776601683795,10,3.1622776601683795,10
15,2,0.05947710003238171,w,42.7,Unlimited Time,i,48.49092728342286,42.72725127306945,37.356535032775,52.790204431339326,37.356535032775,48.49092728342286,52.790204431339326,42.72725127306945,-10,-10,10,10,42,32,32,52,52,3.1622776601683795,10,3.1622776601683795,10
15,3,0.027825600001960993,o,30.1,Unlimited Time,i,23.17912594913989,40.89134774398016,30.115632905445477,51.72790137004664,30.115632905445477,23.17912594913989,51.72790137004664,40.89134774398016,-10,-10,10,10,42,32,32,52,52,3.1622776601683795,10,3.1622776601683795,10
15,4,0.04072940000332892,p,50.6,Unlimited Time,i,35.77867517227919,25.15210984311198,30.711439967388802,50.62392437655063,30.711439967388802,35.77867517227919,50.62392437655063,25.15210984311198,-10,-10,10,10,42,32,32,52,52,3.1622776601683795,10,3.1622776601683795,10
15,5,0.03926730004604906,w,34.4,Unlimited Time,i,22.676201300495563,34.4000931794097,30.172434434738776,60.11840502398843,30.172434434738776,22.676201300495563,60.11840502398843,34.4000931794097,-10,-10,10,10,42,32,32,52,52,3.1622776601683795,10,3.1622776601683795,10
15,6,0.1302259999793023,w,52.4,Unlimited Time,i,39.787191019414514,52.40354188383631,34.737889544702604,51.088229645281764,34.737889544702604,39.787191019414514,51.088229645281764,52.40354188383631,-10,-10,10,10,42,32,32,52,52,3.1622776601683795,10,3.1622776601683795,10
15,7,0.14939499995671213,w,31.8,Unlimited Time,i,40.648401098531075,31.821932060518378,33.65965027622505,49.47258195958314,33.65965027622505,40.648401098531075,49.47258195958314,31.821932060518378,-10,-10,10,10,42,32,32,52,52,3.1622776601683795,10,3.1622776601683795,10
15,8,0.12151820003055036,w,39.4,Unlimited Time,i,29.583039790971842,39.38781444158886,35.424774302207844,54.74124530299951,35.424774302207844,29.583039790971842,54.74124530299951,39.38781444158886,-10,-10,10,10,42,32,32,52,52,3.1622776601683795,10,3.1622776601683795,10
15,9,0.15247400000225753,w,50.0,Unlimited Time,i,25.451530912237942,49.95550527660064,29.61426480841659,45.988581258748916,29.61426480841659,25.451530912237942,45.988581258748916,49.95550527660064,-10,-10,10,10,42,32,32,52,52,3.1622776601683795,10,3.1622776601683795,10
15,10,0.13575160002801567,w,49.1,Unlimited Time,i,46.77070637634911,49.134963941833206,29.3570023851605,50.55976359706786,29.3570023851605,46.77070637634911,50.55976359706786,49.134963941833206,-10,-10,10,10,42,32,32,52,52,3.1622776601683795,10,3.1622776601683795,10
15,11,0.12748040002770722,w,37.5,Unlimited Time,i,20.080908643804037,37.48718926797053,36.62002357285847,51.350521296338144,36.62002357285847,20.080908643804037,51.350521296338144,37.48718926797053,-10,-10,10,10,42,32,32,52,52,3.1622776601683795,10,3.1622776601683795,10
15,12,0.16177730006165802,w,62.7,Unlimited Time,i,47.52476635657308,62.664149008824026,28.08437832273631,48.25588994642925,28.08437832273631,47.52476635657308,48.25588994642925,62.664149008824026,-10,-10,10,10,42,32,32,52,52,3.1622776601683795,10,3.1622776601683795,10
15,13,0.18050010001752526,o,31.9,Unlimited Time,i,30.28972300902432,68.85471441015898,31.88791475673047,50.41036127652967,31.88791475673047,30.28972300902432,50.41036127652967,68.85471441015898,-10,-10,10,10,42,32,32,52,52,3.1622776601683795,10,3.1622776601683795,10
15,14,0.13477090001106262,p,50.3,Unlimited Time,i,43.52661188369902,40.00614968754983,32.1733108010207,50.269450730985184,32.1733108010207,43.52661188369902,50.269450730985184,40.00614968754983,-10,-10,10,10,42,32,32,52,52,3.1622776601683795,10,3.1622776601683795,10
15,15,0.216859900043346,p,51.0,Unlimited Time,i,37.39116805489339,53.51564969695281,30.15663068052713,51.001028395291385,30.15663068052713,37.39116805489339,51.001028395291385,53.51564969695281,-10,-10,10,10,42,32,32,52,52,3.1622776601683795,10,3.1622776601683795,10
15,16,0.14351730002090335,p,48.6,Unlimited Time,i,19.036909691474726,56.485730112144076,33.46639372006084,48.56896335598379,33.46639372006084,19.036909691474726,48.56896335598379,56.485730112144076,-10,-10,10,10,42,32,32,52,52,3.1622776601683795,10,3.1622776601683795,10
15,17,0.13038230000529438,p,50.7,Unlimited Time,i,40.0973081690007,62.06416689838781,26.387141201894096,50.65136170602637,26.387141201894096,40.0973081690007,50.65136170602637,62.06416689838781,-10,-10,10,10,42,32,32,52,52,3.1622776601683795,10,3.1622776601683795,10
15,18,0.09719010000117123,p,52.9,Unlimited Time,i,26.26067040581646,47.48864408464409,34.330408552608795,52.937459120203506,34.330408552608795,26.26067040581646,52.937459120203506,47.48864408464409,-10,-10,10,10,42,32,32,52,52,3.1622776601683795,10,3.1622776601683795,10
15,19,0.14327930007129908,p,50.8,Unlimited Time,i,37.5376245249865,68.19471515220857,30.173851190588252,50.793667341952684,30.173851190588252,37.5376245249865,50.793667341952684,68.19471515220857,-10,-10,10,10,42,32,32,52,52,3.1622776601683795,10,3.1622776601683795,10
15,20,0.12530760001391172,p,51.7,Unlimited Time,i,24.03090460426134,40.8916106692095,29.178896715425704,51.71051166181982,29.178896715425704,24.03090460426134,51.71051166181982,40.8916106692095,-10,-10,10,10,42,32,32,52,52,3.1622776601683795,10,3.1622776601683795,10
16,1,0.1977877999888733,q,63.0,Limited Time,e,63.02022315476049,40.26530756951781,54.45234715561874,30.72095230915945,40.26530756951781,54.45234715561874,30.72095230915945,63.02022315476049,0,0,0,0,42,42,42,42,42,3.1622776601683795,6.324555320336759,8.366600265340756,10
16,2,0.0032023999374359846,w,46.6,Limited Time,e,41.23130647349445,46.63851379759219,39.33042666878053,53.09141823536636,46.63851379759219,39.33042666878053,53.09141823536636,41.23130647349445,0,0,0,0,42,42,42,42,42,3.1622776601683795,6.324555320336759,8.366600265340756,10
16,3,0.08627790003083646,w,42.8,Limited Time,e,35.24768490863029,42.76324402827276,42.33118547445053,44.85084812569569,42.76324402827276,42.33118547445053,44.85084812569569,35.24768490863029,0,0,0,0,42,42,42,42,42,3.1622776601683795,6.324555320336759,8.366600265340756,10
16,4,0.15458249999210238,w,43.7,Limited Time,e,54.62853642680292,43.65635618722819,49.454542840215474,33.05761158142442,43.65635618722819,49.454542840215474,33.05761158142442,54.62853642680292,0,0,0,0,42,42,42,42,42,3.1622776601683795,6.324555320336759,8.366600265340756,10
16,5,,,0.0,Limited Time,e,37.549277830471105,42.608981251782026,24.47623707147291,41.33568494290879,42.608981251782026,24.47623707147291,41.33568494290879,37.549277830471105,0,0,0,0,42,42,42,42,42,3.1622776601683795,6.324555320336759,8.366600265340756,10
16,6,0.253956799977459,o,42.1,Limited Time,e,37.43456907013137,39.31948916740074,42.088270087477575,45.184587033953065,39.31948916740074,42.088270087477575,45.184587033953065,37.43456907013137,0,0,0,0,42,42,42,42,42,3.1622776601683795,6.324555320336759,8.366600265340756,10
16,7,0.11187180003616959,o,43.3,Limited Time,e,25.646517931132816,42.51881188988839,43.3041241436272,46.63231300353472,42.51881188988839,43.3041241436272,46.63231300353472,25.646517931132816,0,0,0,0,42,42,42,42,42,3.1622776601683795,6.324555320336759,8.366600265340756,10
16,8,0.061439999961294234,o,48.1,Limited Time,e,45.477771914744366,48.09203558256309,48.148295448056174,44.79891071184887,48.09203558256309,48.148295448056174,44.79891071184887,45.477771914744366,0,0,0,0,42,42,42,42,42,3.1622776601683795,6.324555320336759,8.366600265340756,10
16,9,0.06558950000908226,w,46.3,Limited Time,e,35.211635779226604,46.346227093017504,37.252165249787105,36.96388149761433,46.346227093017504,37.252165249787105,36.96388149761433,35.211635779226604,0,0,0,0,42,42,42,42,42,3.1622776601683795,6.324555320336759,8.366600265340756,10
16,10,0.05971169995609671,w,41.5,Limited Time,e,36.4533913325603,41.4619016684733,47.195971599801986,48.869558928268944,41.4619016684733,47.195971599801986,48.869558928268944,36.4533913325603,0,0,0,0,42,42,42,42,42,3.1622776601683795,6.324555320336759,8.366600265340756,10
16,11,0.03769979998469353,w,42.1,Limited Time,e,39.50430353079871,42.095053311334496,31.05660026430231,35.15536679098291,42.095053311334496,31.05660026430231,35.15536679098291,39.50430353079871,0,0,0,0,42,42,42,42,42,3.1622776601683795,6.324555320336759,8.366600265340756,10
16,12,,,0.0,Limited Time,e,41.009904740751075,42.98874384716385,42.767454935905604,27.113802159163072,42.98874384716385,42.767454935905604,27.113802159163072,41.009904740751075,0,0,0,0,42,42,42,42,42,3.1622776601683795,6.324555320336759,8.366600265340756,10
16,13,0.24529990006703883,o,38.2,Limited Time,e,39.97657343323899,39.78370926301277,38.16137774148932,57.45299999879042,39.78370926301277,38.16137774148932,57.45299999879042,39.97657343323899,0,0,0,0,42,42,42,42,42,3.1622776601683795,6.324555320336759,8.366600265340756,10
16,14,0.09845130005851388,o,43.6,Limited Time,e,43.88183297273198,42.641146323590434,43.57802857105543,39.222983405748245,42.641146323590434,43.57802857105543,39.222983405748245,43.88183297273198,0,0,0,0,42,42,42,42,42,3.1622776601683795,6.324555320336759,8.366600265340756,10
16,15,0.10581839992664754,o,39.5,Limited Time,e,54.54272156662029,44.343984461693495,39.46231863530198,37.44911176386499,44.343984461693495,39.46231863530198,37.44911176386499,54.54272156662029,0,0,0,0,42,42,42,42,42,3.1622776601683795,6.324555320336759,8.366600265340756,10
16,16,0.07550049992278218,o,40.3,Limited Time,e,39.88565373082686,37.4026994604111,40.34891124049454,33.45595565248898,37.4026994604111,40.34891124049454,33.45595565248898,39.88565373082686,0,0,0,0,42,42,42,42,42,3.1622776601683795,6.324555320336759,8.366600265340756,10
16,17,0.04850479995366186,o,50.9,Limited Time,e,32.43588554304885,39.14540239348017,50.92461659987314,35.852421851185575,39.14540239348017,50.92461659987314,35.852421851185575,32.43588554304885,0,0,0,0,42,42,42,42,42,3.1622776601683795,6.324555320336759,8.366600265340756,10
16,18,0.030625100014731288,o,33.4,Limited Time,e,49.97953865278935,42.674583667741885,33.4166102953224,31.130889024437174,42.674583667741885,33.4166102953224,31.130889024437174,49.97953865278935,0,0,0,0,42,42,42,42,42,3.1622776601683795,6.324555320336759,8.366600265340756,10
16,19,0.03755699994508177,o,46.3,Limited Time,e,41.88459051669349,44.79453516705645,46.338967209712145,34.366025922354694,44.79453516705645,46.338967209712145,34.366025922354694,41.88459051669349,0,0,0,0,42,42,42,42,42,3.1622776601683795,6.324555320336759,8.366600265340756,10
16,20,0.08668009995017201,o,36.7,Limited Time,e,38.1829537952373,42.49561312903916,36.67667110325919,32.174306110936406,42.49561312903916,36.67667110325919,32.174306110936406,38.1829537952373,0,0,0,0,42,42,42,42,42,3.1622776601683795,6.324555320336759,8.366600265340756,10
