Round Number,Trial Number,Reaction Time,Choice,Reward (Health Points),Time Condition,Payoff Condition,Q mapped,W mapped,O mapped,P mapped,One value,Two value,Three value,Four value,One mean,Two mean,Three mean,Four mean,Mean Shift,One shifted mean,Two shifted mean,Three shifted mean,Four shifted mean,One SD,Two SD,Three SD,Four SD
1,1,0.7527371999894967,w,42.9,Unlimited Time,e,35.5010905823472,42.85124423752515,39.455106065732174,23.032853303073313,35.5010905823472,39.455106065732174,23.032853303073313,42.85124423752515,0,0,0,0,33,33,33,33,33,3.1622776601683795,6.324555320336759,8.366600265340756,10
1,2,2.1451422999962233,o,38.1,Unlimited Time,e,38.096327560328554,16.51893156522983,38.05138311311722,32.70891891458638,38.096327560328554,38.05138311311722,32.70891891458638,16.51893156522983,0,0,0,0,33,33,33,33,33,3.1622776601683795,6.324555320336759,8.366600265340756,10
1,3,2.109205999993719,p,27.5,Unlimited Time,e,31.040270602265526,10.12153033260078,49.3709406007258,27.450663360768075,31.040270602265526,49.3709406007258,27.450663360768075,10.12153033260078,0,0,0,0,33,33,33,33,33,3.1622776601683795,6.324555320336759,8.366600265340756,10
1,4,1.9198087999975542,q,35.0,Unlimited Time,e,35.01808790441329,23.801801815132695,25.26503340498867,26.2873751749341,35.01808790441329,25.26503340498867,26.2873751749341,23.801801815132695,0,0,0,0,33,33,33,33,33,3.1622776601683795,6.324555320336759,8.366600265340756,10
1,5,1.6349368999945,p,45.8,Unlimited Time,e,33.224508653330986,17.078577403446324,31.695022245475894,45.84462934729344,33.224508653330986,31.695022245475894,45.84462934729344,17.078577403446324,0,0,0,0,33,33,33,33,33,3.1622776601683795,6.324555320336759,8.366600265340756,10
1,6,1.5660164000000805,o,27.7,Unlimited Time,e,37.446626133490305,31.58949407608591,27.657022468529817,36.109951784156834,37.446626133490305,27.657022468529817,36.109951784156834,31.58949407608591,0,0,0,0,33,33,33,33,33,3.1622776601683795,6.324555320336759,8.366600265340756,10
1,7,1.1642511000100058,w,46.2,Unlimited Time,e,31.905365363905737,46.22545134988214,31.30703928847841,41.29349870963051,31.905365363905737,31.30703928847841,41.29349870963051,46.22545134988214,0,0,0,0,33,33,33,33,33,3.1622776601683795,6.324555320336759,8.366600265340756,10
1,8,1.4291565000021365,o,37.1,Unlimited Time,e,30.189341762866604,24.55813696392886,37.09154197864113,34.867558004947185,30.189341762866604,37.09154197864113,34.867558004947185,24.55813696392886,0,0,0,0,33,33,33,33,33,3.1622776601683795,6.324555320336759,8.366600265340756,10
1,9,1.0864938999875449,q,27.1,Unlimited Time,e,27.088335760267732,62.56045303966443,29.904494714751266,39.421220429845846,27.088335760267732,29.904494714751266,39.421220429845846,62.56045303966443,0,0,0,0,33,33,33,33,33,3.1622776601683795,6.324555320336759,8.366600265340756,10
1,10,1.1110596999933477,p,24.6,Unlimited Time,e,26.644716562918223,21.84446921136986,34.1254917164619,24.570442959546547,26.644716562918223,34.1254917164619,24.570442959546547,21.84446921136986,0,0,0,0,33,33,33,33,33,3.1622776601683795,6.324555320336759,8.366600265340756,10
1,11,0.7904305999982171,w,27.1,Unlimited Time,e,32.01691975006354,27.050905260829715,38.375475283158835,36.99049099715862,32.01691975006354,38.375475283158835,36.99049099715862,27.050905260829715,0,0,0,0,33,33,33,33,33,3.1622776601683795,6.324555320336759,8.366600265340756,10
1,12,0.7829052999877604,o,26.8,Unlimited Time,e,30.448690135883442,43.14131346293606,26.841127787877916,25.335498358376306,30.448690135883442,26.841127787877916,25.335498358376306,43.14131346293606,0,0,0,0,33,33,33,33,33,3.1622776601683795,6.324555320336759,8.366600265340756,10
1,13,0.8129426000086823,q,32.4,Unlimited Time,e,32.38560351110274,33.19138900852224,35.5398274064093,38.688877103937216,32.38560351110274,35.5398274064093,38.688877103937216,33.19138900852224,0,0,0,0,33,33,33,33,33,3.1622776601683795,6.324555320336759,8.366600265340756,10
1,14,0.7532072000030894,p,41.7,Unlimited Time,e,35.22771261539503,27.256398064259216,35.83946400670512,41.68800315343662,35.22771261539503,35.83946400670512,41.68800315343662,27.256398064259216,0,0,0,0,33,33,33,33,33,3.1622776601683795,6.324555320336759,8.366600265340756,10
1,15,0.6583816999918781,o,36.9,Unlimited Time,e,36.140599023917716,41.59878565624754,36.91475939512001,37.49459209252182,36.140599023917716,36.91475939512001,37.49459209252182,41.59878565624754,0,0,0,0,33,33,33,33,33,3.1622776601683795,6.324555320336759,8.366600265340756,10
1,16,1.285928999990574,p,39.1,Unlimited Time,e,38.58996803101947,28.681119181761744,34.461528236586865,39.14787895385786,38.58996803101947,34.461528236586865,39.14787895385786,28.681119181761744,0,0,0,0,33,33,33,33,33,3.1622776601683795,6.324555320336759,8.366600265340756,10
1,17,0.6991056999977445,w,22.7,Unlimited Time,e,34.14095081963269,22.65919818705618,35.44478284248868,24.75587837681981,34.14095081963269,35.44478284248868,24.75587837681981,22.65919818705618,0,0,0,0,33,33,33,33,33,3.1622776601683795,6.324555320336759,8.366600265340756,10
1,18,0.9193979999981821,p,32.6,Unlimited Time,e,35.221719016459545,43.17725561247869,24.57652092293598,32.63749776315692,35.221719016459545,24.57652092293598,32.63749776315692,43.17725561247869,0,0,0,0,33,33,33,33,33,3.1622776601683795,6.324555320336759,8.366600265340756,10
1,19,0.6874784999963595,q,34.8,Unlimited Time,e,34.78916734226844,22.205478018114654,37.59061050073991,31.811609978738993,34.78916734226844,37.59061050073991,31.811609978738993,22.205478018114654,0,0,0,0,33,33,33,33,33,3.1622776601683795,6.324555320336759,8.366600265340756,10
1,20,0.6103949999960605,p,17.2,Unlimited Time,e,34.38777824909611,42.960085037571076,26.56332316498468,17.15466713894333,34.38777824909611,26.56332316498468,17.15466713894333,42.960085037571076,0,0,0,0,33,33,33,33,33,3.1622776601683795,6.324555320336759,8.366600265340756,10
2,1,0.21971299999859184,w,44.9,Limited Time - 400ms,h,20.751283710575173,44.91298919820454,18.157026170372095,26.98197717608414,18.157026170372095,20.751283710575173,26.98197717608414,44.91298919820454,-10,-0.33,0.33,10,33,23,32.67,33.33,43,10,10,10,10
2,2,0.3242381000018213,w,24.6,Limited Time - 400ms,h,14.40942686127044,24.566786606959354,24.401037345947174,29.001562102440737,24.401037345947174,14.40942686127044,29.001562102440737,24.566786606959354,-10,-0.33,0.33,10,33,23,32.67,33.33,43,10,10,10,10
2,3,0.34232530000736006,p,26.3,Limited Time - 400ms,h,30.35649426380974,36.566775291024435,24.50427134776494,26.30766948580807,24.50427134776494,30.35649426380974,26.30766948580807,36.566775291024435,-10,-0.33,0.33,10,33,23,32.67,33.33,43,10,10,10,10
2,4,,,0.0,Limited Time - 400ms,h,21.242533139499077,45.18203519695806,25.12880036974322,28.8679042428183,25.12880036974322,21.242533139499077,28.8679042428183,45.18203519695806,-10,-0.33,0.33,10,33,23,32.67,33.33,43,10,10,10,10
2,5,0.3071790999965742,q,29.9,Limited Time - 400ms,h,29.869634551791304,47.52456993970553,36.49430606125724,22.396616857730546,36.49430606125724,29.869634551791304,22.396616857730546,47.52456993970553,-10,-0.33,0.33,10,33,23,32.67,33.33,43,10,10,10,10
2,6,0.3638709000078961,p,27.1,Limited Time - 400ms,h,37.288219953548754,33.850573675711686,23.616206238937345,27.135339649773485,23.616206238937345,37.288219953548754,27.135339649773485,33.850573675711686,-10,-0.33,0.33,10,33,23,32.67,33.33,43,10,10,10,10
2,7,0.33265250000113156,w,34.7,Limited Time - 400ms,h,27.000102267735826,34.68984930543058,18.421241486347288,25.812759789912747,18.421241486347288,27.000102267735826,25.812759789912747,34.68984930543058,-10,-0.33,0.33,10,33,23,32.67,33.33,43,10,10,10,10
2,8,0.34481029999733437,o,10.7,Limited Time - 400ms,h,48.72086902110334,47.90811614039039,10.679498187823983,30.54491064203533,10.679498187823983,48.72086902110334,30.54491064203533,47.90811614039039,-10,-0.33,0.33,10,33,23,32.67,33.33,43,10,10,10,10
2,9,0.29390249999414664,q,51.6,Limited Time - 400ms,h,51.60735772807627,42.725522954140075,9.877784474852122,46.46796170565092,9.877784474852122,51.60735772807627,46.46796170565092,42.725522954140075,-10,-0.33,0.33,10,33,23,32.67,33.33,43,10,10,10,10
2,10,,,0.0,Limited Time - 400ms,h,9.256044336845534,60.08361679270913,20.625149879345962,38.98905730184109,20.625149879345962,9.256044336845534,38.98905730184109,60.08361679270913,-10,-0.33,0.33,10,33,23,32.67,33.33,43,10,10,10,10
2,11,0.36430879999534227,w,36.6,Limited Time - 400ms,h,30.465008257211785,36.5913671215717,19.067342935814533,46.353690494894806,19.067342935814533,30.465008257211785,46.353690494894806,36.5913671215717,-10,-0.33,0.33,10,33,23,32.67,33.33,43,10,10,10,10
2,12,,,0.0,Limited Time - 400ms,h,16.72359481469007,38.49240603094548,17.657039183658263,30.184284445934914,17.657039183658263,16.72359481469007,30.184284445934914,38.49240603094548,-10,-0.33,0.33,10,33,23,32.67,33.33,43,10,10,10,10
2,13,,,0.0,Limited Time - 400ms,h,41.52300573374151,58.86530324205124,14.921502198174288,38.592099288941306,14.921502198174288,41.52300573374151,38.592099288941306,58.86530324205124,-10,-0.33,0.33,10,33,23,32.67,33.33,43,10,10,10,10
2,14,0.37860969999746885,o,26.1,Limited Time - 400ms,h,14.531821621166284,44.75901748857281,26.10172950935535,15.665717545198326,26.10172950935535,14.531821621166284,15.665717545198326,44.75901748857281,-10,-0.33,0.33,10,33,23,32.67,33.33,43,10,10,10,10
2,15,0.3170666999940295,p,25.7,Limited Time - 400ms,h,50.22446522388583,50.10453987363869,21.07548700791641,25.67153701425937,21.07548700791641,50.22446522388583,25.67153701425937,50.10453987363869,-10,-0.33,0.33,10,33,23,32.67,33.33,43,10,10,10,10
2,16,0.2996656999894185,q,39.9,Limited Time - 400ms,h,39.86487971744981,46.17812130958061,13.901011785506817,16.95719357179458,13.901011785506817,39.86487971744981,16.95719357179458,46.17812130958061,-10,-0.33,0.33,10,33,23,32.67,33.33,43,10,10,10,10
2,17,0.2928976999974111,o,11.4,Limited Time - 400ms,h,40.55457555282058,45.09387278336503,11.422322402062779,28.690135452314365,11.422322402062779,40.55457555282058,28.690135452314365,45.09387278336503,-10,-0.33,0.33,10,33,23,32.67,33.33,43,10,10,10,10
2,18,,,0.0,Limited Time - 400ms,h,22.529391610951095,40.743268568008226,18.590604817833057,40.22693593424503,18.590604817833057,22.529391610951095,40.22693593424503,40.743268568008226,-10,-0.33,0.33,10,33,23,32.67,33.33,43,10,10,10,10
2,19,,,0.0,Limited Time - 400ms,h,55.03898329959727,45.67130584628735,10.250644757300286,23.13019784579737,10.250644757300286,55.03898329959727,23.13019784579737,45.67130584628735,-10,-0.33,0.33,10,33,23,32.67,33.33,43,10,10,10,10
2,20,,,0.0,Limited Time - 400ms,h,19.944699474746596,44.60493430198809,29.802661350857548,41.24287807949405,29.802661350857548,19.944699474746596,41.24287807949405,44.60493430198809,-10,-0.33,0.33,10,33,23,32.67,33.33,43,10,10,10,10
3,1,0.6479660000040894,w,18.2,Limited Time - 800ms,h,26.98197717608414,18.157026170372095,44.91298919820454,20.751283710575173,18.157026170372095,20.751283710575173,26.98197717608414,44.91298919820454,-10,-0.33,0.33,10,33,23,32.67,33.33,43,10,10,10,10
3,2,0.5122004000004381,p,14.4,Limited Time - 800ms,h,29.001562102440737,24.401037345947174,24.566786606959354,14.40942686127044,24.401037345947174,14.40942686127044,29.001562102440737,24.566786606959354,-10,-0.33,0.33,10,33,23,32.67,33.33,43,10,10,10,10
3,3,0.6986603999976069,w,24.5,Limited Time - 800ms,h,26.30766948580807,24.50427134776494,36.566775291024435,30.35649426380974,24.50427134776494,30.35649426380974,26.30766948580807,36.566775291024435,-10,-0.33,0.33,10,33,23,32.67,33.33,43,10,10,10,10
3,4,,,0.0,Limited Time - 800ms,h,28.8679042428183,25.12880036974322,45.18203519695806,21.242533139499077,25.12880036974322,21.242533139499077,28.8679042428183,45.18203519695806,-10,-0.33,0.33,10,33,23,32.67,33.33,43,10,10,10,10
3,5,,,0.0,Limited Time - 800ms,h,22.396616857730546,36.49430606125724,47.52456993970553,29.869634551791304,36.49430606125724,29.869634551791304,22.396616857730546,47.52456993970553,-10,-0.33,0.33,10,33,23,32.67,33.33,43,10,10,10,10
3,6,,,0.0,Limited Time - 800ms,h,27.135339649773485,23.616206238937345,33.850573675711686,37.288219953548754,23.616206238937345,37.288219953548754,27.135339649773485,33.850573675711686,-10,-0.33,0.33,10,33,23,32.67,33.33,43,10,10,10,10
3,7,0.6658473999996204,o,34.7,Limited Time - 800ms,h,25.812759789912747,18.421241486347288,34.68984930543058,27.000102267735826,18.421241486347288,27.000102267735826,25.812759789912747,34.68984930543058,-10,-0.33,0.33,10,33,23,32.67,33.33,43,10,10,10,10
3,8,0.6647966000018641,w,10.7,Limited Time - 800ms,h,30.54491064203533,10.679498187823983,47.90811614039039,48.72086902110334,10.679498187823983,48.72086902110334,30.54491064203533,47.90811614039039,-10,-0.33,0.33,10,33,23,32.67,33.33,43,10,10,10,10
3,9,0.5853730999951949,p,51.6,Limited Time - 800ms,h,46.46796170565092,9.877784474852122,42.725522954140075,51.60735772807627,9.877784474852122,51.60735772807627,46.46796170565092,42.725522954140075,-10,-0.33,0.33,10,33,23,32.67,33.33,43,10,10,10,10
3,10,0.6785437000071397,q,39.0,Limited Time - 800ms,h,38.98905730184109,20.625149879345962,60.08361679270913,9.256044336845534,20.625149879345962,9.256044336845534,38.98905730184109,60.08361679270913,-10,-0.33,0.33,10,33,23,32.67,33.33,43,10,10,10,10
3,11,0.5923983999964548,o,36.6,Limited Time - 800ms,h,46.353690494894806,19.067342935814533,36.5913671215717,30.465008257211785,19.067342935814533,30.465008257211785,46.353690494894806,36.5913671215717,-10,-0.33,0.33,10,33,23,32.67,33.33,43,10,10,10,10
3,12,0.50881610000215,w,17.7,Limited Time - 800ms,h,30.184284445934914,17.657039183658263,38.49240603094548,16.72359481469007,17.657039183658263,16.72359481469007,30.184284445934914,38.49240603094548,-10,-0.33,0.33,10,33,23,32.67,33.33,43,10,10,10,10
3,13,0.418175999991945,p,41.5,Limited Time - 800ms,h,38.592099288941306,14.921502198174288,58.86530324205124,41.52300573374151,14.921502198174288,41.52300573374151,38.592099288941306,58.86530324205124,-10,-0.33,0.33,10,33,23,32.67,33.33,43,10,10,10,10
3,14,0.700111600002856,q,15.7,Limited Time - 800ms,h,15.665717545198326,26.10172950935535,44.75901748857281,14.531821621166284,26.10172950935535,14.531821621166284,15.665717545198326,44.75901748857281,-10,-0.33,0.33,10,33,23,32.67,33.33,43,10,10,10,10
3,15,0.48782809999829624,w,21.1,Limited Time - 800ms,h,25.67153701425937,21.07548700791641,50.10453987363869,50.22446522388583,21.07548700791641,50.22446522388583,25.67153701425937,50.10453987363869,-10,-0.33,0.33,10,33,23,32.67,33.33,43,10,10,10,10
3,16,,,0.0,Limited Time - 800ms,h,16.95719357179458,13.901011785506817,46.17812130958061,39.86487971744981,13.901011785506817,39.86487971744981,16.95719357179458,46.17812130958061,-10,-0.33,0.33,10,33,23,32.67,33.33,43,10,10,10,10
3,17,0.4952690999925835,p,40.6,Limited Time - 800ms,h,28.690135452314365,11.422322402062779,45.09387278336503,40.55457555282058,11.422322402062779,40.55457555282058,28.690135452314365,45.09387278336503,-10,-0.33,0.33,10,33,23,32.67,33.33,43,10,10,10,10
3,18,0.6075138000014704,q,40.2,Limited Time - 800ms,h,40.22693593424503,18.590604817833057,40.743268568008226,22.529391610951095,18.590604817833057,22.529391610951095,40.22693593424503,40.743268568008226,-10,-0.33,0.33,10,33,23,32.67,33.33,43,10,10,10,10
3,19,0.5686054999969201,o,45.7,Limited Time - 800ms,h,23.13019784579737,10.250644757300286,45.67130584628735,55.03898329959727,10.250644757300286,55.03898329959727,23.13019784579737,45.67130584628735,-10,-0.33,0.33,10,33,23,32.67,33.33,43,10,10,10,10
3,20,0.38048769999295473,p,19.9,Limited Time - 800ms,h,41.24287807949405,29.802661350857548,44.60493430198809,19.944699474746596,29.802661350857548,19.944699474746596,41.24287807949405,44.60493430198809,-10,-0.33,0.33,10,33,23,32.67,33.33,43,10,10,10,10
4,1,0.6355095000035362,w,24.8,Unlimited Time,i,44.75162453804214,24.82957661365718,39.72368423732669,15.686054848980097,24.82957661365718,15.686054848980097,39.72368423732669,44.75162453804214,-10,-10,10,10,33,23,23,43,43,3.1622776601683795,10,3.1622776601683795,10
4,2,0.5176585000008345,p,20.4,Unlimited Time,i,34.63549417967912,22.828709618945158,45.48371721401961,20.36743159091599,22.828709618945158,20.36743159091599,45.48371721401961,34.63549417967912,-10,-10,10,10,33,23,23,43,43,3.1622776601683795,10,3.1622776601683795,10
4,3,0.5964132999943104,w,17.1,Unlimited Time,i,48.39449136477516,17.089425825838195,46.59188299412777,20.582015451191406,17.089425825838195,20.582015451191406,46.59188299412777,48.39449136477516,-10,-10,10,10,33,23,23,43,43,3.1622776601683795,10,3.1622776601683795,10
4,4,0.3262665999936871,o,38.6,Unlimited Time,i,48.58474644978433,22.048961794235186,38.61253506018377,31.046157021935585,22.048961794235186,31.046157021935585,38.61253506018377,48.58474644978433,-10,-10,10,10,33,23,23,43,43,3.1622776601683795,10,3.1622776601683795,10
4,5,0.8413235000043642,p,28.7,Unlimited Time,i,57.71096572018649,22.76731033849673,48.07416799412498,28.715035215901842,22.76731033849673,28.715035215901842,48.07416799412498,57.71096572018649,-10,-10,10,10,33,23,23,43,43,3.1622776601683795,10,3.1622776601683795,10
4,6,0.48980809999920893,q,42.6,Unlimited Time,i,42.57252940451922,23.319747803734124,44.45048128723419,10.974537700235057,23.319747803734124,10.974537700235057,44.45048128723419,42.57252940451922,-10,-10,10,10,33,23,23,43,43,3.1622776601683795,10,3.1622776601683795,10
4,7,1.0622104000067338,w,21.7,Unlimited Time,i,35.77458495040864,21.747602530437007,43.74600590113182,19.40046707638829,21.747602530437007,19.40046707638829,43.74600590113182,35.77458495040864,-10,-10,10,10,33,23,23,43,43,3.1622776601683795,10,3.1622776601683795,10
4,8,0.5629537000058917,p,10.1,Unlimited Time,i,54.58562836394096,22.727456454329193,44.1651112225717,10.08847714197502,22.727456454329193,10.08847714197502,44.1651112225717,54.58562836394096,-10,-10,10,10,33,23,23,43,43,3.1622776601683795,10,3.1622776601683795,10
4,9,1.4811789999948815,o,42.3,Unlimited Time,i,35.10201310597007,25.23433565602587,42.339185205017934,15.590227231986876,25.23433565602587,15.590227231986876,42.339185205017934,35.10201310597007,-10,-10,10,10,33,23,23,43,43,3.1622776601683795,10,3.1622776601683795,10
4,10,4.823794399999315,w,27.1,Unlimited Time,i,47.37541017205061,27.06845699045502,42.37811331821809,17.021036783396152,27.06845699045502,17.021036783396152,42.37811331821809,47.37541017205061,-10,-10,10,10,33,23,23,43,43,3.1622776601683795,10,3.1622776601683795,10
4,11,0.7019747000013012,p,19.1,Unlimited Time,i,31.310148083823726,24.9610886399851,50.05536896077386,19.139430758728512,24.9610886399851,19.139430758728512,50.05536896077386,31.310148083823726,-10,-10,10,10,33,23,23,43,43,3.1622776601683795,10,3.1622776601683795,10
4,12,0.5075263000035193,w,20.6,Unlimited Time,i,42.65312627792627,20.552503749285815,44.61644920278241,8.622867090375099,20.552503749285815,8.622867090375099,44.61644920278241,42.65312627792627,-10,-10,10,10,33,23,23,43,43,3.1622776601683795,10,3.1622776601683795,10
4,13,0.3462017999991076,o,40.8,Unlimited Time,i,41.8259695781648,25.808665301145453,40.84265327245301,20.529241340825106,25.808665301145453,20.529241340825106,40.84265327245301,41.8259695781648,-10,-10,10,10,33,23,23,43,43,3.1622776601683795,10,3.1622776601683795,10
4,14,1.3890646999934688,p,31.9,Unlimited Time,i,29.105020293916905,20.078214014435638,41.152688369549146,31.92532025439797,20.078214014435638,31.92532025439797,41.152688369549146,29.105020293916905,-10,-10,10,10,33,23,23,43,43,3.1622776601683795,10,3.1622776601683795,10
4,15,1.0761816000012914,w,22.0,Unlimited Time,i,31.337379929576326,22.026330321611056,42.774302337871084,22.478344916305616,22.026330321611056,22.478344916305616,42.774302337871084,31.337379929576326,-10,-10,10,10,33,23,23,43,43,3.1622776601683795,10,3.1622776601683795,10
4,16,0.47188520000781864,o,49.0,Unlimited Time,i,46.02433971975746,24.379408693945905,49.030062332294,35.38367062437814,24.379408693945905,35.38367062437814,49.030062332294,46.02433971975746,-10,-10,10,10,33,23,23,43,43,3.1622776601683795,10,3.1622776601683795,10
4,17,0.9479194000014104,p,13.8,Unlimited Time,i,30.85773800170367,22.403065306978156,41.28483727876646,13.796942795213385,22.403065306978156,13.796942795213385,41.28483727876646,30.85773800170367,-10,-10,10,10,33,23,23,43,43,3.1622776601683795,10,3.1622776601683795,10
4,18,0.9228432999952929,q,45.4,Unlimited Time,i,45.36540994707051,17.068755505130937,42.406653648253844,19.956162160822238,17.068755505130937,19.956162160822238,42.406653648253844,45.36540994707051,-10,-10,10,10,33,23,23,43,43,3.1622776601683795,10,3.1622776601683795,10
4,19,0.6172722000046633,o,45.5,Unlimited Time,i,36.70031487804659,23.709166740896574,45.486818446074835,19.23211345982305,23.709166740896574,19.23211345982305,45.486818446074835,36.70031487804659,-10,-10,10,10,33,23,23,43,43,3.1622776601683795,10,3.1622776601683795,10
4,20,0.2842691999976523,p,29.2,Unlimited Time,i,42.6316040874256,25.349934241012548,42.1596065914035,29.1995314858115,25.349934241012548,29.1995314858115,42.1596065914035,42.6316040874256,-10,-10,10,10,33,23,23,43,43,3.1622776601683795,10,3.1622776601683795,10
5,1,,,0.0,Limited Time - 400ms,h,26.98197717608414,44.91298919820454,20.751283710575173,18.157026170372095,18.157026170372095,20.751283710575173,26.98197717608414,44.91298919820454,-10,-0.33,0.33,10,33,23,32.67,33.33,43,10,10,10,10
5,2,,,0.0,Limited Time - 400ms,h,29.001562102440737,24.566786606959354,14.40942686127044,24.401037345947174,24.401037345947174,14.40942686127044,29.001562102440737,24.566786606959354,-10,-0.33,0.33,10,33,23,32.67,33.33,43,10,10,10,10
5,3,0.26807360000384506,p,24.5,Limited Time - 400ms,h,26.30766948580807,36.566775291024435,30.35649426380974,24.50427134776494,24.50427134776494,30.35649426380974,26.30766948580807,36.566775291024435,-10,-0.33,0.33,10,33,23,32.67,33.33,43,10,10,10,10
5,4,0.24065589999372605,w,45.2,Limited Time - 400ms,h,28.8679042428183,45.18203519695806,21.242533139499077,25.12880036974322,25.12880036974322,21.242533139499077,28.8679042428183,45.18203519695806,-10,-0.33,0.33,10,33,23,32.67,33.33,43,10,10,10,10
5,5,0.028158400004031137,p,36.5,Limited Time - 400ms,h,22.396616857730546,47.52456993970553,29.869634551791304,36.49430606125724,36.49430606125724,29.869634551791304,22.396616857730546,47.52456993970553,-10,-0.33,0.33,10,33,23,32.67,33.33,43,10,10,10,10
5,6,,,0.0,Limited Time - 400ms,h,27.135339649773485,33.850573675711686,37.288219953548754,23.616206238937345,23.616206238937345,37.288219953548754,27.135339649773485,33.850573675711686,-10,-0.33,0.33,10,33,23,32.67,33.33,43,10,10,10,10
5,7,0.33046519999334123,q,25.8,Limited Time - 400ms,h,25.812759789912747,34.68984930543058,27.000102267735826,18.421241486347288,18.421241486347288,27.000102267735826,25.812759789912747,34.68984930543058,-10,-0.33,0.33,10,33,23,32.67,33.33,43,10,10,10,10
5,8,0.0027507000049808994,o,48.7,Limited Time - 400ms,h,30.54491064203533,47.90811614039039,48.72086902110334,10.679498187823983,10.679498187823983,48.72086902110334,30.54491064203533,47.90811614039039,-10,-0.33,0.33,10,33,23,32.67,33.33,43,10,10,10,10
5,9,0.34201489998667967,q,46.5,Limited Time - 400ms,h,46.46796170565092,42.725522954140075,51.60735772807627,9.877784474852122,9.877784474852122,51.60735772807627,46.46796170565092,42.725522954140075,-10,-0.33,0.33,10,33,23,32.67,33.33,43,10,10,10,10
5,10,0.2820221000001766,o,9.3,Limited Time - 400ms,h,38.98905730184109,60.08361679270913,9.256044336845534,20.625149879345962,20.625149879345962,9.256044336845534,38.98905730184109,60.08361679270913,-10,-0.33,0.33,10,33,23,32.67,33.33,43,10,10,10,10
5,11,,,0.0,Limited Time - 400ms,h,46.353690494894806,36.5913671215717,30.465008257211785,19.067342935814533,19.067342935814533,30.465008257211785,46.353690494894806,36.5913671215717,-10,-0.33,0.33,10,33,23,32.67,33.33,43,10,10,10,10
5,12,0.08879660000093281,w,38.5,Limited Time - 400ms,h,30.184284445934914,38.49240603094548,16.72359481469007,17.657039183658263,17.657039183658263,16.72359481469007,30.184284445934914,38.49240603094548,-10,-0.33,0.33,10,33,23,32.67,33.33,43,10,10,10,10
5,13,0.3051435999950627,q,38.6,Limited Time - 400ms,h,38.592099288941306,58.86530324205124,41.52300573374151,14.921502198174288,14.921502198174288,41.52300573374151,38.592099288941306,58.86530324205124,-10,-0.33,0.33,10,33,23,32.67,33.33,43,10,10,10,10
5,14,,,0.0,Limited Time - 400ms,h,15.665717545198326,44.75901748857281,14.531821621166284,26.10172950935535,26.10172950935535,14.531821621166284,15.665717545198326,44.75901748857281,-10,-0.33,0.33,10,33,23,32.67,33.33,43,10,10,10,10
5,15,0.11676669999724254,p,21.1,Limited Time - 400ms,h,25.67153701425937,50.10453987363869,50.22446522388583,21.07548700791641,21.07548700791641,50.22446522388583,25.67153701425937,50.10453987363869,-10,-0.33,0.33,10,33,23,32.67,33.33,43,10,10,10,10
5,16,0.07264559999748599,w,46.2,Limited Time - 400ms,h,16.95719357179458,46.17812130958061,39.86487971744981,13.901011785506817,13.901011785506817,39.86487971744981,16.95719357179458,46.17812130958061,-10,-0.33,0.33,10,33,23,32.67,33.33,43,10,10,10,10
5,17,0.3232988999952795,p,11.4,Limited Time - 400ms,h,28.690135452314365,45.09387278336503,40.55457555282058,11.422322402062779,11.422322402062779,40.55457555282058,28.690135452314365,45.09387278336503,-10,-0.33,0.33,10,33,23,32.67,33.33,43,10,10,10,10
5,18,0.22027550000348128,w,40.7,Limited Time - 400ms,h,40.22693593424503,40.743268568008226,22.529391610951095,18.590604817833057,18.590604817833057,22.529391610951095,40.22693593424503,40.743268568008226,-10,-0.33,0.33,10,33,23,32.67,33.33,43,10,10,10,10
5,19,0.1697103999904357,q,23.1,Limited Time - 400ms,h,23.13019784579737,45.67130584628735,55.03898329959727,10.250644757300286,10.250644757300286,55.03898329959727,23.13019784579737,45.67130584628735,-10,-0.33,0.33,10,33,23,32.67,33.33,43,10,10,10,10
5,20,0.26361110000289045,q,41.2,Limited Time - 400ms,h,41.24287807949405,44.60493430198809,19.944699474746596,29.802661350857548,29.802661350857548,19.944699474746596,41.24287807949405,44.60493430198809,-10,-0.33,0.33,10,33,23,32.67,33.33,43,10,10,10,10
6,1,,,0.0,Limited Time - 800ms,e,23.032853303073313,39.455106065732174,42.85124423752515,35.5010905823472,35.5010905823472,39.455106065732174,23.032853303073313,42.85124423752515,0,0,0,0,33,33,33,33,33,3.1622776601683795,6.324555320336759,8.366600265340756,10
6,2,,,0.0,Limited Time - 800ms,e,32.70891891458638,38.05138311311722,16.51893156522983,38.096327560328554,38.096327560328554,38.05138311311722,32.70891891458638,16.51893156522983,0,0,0,0,33,33,33,33,33,3.1622776601683795,6.324555320336759,8.366600265340756,10
6,3,,,0.0,Limited Time - 800ms,e,27.450663360768075,49.3709406007258,10.12153033260078,31.040270602265526,31.040270602265526,49.3709406007258,27.450663360768075,10.12153033260078,0,0,0,0,33,33,33,33,33,3.1622776601683795,6.324555320336759,8.366600265340756,10
6,4,0.579025900005945,p,35.0,Limited Time - 800ms,e,26.2873751749341,25.26503340498867,23.801801815132695,35.01808790441329,35.01808790441329,25.26503340498867,26.2873751749341,23.801801815132695,0,0,0,0,33,33,33,33,33,3.1622776601683795,6.324555320336759,8.366600265340756,10
6,5,0.26322589999472257,w,31.7,Limited Time - 800ms,e,45.84462934729344,31.695022245475894,17.078577403446324,33.224508653330986,33.224508653330986,31.695022245475894,45.84462934729344,17.078577403446324,0,0,0,0,33,33,33,33,33,3.1622776601683795,6.324555320336759,8.366600265340756,10
6,6,0.286203800002113,q,36.1,Limited Time - 800ms,e,36.109951784156834,27.657022468529817,31.58949407608591,37.446626133490305,37.446626133490305,27.657022468529817,36.109951784156834,31.58949407608591,0,0,0,0,33,33,33,33,33,3.1622776601683795,6.324555320336759,8.366600265340756,10
6,7,0.6149541999911889,p,31.9,Limited Time - 800ms,e,41.29349870963051,31.30703928847841,46.22545134988214,31.905365363905737,31.905365363905737,31.30703928847841,41.29349870963051,46.22545134988214,0,0,0,0,33,33,33,33,33,3.1622776601683795,6.324555320336759,8.366600265340756,10
6,8,0.39567909999459516,p,30.2,Limited Time - 800ms,e,34.867558004947185,37.09154197864113,24.55813696392886,30.189341762866604,30.189341762866604,37.09154197864113,34.867558004947185,24.55813696392886,0,0,0,0,33,33,33,33,33,3.1622776601683795,6.324555320336759,8.366600265340756,10
6,9,0.5224993000010727,p,27.1,Limited Time - 800ms,e,39.421220429845846,29.904494714751266,62.56045303966443,27.088335760267732,27.088335760267732,29.904494714751266,39.421220429845846,62.56045303966443,0,0,0,0,33,33,33,33,33,3.1622776601683795,6.324555320336759,8.366600265340756,10
6,10,0.6400480999873253,q,24.6,Limited Time - 800ms,e,24.570442959546547,34.1254917164619,21.84446921136986,26.644716562918223,26.644716562918223,34.1254917164619,24.570442959546547,21.84446921136986,0,0,0,0,33,33,33,33,33,3.1622776601683795,6.324555320336759,8.366600265340756,10
6,11,0.5504224999895087,w,38.4,Limited Time - 800ms,e,36.99049099715862,38.375475283158835,27.050905260829715,32.01691975006354,32.01691975006354,38.375475283158835,36.99049099715862,27.050905260829715,0,0,0,0,33,33,33,33,33,3.1622776601683795,6.324555320336759,8.366600265340756,10
6,12,0.5164531999907922,w,26.8,Limited Time - 800ms,e,25.335498358376306,26.841127787877916,43.14131346293606,30.448690135883442,30.448690135883442,26.841127787877916,25.335498358376306,43.14131346293606,0,0,0,0,33,33,33,33,33,3.1622776601683795,6.324555320336759,8.366600265340756,10
6,13,0.26328270000522025,w,35.5,Limited Time - 800ms,e,38.688877103937216,35.5398274064093,33.19138900852224,32.38560351110274,32.38560351110274,35.5398274064093,38.688877103937216,33.19138900852224,0,0,0,0,33,33,33,33,33,3.1622776601683795,6.324555320336759,8.366600265340756,10
6,14,0.27176129999861587,o,27.3,Limited Time - 800ms,e,41.68800315343662,35.83946400670512,27.256398064259216,35.22771261539503,35.22771261539503,35.83946400670512,41.68800315343662,27.256398064259216,0,0,0,0,33,33,33,33,33,3.1622776601683795,6.324555320336759,8.366600265340756,10
6,15,0.3017527999909362,w,36.9,Limited Time - 800ms,e,37.49459209252182,36.91475939512001,41.59878565624754,36.140599023917716,36.140599023917716,36.91475939512001,37.49459209252182,41.59878565624754,0,0,0,0,33,33,33,33,33,3.1622776601683795,6.324555320336759,8.366600265340756,10
6,16,0.3697493000072427,w,34.5,Limited Time - 800ms,e,39.14787895385786,34.461528236586865,28.681119181761744,38.58996803101947,38.58996803101947,34.461528236586865,39.14787895385786,28.681119181761744,0,0,0,0,33,33,33,33,33,3.1622776601683795,6.324555320336759,8.366600265340756,10
6,17,0.32005569999455474,w,35.4,Limited Time - 800ms,e,24.75587837681981,35.44478284248868,22.65919818705618,34.14095081963269,34.14095081963269,35.44478284248868,24.75587837681981,22.65919818705618,0,0,0,0,33,33,33,33,33,3.1622776601683795,6.324555320336759,8.366600265340756,10
6,18,0.37091540000983514,w,24.6,Limited Time - 800ms,e,32.63749776315692,24.57652092293598,43.17725561247869,35.221719016459545,35.221719016459545,24.57652092293598,32.63749776315692,43.17725561247869,0,0,0,0,33,33,33,33,33,3.1622776601683795,6.324555320336759,8.366600265340756,10
6,19,0.28836960000626277,w,37.6,Limited Time - 800ms,e,31.811609978738993,37.59061050073991,22.205478018114654,34.78916734226844,34.78916734226844,37.59061050073991,31.811609978738993,22.205478018114654,0,0,0,0,33,33,33,33,33,3.1622776601683795,6.324555320336759,8.366600265340756,10
6,20,0.4055337000027066,w,26.6,Limited Time - 800ms,e,17.15466713894333,26.56332316498468,42.960085037571076,34.38777824909611,34.38777824909611,26.56332316498468,17.15466713894333,42.960085037571076,0,0,0,0,33,33,33,33,33,3.1622776601683795,6.324555320336759,8.366600265340756,10
7,1,0.6950316000002204,w,18.2,Unlimited Time,h,44.91298919820454,18.157026170372095,20.751283710575173,26.98197717608414,18.157026170372095,20.751283710575173,26.98197717608414,44.91298919820454,-10,-0.33,0.33,10,33,23,32.67,33.33,43,10,10,10,10
7,2,0.3275668999995105,o,14.4,Unlimited Time,h,24.566786606959354,24.401037345947174,14.40942686127044,29.001562102440737,24.401037345947174,14.40942686127044,29.001562102440737,24.566786606959354,-10,-0.33,0.33,10,33,23,32.67,33.33,43,10,10,10,10
7,3,0.3508645000110846,p,26.3,Unlimited Time,h,36.566775291024435,24.50427134776494,30.35649426380974,26.30766948580807,24.50427134776494,30.35649426380974,26.30766948580807,36.566775291024435,-10,-0.33,0.33,10,33,23,32.67,33.33,43,10,10,10,10
7,4,0.25906640000175685,q,45.2,Unlimited Time,h,45.18203519695806,25.12880036974322,21.242533139499077,28.8679042428183,25.12880036974322,21.242533139499077,28.8679042428183,45.18203519695806,-10,-0.33,0.33,10,33,23,32.67,33.33,43,10,10,10,10
7,5,0.49421249999431893,p,22.4,Unlimited Time,h,47.52456993970553,36.49430606125724,29.869634551791304,22.396616857730546,36.49430606125724,29.869634551791304,22.396616857730546,47.52456993970553,-10,-0.33,0.33,10,33,23,32.67,33.33,43,10,10,10,10
7,6,0.8915300999942701,w,23.6,Unlimited Time,h,33.850573675711686,23.616206238937345,37.288219953548754,27.135339649773485,23.616206238937345,37.288219953548754,27.135339649773485,33.850573675711686,-10,-0.33,0.33,10,33,23,32.67,33.33,43,10,10,10,10
7,7,0.6361262999998871,p,25.8,Unlimited Time,h,34.68984930543058,18.421241486347288,27.000102267735826,25.812759789912747,18.421241486347288,27.000102267735826,25.812759789912747,34.68984930543058,-10,-0.33,0.33,10,33,23,32.67,33.33,43,10,10,10,10
7,8,1.1147477000049548,w,10.7,Unlimited Time,h,47.90811614039039,10.679498187823983,48.72086902110334,30.54491064203533,10.679498187823983,48.72086902110334,30.54491064203533,47.90811614039039,-10,-0.33,0.33,10,33,23,32.67,33.33,43,10,10,10,10
7,9,0.4156570999912219,p,46.5,Unlimited Time,h,42.725522954140075,9.877784474852122,51.60735772807627,46.46796170565092,9.877784474852122,51.60735772807627,46.46796170565092,42.725522954140075,-10,-0.33,0.33,10,33,23,32.67,33.33,43,10,10,10,10
7,10,0.6776391000021249,p,39.0,Unlimited Time,h,60.08361679270913,20.625149879345962,9.256044336845534,38.98905730184109,20.625149879345962,9.256044336845534,38.98905730184109,60.08361679270913,-10,-0.33,0.33,10,33,23,32.67,33.33,43,10,10,10,10
7,11,0.2475784999987809,p,46.4,Unlimited Time,h,36.5913671215717,19.067342935814533,30.465008257211785,46.353690494894806,19.067342935814533,30.465008257211785,46.353690494894806,36.5913671215717,-10,-0.33,0.33,10,33,23,32.67,33.33,43,10,10,10,10
7,12,0.35999909999372903,p,30.2,Unlimited Time,h,38.49240603094548,17.657039183658263,16.72359481469007,30.184284445934914,17.657039183658263,16.72359481469007,30.184284445934914,38.49240603094548,-10,-0.33,0.33,10,33,23,32.67,33.33,43,10,10,10,10
7,13,0.44447950000176206,w,14.9,Unlimited Time,h,58.86530324205124,14.921502198174288,41.52300573374151,38.592099288941306,14.921502198174288,41.52300573374151,38.592099288941306,58.86530324205124,-10,-0.33,0.33,10,33,23,32.67,33.33,43,10,10,10,10
7,14,0.3597771999920951,p,15.7,Unlimited Time,h,44.75901748857281,26.10172950935535,14.531821621166284,15.665717545198326,26.10172950935535,14.531821621166284,15.665717545198326,44.75901748857281,-10,-0.33,0.33,10,33,23,32.67,33.33,43,10,10,10,10
7,15,0.442283900003531,p,25.7,Unlimited Time,h,50.10453987363869,21.07548700791641,50.22446522388583,25.67153701425937,21.07548700791641,50.22446522388583,25.67153701425937,50.10453987363869,-10,-0.33,0.33,10,33,23,32.67,33.33,43,10,10,10,10
7,16,0.34503460000269115,w,13.9,Unlimited Time,h,46.17812130958061,13.901011785506817,39.86487971744981,16.95719357179458,13.901011785506817,39.86487971744981,16.95719357179458,46.17812130958061,-10,-0.33,0.33,10,33,23,32.67,33.33,43,10,10,10,10
7,17,0.22884559999511112,o,40.6,Unlimited Time,h,45.09387278336503,11.422322402062779,40.55457555282058,28.690135452314365,11.422322402062779,40.55457555282058,28.690135452314365,45.09387278336503,-10,-0.33,0.33,10,33,23,32.67,33.33,43,10,10,10,10
7,18,0.15447730000596493,q,40.7,Unlimited Time,h,40.743268568008226,18.590604817833057,22.529391610951095,40.22693593424503,18.590604817833057,22.529391610951095,40.22693593424503,40.743268568008226,-10,-0.33,0.33,10,33,23,32.67,33.33,43,10,10,10,10
7,19,0.02562960000068415,p,23.1,Unlimited Time,h,45.67130584628735,10.250644757300286,55.03898329959727,23.13019784579737,10.250644757300286,55.03898329959727,23.13019784579737,45.67130584628735,-10,-0.33,0.33,10,33,23,32.67,33.33,43,10,10,10,10
7,20,0.6417797000030987,w,29.8,Unlimited Time,h,44.60493430198809,29.802661350857548,19.944699474746596,41.24287807949405,29.802661350857548,19.944699474746596,41.24287807949405,44.60493430198809,-10,-0.33,0.33,10,33,23,32.67,33.33,43,10,10,10,10
8,1,,,0.0,Limited Time - 400ms,i,15.686054848980097,24.82957661365718,39.72368423732669,44.75162453804214,24.82957661365718,15.686054848980097,39.72368423732669,44.75162453804214,-10,-10,10,10,33,23,23,43,43,3.1622776601683795,10,3.1622776601683795,10
8,2,,,0.0,Limited Time - 400ms,i,20.36743159091599,22.828709618945158,45.48371721401961,34.63549417967912,22.828709618945158,20.36743159091599,45.48371721401961,34.63549417967912,-10,-10,10,10,33,23,23,43,43,3.1622776601683795,10,3.1622776601683795,10
8,3,0.32113050000043586,w,17.1,Limited Time - 400ms,i,20.582015451191406,17.089425825838195,46.59188299412777,48.39449136477516,17.089425825838195,20.582015451191406,46.59188299412777,48.39449136477516,-10,-10,10,10,33,23,23,43,43,3.1622776601683795,10,3.1622776601683795,10
8,4,,,0.0,Limited Time - 400ms,i,31.046157021935585,22.048961794235186,38.61253506018377,48.58474644978433,22.048961794235186,31.046157021935585,38.61253506018377,48.58474644978433,-10,-10,10,10,33,23,23,43,43,3.1622776601683795,10,3.1622776601683795,10
8,5,0.046305399999255314,q,28.7,Limited Time - 400ms,i,28.715035215901842,22.76731033849673,48.07416799412498,57.71096572018649,22.76731033849673,28.715035215901842,48.07416799412498,57.71096572018649,-10,-10,10,10,33,23,23,43,43,3.1622776601683795,10,3.1622776601683795,10
8,6,,,0.0,Limited Time - 400ms,i,10.974537700235057,23.319747803734124,44.45048128723419,42.57252940451922,23.319747803734124,10.974537700235057,44.45048128723419,42.57252940451922,-10,-10,10,10,33,23,23,43,43,3.1622776601683795,10,3.1622776601683795,10
8,7,,,0.0,Limited Time - 400ms,i,19.40046707638829,21.747602530437007,43.74600590113182,35.77458495040864,21.747602530437007,19.40046707638829,43.74600590113182,35.77458495040864,-10,-10,10,10,33,23,23,43,43,3.1622776601683795,10,3.1622776601683795,10
8,8,0.11267979998956434,p,54.6,Limited Time - 400ms,i,10.08847714197502,22.727456454329193,44.1651112225717,54.58562836394096,22.727456454329193,10.08847714197502,44.1651112225717,54.58562836394096,-10,-10,10,10,33,23,23,43,43,3.1622776601683795,10,3.1622776601683795,10
8,9,0.3016561999975238,q,15.6,Limited Time - 400ms,i,15.590227231986876,25.23433565602587,42.339185205017934,35.10201310597007,25.23433565602587,15.590227231986876,42.339185205017934,35.10201310597007,-10,-10,10,10,33,23,23,43,43,3.1622776601683795,10,3.1622776601683795,10
8,10,0.3057338000071468,q,17.0,Limited Time - 400ms,i,17.021036783396152,27.06845699045502,42.37811331821809,47.37541017205061,27.06845699045502,17.021036783396152,42.37811331821809,47.37541017205061,-10,-10,10,10,33,23,23,43,43,3.1622776601683795,10,3.1622776601683795,10
8,11,0.3587027999892598,p,31.3,Limited Time - 400ms,i,19.139430758728512,24.9610886399851,50.05536896077386,31.310148083823726,24.9610886399851,19.139430758728512,50.05536896077386,31.310148083823726,-10,-10,10,10,33,23,23,43,43,3.1622776601683795,10,3.1622776601683795,10
8,12,0.174350899993442,q,8.6,Limited Time - 400ms,i,8.622867090375099,20.552503749285815,44.61644920278241,42.65312627792627,20.552503749285815,8.622867090375099,44.61644920278241,42.65312627792627,-10,-10,10,10,33,23,23,43,43,3.1622776601683795,10,3.1622776601683795,10
8,13,0.28509950000443496,q,20.5,Limited Time - 400ms,i,20.529241340825106,25.808665301145453,40.84265327245301,41.8259695781648,25.808665301145453,20.529241340825106,40.84265327245301,41.8259695781648,-10,-10,10,10,33,23,23,43,43,3.1622776601683795,10,3.1622776601683795,10
8,14,0.34145259999786504,q,31.9,Limited Time - 400ms,i,31.92532025439797,20.078214014435638,41.152688369549146,29.105020293916905,20.078214014435638,31.92532025439797,41.152688369549146,29.105020293916905,-10,-10,10,10,33,23,23,43,43,3.1622776601683795,10,3.1622776601683795,10
8,15,,,0.0,Limited Time - 400ms,i,22.478344916305616,22.026330321611056,42.774302337871084,31.337379929576326,22.026330321611056,22.478344916305616,42.774302337871084,31.337379929576326,-10,-10,10,10,33,23,23,43,43,3.1622776601683795,10,3.1622776601683795,10
8,16,0.09480169999005739,q,35.4,Limited Time - 400ms,i,35.38367062437814,24.379408693945905,49.030062332294,46.02433971975746,24.379408693945905,35.38367062437814,49.030062332294,46.02433971975746,-10,-10,10,10,33,23,23,43,43,3.1622776601683795,10,3.1622776601683795,10
8,17,,,0.0,Limited Time - 400ms,i,13.796942795213385,22.403065306978156,41.28483727876646,30.85773800170367,22.403065306978156,13.796942795213385,41.28483727876646,30.85773800170367,-10,-10,10,10,33,23,23,43,43,3.1622776601683795,10,3.1622776601683795,10
8,18,0.061734200004138984,p,45.4,Limited Time - 400ms,i,19.956162160822238,17.068755505130937,42.406653648253844,45.36540994707051,17.068755505130937,19.956162160822238,42.406653648253844,45.36540994707051,-10,-10,10,10,33,23,23,43,43,3.1622776601683795,10,3.1622776601683795,10
8,19,0.31287339999107644,w,23.7,Limited Time - 400ms,i,19.23211345982305,23.709166740896574,45.486818446074835,36.70031487804659,23.709166740896574,19.23211345982305,45.486818446074835,36.70031487804659,-10,-10,10,10,33,23,23,43,43,3.1622776601683795,10,3.1622776601683795,10
8,20,,,0.0,Limited Time - 400ms,i,29.1995314858115,25.349934241012548,42.1596065914035,42.6316040874256,25.349934241012548,29.1995314858115,42.1596065914035,42.6316040874256,-10,-10,10,10,33,23,23,43,43,3.1622776601683795,10,3.1622776601683795,10
9,1,0.6599723000108497,q,38.8,Limited Time - 800ms,l,38.75524080584201,40.088697188278985,17.539902845913296,43.003227061949914,17.539902845913296,38.75524080584201,40.088697188278985,43.003227061949914,-10,-0.33,0.33,10,33,23,32.67,33.33,43,3.1622776601683795,3.1622776601683795,3.1622776601683795,3.1622776601683795
9,2,0.15638630000466947,p,46.2,Limited Time - 800ms,l,32.857504335419414,30.04307925665251,19.285278352803655,46.18840782811235,19.285278352803655,32.857504335419414,30.04307925665251,46.18840782811235,-10,-0.33,0.33,10,33,23,32.67,33.33,43,3.1622776601683795,3.1622776601683795,3.1622776601683795,3.1622776601683795
9,3,,,0.0,Limited Time - 800ms,l,36.83518412004544,31.468850615860852,18.441823203068285,40.570445151032764,18.441823203068285,36.83518412004544,31.468850615860852,40.570445151032764,-10,-0.33,0.33,10,33,23,32.67,33.33,43,3.1622776601683795,3.1622776601683795,3.1622776601683795,3.1622776601683795
9,4,0.6754527999873972,w,34.7,Limited Time - 800ms,l,31.133932412376275,34.74856609384513,21.39111798153117,40.46677405859923,21.39111798153117,31.133932412376275,34.74856609384513,40.46677405859923,-10,-0.33,0.33,10,33,23,32.67,33.33,43,3.1622776601683795,3.1622776601683795,3.1622776601683795,3.1622776601683795
9,5,0.40549489999830257,o,18.1,Limited Time - 800ms,l,36.2543458230025,31.655231555052623,18.101958327181624,43.62708233778104,18.101958327181624,36.2543458230025,31.655231555052623,43.62708233778104,-10,-0.33,0.33,10,33,23,32.67,33.33,43,3.1622776601683795,3.1622776601683795,3.1622776601683795,3.1622776601683795
9,6,0.29849419998936355,q,33.7,Limited Time - 800ms,l,33.65236620972106,34.30187909078462,23.011604164793923,42.77225097455334,23.011604164793923,33.65236620972106,34.30187909078462,42.77225097455334,-10,-0.33,0.33,10,33,23,32.67,33.33,43,3.1622776601683795,3.1622776601683795,3.1622776601683795,3.1622776601683795
9,7,0.30333019999670796,p,46.9,Limited Time - 800ms,l,36.606303887751274,29.860931526396065,23.54187517646803,46.93826590034199,23.54187517646803,36.606303887751274,29.860931526396065,46.93826590034199,-10,-0.33,0.33,10,33,23,32.67,33.33,43,3.1622776601683795,3.1622776601683795,3.1622776601683795,3.1622776601683795
9,8,0.2848678000009386,q,39.1,Limited Time - 800ms,l,39.08570571930083,32.54808212814128,18.156714927199715,42.82166775139572,18.156714927199715,39.08570571930083,32.54808212814128,42.82166775139572,-10,-0.33,0.33,10,33,23,32.67,33.33,43,3.1622776601683795,3.1622776601683795,3.1622776601683795,3.1622776601683795
9,9,0.35459350000019185,q,27.0,Limited Time - 800ms,l,27.01162269346313,34.49735880623887,25.620407285942875,43.37128055170047,25.620407285942875,27.01162269346313,34.49735880623887,43.37128055170047,-10,-0.33,0.33,10,33,23,32.67,33.33,43,3.1622776601683795,3.1622776601683795,3.1622776601683795,3.1622776601683795
9,10,0.366444400002365,q,24.6,Limited Time - 800ms,l,24.588580708121967,32.35246763864375,23.179532147986343,45.07940455109561,23.179532147986343,24.588580708121967,32.35246763864375,45.07940455109561,-10,-0.33,0.33,10,33,23,32.67,33.33,43,3.1622776601683795,3.1622776601683795,3.1622776601683795,3.1622776601683795
9,11,0.36811160000797827,q,31.3,Limited Time - 800ms,l,31.33290690805493,28.87698523819912,18.590485248534556,43.71208386330351,18.590485248534556,31.33290690805493,28.87698523819912,43.71208386330351,-10,-0.33,0.33,10,33,23,32.67,33.33,43,3.1622776601683795,3.1622776601683795,3.1622776601683795,3.1622776601683795
9,12,0.29890749999321997,o,26.0,Limited Time - 800ms,l,29.043131927950572,33.65922486419396,25.99373459959448,46.00982410005707,25.99373459959448,29.043131927950572,33.65922486419396,46.00982410005707,-10,-0.33,0.33,10,33,23,32.67,33.33,43,3.1622776601683795,3.1622776601683795,3.1622776601683795,3.1622776601683795
9,13,0.42820489998848643,p,41.3,Limited Time - 800ms,l,38.81776635352935,37.082000349783065,21.547734484653024,41.31551213249297,21.547734484653024,38.81776635352935,37.082000349783065,41.31551213249297,-10,-0.33,0.33,10,33,23,32.67,33.33,43,3.1622776601683795,3.1622776601683795,3.1622776601683795,3.1622776601683795
9,14,0.3163312999968184,q,34.6,Limited Time - 800ms,l,34.60071989171716,31.28312617371396,27.552613226365715,44.95248522601276,27.552613226365715,34.60071989171716,31.28312617371396,44.95248522601276,-10,-0.33,0.33,10,33,23,32.67,33.33,43,3.1622776601683795,3.1622776601683795,3.1622776601683795,3.1622776601683795
9,15,0.2739138000033563,q,26.9,Limited Time - 800ms,l,26.900336253487538,36.46044408763818,22.366484791170738,39.0710842531283,22.366484791170738,26.900336253487538,36.46044408763818,39.0710842531283,-10,-0.33,0.33,10,33,23,32.67,33.33,43,3.1622776601683795,3.1622776601683795,3.1622776601683795,3.1622776601683795
9,16,0.42231559999345336,q,35.6,Limited Time - 800ms,l,35.579602028552316,37.76201292001858,23.953476433662786,45.00645985868829,23.953476433662786,35.579602028552316,37.76201292001858,45.00645985868829,-10,-0.33,0.33,10,33,23,32.67,33.33,43,3.1622776601683795,3.1622776601683795,3.1622776601683795,3.1622776601683795
9,17,0.6750063999934355,q,37.9,Limited Time - 800ms,l,37.89998946235925,28.488736564030603,28.450020970854727,40.88177247827665,28.450020970854727,37.89998946235925,28.488736564030603,40.88177247827665,-10,-0.33,0.33,10,33,23,32.67,33.33,43,3.1622776601683795,3.1622776601683795,3.1622776601683795,3.1622776601683795
9,18,0.27829500001098495,p,42.3,Limited Time - 800ms,l,34.84976310679838,29.42383164676724,19.667414519415594,42.339601514581034,19.667414519415594,34.84976310679838,29.42383164676724,42.339601514581034,-10,-0.33,0.33,10,33,23,32.67,33.33,43,3.1622776601683795,3.1622776601683795,3.1622776601683795,3.1622776601683795
9,19,0.17696219999925233,q,32.1,Limited Time - 800ms,l,32.084682717286555,36.64187739302879,21.760959395434565,36.29210536226833,21.760959395434565,32.084682717286555,36.64187739302879,36.29210536226833,-10,-0.33,0.33,10,33,23,32.67,33.33,43,3.1622776601683795,3.1622776601683795,3.1622776601683795,3.1622776601683795
9,20,0.6603941999928793,o,18.5,Limited Time - 800ms,l,39.60631404086783,35.943772867331354,18.521020652305992,50.62423487232402,18.521020652305992,39.60631404086783,35.943772867331354,50.62423487232402,-10,-0.33,0.33,10,33,23,32.67,33.33,43,3.1622776601683795,3.1622776601683795,3.1622776601683795,3.1622776601683795
10,1,0.37531259999377653,w,39.7,Unlimited Time,i,24.82957661365718,39.72368423732669,44.75162453804214,15.686054848980097,24.82957661365718,15.686054848980097,39.72368423732669,44.75162453804214,-10,-10,10,10,33,23,23,43,43,3.1622776601683795,10,3.1622776601683795,10
10,2,0.17391900000802707,o,34.6,Unlimited Time,i,22.828709618945158,45.48371721401961,34.63549417967912,20.36743159091599,22.828709618945158,20.36743159091599,45.48371721401961,34.63549417967912,-10,-10,10,10,33,23,23,43,43,3.1622776601683795,10,3.1622776601683795,10
10,3,0.3323979999986477,q,17.1,Unlimited Time,i,17.089425825838195,46.59188299412777,48.39449136477516,20.582015451191406,17.089425825838195,20.582015451191406,46.59188299412777,48.39449136477516,-10,-10,10,10,33,23,23,43,43,3.1622776601683795,10,3.1622776601683795,10
10,4,0.3691389000014169,p,31.0,Unlimited Time,i,22.048961794235186,38.61253506018377,48.58474644978433,31.046157021935585,22.048961794235186,31.046157021935585,38.61253506018377,48.58474644978433,-10,-10,10,10,33,23,23,43,43,3.1622776601683795,10,3.1622776601683795,10
10,5,0.41308790000039153,q,22.8,Unlimited Time,i,22.76731033849673,48.07416799412498,57.71096572018649,28.715035215901842,22.76731033849673,28.715035215901842,48.07416799412498,57.71096572018649,-10,-10,10,10,33,23,23,43,43,3.1622776601683795,10,3.1622776601683795,10
10,6,0.2503729000018211,q,23.3,Unlimited Time,i,23.319747803734124,44.45048128723419,42.57252940451922,10.974537700235057,23.319747803734124,10.974537700235057,44.45048128723419,42.57252940451922,-10,-10,10,10,33,23,23,43,43,3.1622776601683795,10,3.1622776601683795,10
10,7,0.10532010000315495,w,43.7,Unlimited Time,i,21.747602530437007,43.74600590113182,35.77458495040864,19.40046707638829,21.747602530437007,19.40046707638829,43.74600590113182,35.77458495040864,-10,-10,10,10,33,23,23,43,43,3.1622776601683795,10,3.1622776601683795,10
10,8,0.40771999998833053,p,10.1,Unlimited Time,i,22.727456454329193,44.1651112225717,54.58562836394096,10.08847714197502,22.727456454329193,10.08847714197502,44.1651112225717,54.58562836394096,-10,-10,10,10,33,23,23,43,43,3.1622776601683795,10,3.1622776601683795,10
10,9,0.014844000004814006,q,25.2,Unlimited Time,i,25.23433565602587,42.339185205017934,35.10201310597007,15.590227231986876,25.23433565602587,15.590227231986876,42.339185205017934,35.10201310597007,-10,-10,10,10,33,23,23,43,43,3.1622776601683795,10,3.1622776601683795,10
10,10,0.005404399998951703,w,42.4,Unlimited Time,i,27.06845699045502,42.37811331821809,47.37541017205061,17.021036783396152,27.06845699045502,17.021036783396152,42.37811331821809,47.37541017205061,-10,-10,10,10,33,23,23,43,43,3.1622776601683795,10,3.1622776601683795,10
10,11,0.32506519999878947,p,19.1,Unlimited Time,i,24.9610886399851,50.05536896077386,31.310148083823726,19.139430758728512,24.9610886399851,19.139430758728512,50.05536896077386,31.310148083823726,-10,-10,10,10,33,23,23,43,43,3.1622776601683795,10,3.1622776601683795,10
10,12,0.31675139999424573,w,44.6,Unlimited Time,i,20.552503749285815,44.61644920278241,42.65312627792627,8.622867090375099,20.552503749285815,8.622867090375099,44.61644920278241,42.65312627792627,-10,-10,10,10,33,23,23,43,43,3.1622776601683795,10,3.1622776601683795,10
10,13,0.9466864999994868,w,40.8,Unlimited Time,i,25.808665301145453,40.84265327245301,41.8259695781648,20.529241340825106,25.808665301145453,20.529241340825106,40.84265327245301,41.8259695781648,-10,-10,10,10,33,23,23,43,43,3.1622776601683795,10,3.1622776601683795,10
10,14,0.19896519999019802,p,31.9,Unlimited Time,i,20.078214014435638,41.152688369549146,29.105020293916905,31.92532025439797,20.078214014435638,31.92532025439797,41.152688369549146,29.105020293916905,-10,-10,10,10,33,23,23,43,43,3.1622776601683795,10,3.1622776601683795,10
10,15,0.13830389999202453,w,42.8,Unlimited Time,i,22.026330321611056,42.774302337871084,31.337379929576326,22.478344916305616,22.026330321611056,22.478344916305616,42.774302337871084,31.337379929576326,-10,-10,10,10,33,23,23,43,43,3.1622776601683795,10,3.1622776601683795,10
10,16,0.11169240000890568,q,24.4,Unlimited Time,i,24.379408693945905,49.030062332294,46.02433971975746,35.38367062437814,24.379408693945905,35.38367062437814,49.030062332294,46.02433971975746,-10,-10,10,10,33,23,23,43,43,3.1622776601683795,10,3.1622776601683795,10
10,17,0.6519911000068532,p,13.8,Unlimited Time,i,22.403065306978156,41.28483727876646,30.85773800170367,13.796942795213385,22.403065306978156,13.796942795213385,41.28483727876646,30.85773800170367,-10,-10,10,10,33,23,23,43,43,3.1622776601683795,10,3.1622776601683795,10
10,18,0.496980199997779,w,42.4,Unlimited Time,i,17.068755505130937,42.406653648253844,45.36540994707051,19.956162160822238,17.068755505130937,19.956162160822238,42.406653648253844,45.36540994707051,-10,-10,10,10,33,23,23,43,43,3.1622776601683795,10,3.1622776601683795,10
10,19,0.3684653999953298,p,19.2,Unlimited Time,i,23.709166740896574,45.486818446074835,36.70031487804659,19.23211345982305,23.709166740896574,19.23211345982305,45.486818446074835,36.70031487804659,-10,-10,10,10,33,23,23,43,43,3.1622776601683795,10,3.1622776601683795,10
10,20,0.342586200000369,w,42.2,Unlimited Time,i,25.349934241012548,42.1596065914035,42.6316040874256,29.1995314858115,25.349934241012548,29.1995314858115,42.1596065914035,42.6316040874256,-10,-10,10,10,33,23,23,43,43,3.1622776601683795,10,3.1622776601683795,10
11,1,,,0.0,Limited Time - 400ms,i,24.82957661365718,39.72368423732669,44.75162453804214,15.686054848980097,24.82957661365718,15.686054848980097,39.72368423732669,44.75162453804214,-10,-10,10,10,33,23,23,43,43,3.1622776601683795,10,3.1622776601683795,10
11,2,0.16755949999787845,q,22.8,Limited Time - 400ms,i,22.828709618945158,45.48371721401961,34.63549417967912,20.36743159091599,22.828709618945158,20.36743159091599,45.48371721401961,34.63549417967912,-10,-10,10,10,33,23,23,43,43,3.1622776601683795,10,3.1622776601683795,10
11,3,0.06750589999137446,p,20.6,Limited Time - 400ms,i,17.089425825838195,46.59188299412777,48.39449136477516,20.582015451191406,17.089425825838195,20.582015451191406,46.59188299412777,48.39449136477516,-10,-10,10,10,33,23,23,43,43,3.1622776601683795,10,3.1622776601683795,10
11,4,0.14774869999382645,w,38.6,Limited Time - 400ms,i,22.048961794235186,38.61253506018377,48.58474644978433,31.046157021935585,22.048961794235186,31.046157021935585,38.61253506018377,48.58474644978433,-10,-10,10,10,33,23,23,43,43,3.1622776601683795,10,3.1622776601683795,10
11,5,0.13246219999564346,o,57.7,Limited Time - 400ms,i,22.76731033849673,48.07416799412498,57.71096572018649,28.715035215901842,22.76731033849673,28.715035215901842,48.07416799412498,57.71096572018649,-10,-10,10,10,33,23,23,43,43,3.1622776601683795,10,3.1622776601683795,10
11,6,,,0.0,Limited Time - 400ms,i,23.319747803734124,44.45048128723419,42.57252940451922,10.974537700235057,23.319747803734124,10.974537700235057,44.45048128723419,42.57252940451922,-10,-10,10,10,33,23,23,43,43,3.1622776601683795,10,3.1622776601683795,10
11,7,0.3639499999990221,o,35.8,Limited Time - 400ms,i,21.747602530437007,43.74600590113182,35.77458495040864,19.40046707638829,21.747602530437007,19.40046707638829,43.74600590113182,35.77458495040864,-10,-10,10,10,33,23,23,43,43,3.1622776601683795,10,3.1622776601683795,10
11,8,,,0.0,Limited Time - 400ms,i,22.727456454329193,44.1651112225717,54.58562836394096,10.08847714197502,22.727456454329193,10.08847714197502,44.1651112225717,54.58562836394096,-10,-10,10,10,33,23,23,43,43,3.1622776601683795,10,3.1622776601683795,10
11,9,0.0185087999998359,w,42.3,Limited Time - 400ms,i,25.23433565602587,42.339185205017934,35.10201310597007,15.590227231986876,25.23433565602587,15.590227231986876,42.339185205017934,35.10201310597007,-10,-10,10,10,33,23,23,43,43,3.1622776601683795,10,3.1622776601683795,10
11,10,0.34634360000200104,q,27.1,Limited Time - 400ms,i,27.06845699045502,42.37811331821809,47.37541017205061,17.021036783396152,27.06845699045502,17.021036783396152,42.37811331821809,47.37541017205061,-10,-10,10,10,33,23,23,43,43,3.1622776601683795,10,3.1622776601683795,10
11,11,,,0.0,Limited Time - 400ms,i,24.9610886399851,50.05536896077386,31.310148083823726,19.139430758728512,24.9610886399851,19.139430758728512,50.05536896077386,31.310148083823726,-10,-10,10,10,33,23,23,43,43,3.1622776601683795,10,3.1622776601683795,10
11,12,0.009199699998134747,q,20.6,Limited Time - 400ms,i,20.552503749285815,44.61644920278241,42.65312627792627,8.622867090375099,20.552503749285815,8.622867090375099,44.61644920278241,42.65312627792627,-10,-10,10,10,33,23,23,43,43,3.1622776601683795,10,3.1622776601683795,10
11,13,,,0.0,Limited Time - 400ms,i,25.808665301145453,40.84265327245301,41.8259695781648,20.529241340825106,25.808665301145453,20.529241340825106,40.84265327245301,41.8259695781648,-10,-10,10,10,33,23,23,43,43,3.1622776601683795,10,3.1622776601683795,10
11,14,0.28887249999388587,w,41.2,Limited Time - 400ms,i,20.078214014435638,41.152688369549146,29.105020293916905,31.92532025439797,20.078214014435638,31.92532025439797,41.152688369549146,29.105020293916905,-10,-10,10,10,33,23,23,43,43,3.1622776601683795,10,3.1622776601683795,10
11,15,0.13500069998553954,o,31.3,Limited Time - 400ms,i,22.026330321611056,42.774302337871084,31.337379929576326,22.478344916305616,22.026330321611056,22.478344916305616,42.774302337871084,31.337379929576326,-10,-10,10,10,33,23,23,43,43,3.1622776601683795,10,3.1622776601683795,10
11,16,0.3228774000017438,p,35.4,Limited Time - 400ms,i,24.379408693945905,49.030062332294,46.02433971975746,35.38367062437814,24.379408693945905,35.38367062437814,49.030062332294,46.02433971975746,-10,-10,10,10,33,23,23,43,43,3.1622776601683795,10,3.1622776601683795,10
11,17,0.34122329999809153,o,30.9,Limited Time - 400ms,i,22.403065306978156,41.28483727876646,30.85773800170367,13.796942795213385,22.403065306978156,13.796942795213385,41.28483727876646,30.85773800170367,-10,-10,10,10,33,23,23,43,43,3.1622776601683795,10,3.1622776601683795,10
11,18,0.3513111000065692,q,17.1,Limited Time - 400ms,i,17.068755505130937,42.406653648253844,45.36540994707051,19.956162160822238,17.068755505130937,19.956162160822238,42.406653648253844,45.36540994707051,-10,-10,10,10,33,23,23,43,43,3.1622776601683795,10,3.1622776601683795,10
11,19,,,0.0,Limited Time - 400ms,i,23.709166740896574,45.486818446074835,36.70031487804659,19.23211345982305,23.709166740896574,19.23211345982305,45.486818446074835,36.70031487804659,-10,-10,10,10,33,23,23,43,43,3.1622776601683795,10,3.1622776601683795,10
11,20,0.09543119999580085,o,42.6,Limited Time - 400ms,i,25.349934241012548,42.1596065914035,42.6316040874256,29.1995314858115,25.349934241012548,29.1995314858115,42.1596065914035,42.6316040874256,-10,-10,10,10,33,23,23,43,43,3.1622776601683795,10,3.1622776601683795,10
12,1,0.6647293999994872,w,15.7,Limited Time - 800ms,i,44.75162453804214,15.686054848980097,24.82957661365718,39.72368423732669,24.82957661365718,15.686054848980097,39.72368423732669,44.75162453804214,-10,-10,10,10,33,23,23,43,43,3.1622776601683795,10,3.1622776601683795,10
12,2,0.3607770999951754,w,20.4,Limited Time - 800ms,i,34.63549417967912,20.36743159091599,22.828709618945158,45.48371721401961,22.828709618945158,20.36743159091599,45.48371721401961,34.63549417967912,-10,-10,10,10,33,23,23,43,43,3.1622776601683795,10,3.1622776601683795,10
12,3,0.5361676000029547,w,20.6,Limited Time - 800ms,i,48.39449136477516,20.582015451191406,17.089425825838195,46.59188299412777,17.089425825838195,20.582015451191406,46.59188299412777,48.39449136477516,-10,-10,10,10,33,23,23,43,43,3.1622776601683795,10,3.1622776601683795,10
12,4,0.6672940999997081,w,31.0,Limited Time - 800ms,i,48.58474644978433,31.046157021935585,22.048961794235186,38.61253506018377,22.048961794235186,31.046157021935585,38.61253506018377,48.58474644978433,-10,-10,10,10,33,23,23,43,43,3.1622776601683795,10,3.1622776601683795,10
12,5,0.4168000999925425,w,28.7,Limited Time - 800ms,i,57.71096572018649,28.715035215901842,22.76731033849673,48.07416799412498,22.76731033849673,28.715035215901842,48.07416799412498,57.71096572018649,-10,-10,10,10,33,23,23,43,43,3.1622776601683795,10,3.1622776601683795,10
12,6,0.5010020999907283,w,11.0,Limited Time - 800ms,i,42.57252940451922,10.974537700235057,23.319747803734124,44.45048128723419,23.319747803734124,10.974537700235057,44.45048128723419,42.57252940451922,-10,-10,10,10,33,23,23,43,43,3.1622776601683795,10,3.1622776601683795,10
12,7,0.3480063000024529,w,19.4,Limited Time - 800ms,i,35.77458495040864,19.40046707638829,21.747602530437007,43.74600590113182,21.747602530437007,19.40046707638829,43.74600590113182,35.77458495040864,-10,-10,10,10,33,23,23,43,43,3.1622776601683795,10,3.1622776601683795,10
12,8,0.36232210000162013,p,44.2,Limited Time - 800ms,i,54.58562836394096,10.08847714197502,22.727456454329193,44.1651112225717,22.727456454329193,10.08847714197502,44.1651112225717,54.58562836394096,-10,-10,10,10,33,23,23,43,43,3.1622776601683795,10,3.1622776601683795,10
12,9,0.4320293000055244,w,15.6,Limited Time - 800ms,i,35.10201310597007,15.590227231986876,25.23433565602587,42.339185205017934,25.23433565602587,15.590227231986876,42.339185205017934,35.10201310597007,-10,-10,10,10,33,23,23,43,43,3.1622776601683795,10,3.1622776601683795,10
12,10,0.577994099992793,p,42.4,Limited Time - 800ms,i,47.37541017205061,17.021036783396152,27.06845699045502,42.37811331821809,27.06845699045502,17.021036783396152,42.37811331821809,47.37541017205061,-10,-10,10,10,33,23,23,43,43,3.1622776601683795,10,3.1622776601683795,10
12,11,,,0.0,Limited Time - 800ms,i,31.310148083823726,19.139430758728512,24.9610886399851,50.05536896077386,24.9610886399851,19.139430758728512,50.05536896077386,31.310148083823726,-10,-10,10,10,33,23,23,43,43,3.1622776601683795,10,3.1622776601683795,10
12,12,0.37389459999394603,p,44.6,Limited Time - 800ms,i,42.65312627792627,8.622867090375099,20.552503749285815,44.61644920278241,20.552503749285815,8.622867090375099,44.61644920278241,42.65312627792627,-10,-10,10,10,33,23,23,43,43,3.1622776601683795,10,3.1622776601683795,10
12,13,0.3897388999903342,w,20.5,Limited Time - 800ms,i,41.8259695781648,20.529241340825106,25.808665301145453,40.84265327245301,25.808665301145453,20.529241340825106,40.84265327245301,41.8259695781648,-10,-10,10,10,33,23,23,43,43,3.1622776601683795,10,3.1622776601683795,10
12,14,0.4087994000001345,q,29.1,Limited Time - 800ms,i,29.105020293916905,31.92532025439797,20.078214014435638,41.152688369549146,20.078214014435638,31.92532025439797,41.152688369549146,29.105020293916905,-10,-10,10,10,33,23,23,43,43,3.1622776601683795,10,3.1622776601683795,10
12,15,0.2869800999906147,p,42.8,Limited Time - 800ms,i,31.337379929576326,22.478344916305616,22.026330321611056,42.774302337871084,22.026330321611056,22.478344916305616,42.774302337871084,31.337379929576326,-10,-10,10,10,33,23,23,43,43,3.1622776601683795,10,3.1622776601683795,10
12,16,0.1467110999947181,o,24.4,Limited Time - 800ms,i,46.02433971975746,35.38367062437814,24.379408693945905,49.030062332294,24.379408693945905,35.38367062437814,49.030062332294,46.02433971975746,-10,-10,10,10,33,23,23,43,43,3.1622776601683795,10,3.1622776601683795,10
12,17,0.5868361999891931,p,41.3,Limited Time - 800ms,i,30.85773800170367,13.796942795213385,22.403065306978156,41.28483727876646,22.403065306978156,13.796942795213385,41.28483727876646,30.85773800170367,-10,-10,10,10,33,23,23,43,43,3.1622776601683795,10,3.1622776601683795,10
12,18,0.5400021000095876,q,45.4,Limited Time - 800ms,i,45.36540994707051,19.956162160822238,17.068755505130937,42.406653648253844,17.068755505130937,19.956162160822238,42.406653648253844,45.36540994707051,-10,-10,10,10,33,23,23,43,43,3.1622776601683795,10,3.1622776601683795,10
12,19,0.08522850000008475,o,23.7,Limited Time - 800ms,i,36.70031487804659,19.23211345982305,23.709166740896574,45.486818446074835,23.709166740896574,19.23211345982305,45.486818446074835,36.70031487804659,-10,-10,10,10,33,23,23,43,43,3.1622776601683795,10,3.1622776601683795,10
12,20,0.10054660000605509,q,42.6,Limited Time - 800ms,i,42.6316040874256,29.1995314858115,25.349934241012548,42.1596065914035,25.349934241012548,29.1995314858115,42.1596065914035,42.6316040874256,-10,-10,10,10,33,23,23,43,43,3.1622776601683795,10,3.1622776601683795,10
13,1,0.6516827000014018,o,35.5,Unlimited Time,e,42.85124423752515,23.032853303073313,35.5010905823472,39.455106065732174,35.5010905823472,39.455106065732174,23.032853303073313,42.85124423752515,0,0,0,0,33,33,33,33,33,3.1622776601683795,6.324555320336759,8.366600265340756,10
13,2,0.5104254000034416,p,38.1,Unlimited Time,e,16.51893156522983,32.70891891458638,38.096327560328554,38.05138311311722,38.096327560328554,38.05138311311722,32.70891891458638,16.51893156522983,0,0,0,0,33,33,33,33,33,3.1622776601683795,6.324555320336759,8.366600265340756,10
13,3,0.3901788000075612,w,27.5,Unlimited Time,e,10.12153033260078,27.450663360768075,31.040270602265526,49.3709406007258,31.040270602265526,49.3709406007258,27.450663360768075,10.12153033260078,0,0,0,0,33,33,33,33,33,3.1622776601683795,6.324555320336759,8.366600265340756,10
13,4,0.412133800011361,p,25.3,Unlimited Time,e,23.801801815132695,26.2873751749341,35.01808790441329,25.26503340498867,35.01808790441329,25.26503340498867,26.2873751749341,23.801801815132695,0,0,0,0,33,33,33,33,33,3.1622776601683795,6.324555320336759,8.366600265340756,10
13,5,0.2827871000044979,q,17.1,Unlimited Time,e,17.078577403446324,45.84462934729344,33.224508653330986,31.695022245475894,33.224508653330986,31.695022245475894,45.84462934729344,17.078577403446324,0,0,0,0,33,33,33,33,33,3.1622776601683795,6.324555320336759,8.366600265340756,10
13,6,0.22560770000563934,w,36.1,Unlimited Time,e,31.58949407608591,36.109951784156834,37.446626133490305,27.657022468529817,37.446626133490305,27.657022468529817,36.109951784156834,31.58949407608591,0,0,0,0,33,33,33,33,33,3.1622776601683795,6.324555320336759,8.366600265340756,10
13,7,0.4815348000120139,o,31.9,Unlimited Time,e,46.22545134988214,41.29349870963051,31.905365363905737,31.30703928847841,31.905365363905737,31.30703928847841,41.29349870963051,46.22545134988214,0,0,0,0,33,33,33,33,33,3.1622776601683795,6.324555320336759,8.366600265340756,10
13,8,0.2058662000054028,p,37.1,Unlimited Time,e,24.55813696392886,34.867558004947185,30.189341762866604,37.09154197864113,30.189341762866604,37.09154197864113,34.867558004947185,24.55813696392886,0,0,0,0,33,33,33,33,33,3.1622776601683795,6.324555320336759,8.366600265340756,10
13,9,0.37735090000205673,o,27.1,Unlimited Time,e,62.56045303966443,39.421220429845846,27.088335760267732,29.904494714751266,27.088335760267732,29.904494714751266,39.421220429845846,62.56045303966443,0,0,0,0,33,33,33,33,33,3.1622776601683795,6.324555320336759,8.366600265340756,10
13,10,0.3471994999999879,q,21.8,Unlimited Time,e,21.84446921136986,24.570442959546547,26.644716562918223,34.1254917164619,26.644716562918223,34.1254917164619,24.570442959546547,21.84446921136986,0,0,0,0,33,33,33,33,33,3.1622776601683795,6.324555320336759,8.366600265340756,10
13,11,0.3611127000040142,o,32.0,Unlimited Time,e,27.050905260829715,36.99049099715862,32.01691975006354,38.375475283158835,32.01691975006354,38.375475283158835,36.99049099715862,27.050905260829715,0,0,0,0,33,33,33,33,33,3.1622776601683795,6.324555320336759,8.366600265340756,10
13,12,0.31464080000296235,p,26.8,Unlimited Time,e,43.14131346293606,25.335498358376306,30.448690135883442,26.841127787877916,30.448690135883442,26.841127787877916,25.335498358376306,43.14131346293606,0,0,0,0,33,33,33,33,33,3.1622776601683795,6.324555320336759,8.366600265340756,10
13,13,0.23932370000693481,q,33.2,Unlimited Time,e,33.19138900852224,38.688877103937216,32.38560351110274,35.5398274064093,32.38560351110274,35.5398274064093,38.688877103937216,33.19138900852224,0,0,0,0,33,33,33,33,33,3.1622776601683795,6.324555320336759,8.366600265340756,10
13,14,0.30134530000214,w,41.7,Unlimited Time,e,27.256398064259216,41.68800315343662,35.22771261539503,35.83946400670512,35.22771261539503,35.83946400670512,41.68800315343662,27.256398064259216,0,0,0,0,33,33,33,33,33,3.1622776601683795,6.324555320336759,8.366600265340756,10
13,15,0.19478560000425205,o,36.1,Unlimited Time,e,41.59878565624754,37.49459209252182,36.140599023917716,36.91475939512001,36.140599023917716,36.91475939512001,37.49459209252182,41.59878565624754,0,0,0,0,33,33,33,33,33,3.1622776601683795,6.324555320336759,8.366600265340756,10
13,16,0.3332825999968918,p,34.5,Unlimited Time,e,28.681119181761744,39.14787895385786,38.58996803101947,34.461528236586865,38.58996803101947,34.461528236586865,39.14787895385786,28.681119181761744,0,0,0,0,33,33,33,33,33,3.1622776601683795,6.324555320336759,8.366600265340756,10
13,17,0.3590200999897206,w,24.8,Unlimited Time,e,22.65919818705618,24.75587837681981,34.14095081963269,35.44478284248868,34.14095081963269,35.44478284248868,24.75587837681981,22.65919818705618,0,0,0,0,33,33,33,33,33,3.1622776601683795,6.324555320336759,8.366600265340756,10
13,18,0.24890059999597725,p,24.6,Unlimited Time,e,43.17725561247869,32.63749776315692,35.221719016459545,24.57652092293598,35.221719016459545,24.57652092293598,32.63749776315692,43.17725561247869,0,0,0,0,33,33,33,33,33,3.1622776601683795,6.324555320336759,8.366600265340756,10
13,19,0.6969746000104351,o,34.8,Unlimited Time,e,22.205478018114654,31.811609978738993,34.78916734226844,37.59061050073991,34.78916734226844,37.59061050073991,31.811609978738993,22.205478018114654,0,0,0,0,33,33,33,33,33,3.1622776601683795,6.324555320336759,8.366600265340756,10
13,20,0.3123367999942275,w,17.2,Unlimited Time,e,42.960085037571076,17.15466713894333,34.38777824909611,26.56332316498468,34.38777824909611,26.56332316498468,17.15466713894333,42.960085037571076,0,0,0,0,33,33,33,33,33,3.1622776601683795,6.324555320336759,8.366600265340756,10
14,1,,,0.0,Limited Time - 400ms,e,35.5010905823472,23.032853303073313,42.85124423752515,39.455106065732174,35.5010905823472,39.455106065732174,23.032853303073313,42.85124423752515,0,0,0,0,33,33,33,33,33,3.1622776601683795,6.324555320336759,8.366600265340756,10
14,2,0.3313357000006363,p,38.1,Limited Time - 400ms,e,38.096327560328554,32.70891891458638,16.51893156522983,38.05138311311722,38.096327560328554,38.05138311311722,32.70891891458638,16.51893156522983,0,0,0,0,33,33,33,33,33,3.1622776601683795,6.324555320336759,8.366600265340756,10
14,3,0.32231529999990016,q,31.0,Limited Time - 400ms,e,31.040270602265526,27.450663360768075,10.12153033260078,49.3709406007258,31.040270602265526,49.3709406007258,27.450663360768075,10.12153033260078,0,0,0,0,33,33,33,33,33,3.1622776601683795,6.324555320336759,8.366600265340756,10
14,4,,,0.0,Limited Time - 400ms,e,35.01808790441329,26.2873751749341,23.801801815132695,25.26503340498867,35.01808790441329,25.26503340498867,26.2873751749341,23.801801815132695,0,0,0,0,33,33,33,33,33,3.1622776601683795,6.324555320336759,8.366600265340756,10
14,5,0.2484171999967657,q,33.2,Limited Time - 400ms,e,33.224508653330986,45.84462934729344,17.078577403446324,31.695022245475894,33.224508653330986,31.695022245475894,45.84462934729344,17.078577403446324,0,0,0,0,33,33,33,33,33,3.1622776601683795,6.324555320336759,8.366600265340756,10
14,6,,,0.0,Limited Time - 400ms,e,37.446626133490305,36.109951784156834,31.58949407608591,27.657022468529817,37.446626133490305,27.657022468529817,36.109951784156834,31.58949407608591,0,0,0,0,33,33,33,33,33,3.1622776601683795,6.324555320336759,8.366600265340756,10
14,7,0.2275429000001168,p,31.3,Limited Time - 400ms,e,31.905365363905737,41.29349870963051,46.22545134988214,31.30703928847841,31.905365363905737,31.30703928847841,41.29349870963051,46.22545134988214,0,0,0,0,33,33,33,33,33,3.1622776601683795,6.324555320336759,8.366600265340756,10
14,8,0.2815033999941079,o,24.6,Limited Time - 400ms,e,30.189341762866604,34.867558004947185,24.55813696392886,37.09154197864113,30.189341762866604,37.09154197864113,34.867558004947185,24.55813696392886,0,0,0,0,33,33,33,33,33,3.1622776601683795,6.324555320336759,8.366600265340756,10
14,9,0.061676400000578724,p,29.9,Limited Time - 400ms,e,27.088335760267732,39.421220429845846,62.56045303966443,29.904494714751266,27.088335760267732,29.904494714751266,39.421220429845846,62.56045303966443,0,0,0,0,33,33,33,33,33,3.1622776601683795,6.324555320336759,8.366600265340756,10
14,10,,,0.0,Limited Time - 400ms,e,26.644716562918223,24.570442959546547,21.84446921136986,34.1254917164619,26.644716562918223,34.1254917164619,24.570442959546547,21.84446921136986,0,0,0,0,33,33,33,33,33,3.1622776601683795,6.324555320336759,8.366600265340756,10
14,11,,,0.0,Limited Time - 400ms,e,32.01691975006354,36.99049099715862,27.050905260829715,38.375475283158835,32.01691975006354,38.375475283158835,36.99049099715862,27.050905260829715,0,0,0,0,33,33,33,33,33,3.1622776601683795,6.324555320336759,8.366600265340756,10
14,12,0.19646880000072997,w,25.3,Limited Time - 400ms,e,30.448690135883442,25.335498358376306,43.14131346293606,26.841127787877916,30.448690135883442,26.841127787877916,25.335498358376306,43.14131346293606,0,0,0,0,33,33,33,33,33,3.1622776601683795,6.324555320336759,8.366600265340756,10
14,13,,,0.0,Limited Time - 400ms,e,32.38560351110274,38.688877103937216,33.19138900852224,35.5398274064093,32.38560351110274,35.5398274064093,38.688877103937216,33.19138900852224,0,0,0,0,33,33,33,33,33,3.1622776601683795,6.324555320336759,8.366600265340756,10
14,14,0.3229337999946438,o,27.3,Limited Time - 400ms,e,35.22771261539503,41.68800315343662,27.256398064259216,35.83946400670512,35.22771261539503,35.83946400670512,41.68800315343662,27.256398064259216,0,0,0,0,33,33,33,33,33,3.1622776601683795,6.324555320336759,8.366600265340756,10
14,15,,,0.0,Limited Time - 400ms,e,36.140599023917716,37.49459209252182,41.59878565624754,36.91475939512001,36.140599023917716,36.91475939512001,37.49459209252182,41.59878565624754,0,0,0,0,33,33,33,33,33,3.1622776601683795,6.324555320336759,8.366600265340756,10
14,16,,,0.0,Limited Time - 400ms,e,38.58996803101947,39.14787895385786,28.681119181761744,34.461528236586865,38.58996803101947,34.461528236586865,39.14787895385786,28.681119181761744,0,0,0,0,33,33,33,33,33,3.1622776601683795,6.324555320336759,8.366600265340756,10
14,17,0.012917000000015832,q,34.1,Limited Time - 400ms,e,34.14095081963269,24.75587837681981,22.65919818705618,35.44478284248868,34.14095081963269,35.44478284248868,24.75587837681981,22.65919818705618,0,0,0,0,33,33,33,33,33,3.1622776601683795,6.324555320336759,8.366600265340756,10
14,18,0.020714800004498102,w,32.6,Limited Time - 400ms,e,35.221719016459545,32.63749776315692,43.17725561247869,24.57652092293598,35.221719016459545,24.57652092293598,32.63749776315692,43.17725561247869,0,0,0,0,33,33,33,33,33,3.1622776601683795,6.324555320336759,8.366600265340756,10
14,19,0.22315340000204742,o,22.2,Limited Time - 400ms,e,34.78916734226844,31.811609978738993,22.205478018114654,37.59061050073991,34.78916734226844,37.59061050073991,31.811609978738993,22.205478018114654,0,0,0,0,33,33,33,33,33,3.1622776601683795,6.324555320336759,8.366600265340756,10
14,20,,,0.0,Limited Time - 400ms,e,34.38777824909611,17.15466713894333,42.960085037571076,26.56332316498468,34.38777824909611,26.56332316498468,17.15466713894333,42.960085037571076,0,0,0,0,33,33,33,33,33,3.1622776601683795,6.324555320336759,8.366600265340756,10
15,1,0.511387399994419,w,44.9,Limited Time - 800ms,h,20.751283710575173,44.91298919820454,26.98197717608414,18.157026170372095,18.157026170372095,20.751283710575173,26.98197717608414,44.91298919820454,-10,-0.33,0.33,10,33,23,32.67,33.33,43,10,10,10,10
15,2,0.2970688000059454,p,24.4,Limited Time - 800ms,h,14.40942686127044,24.566786606959354,29.001562102440737,24.401037345947174,24.401037345947174,14.40942686127044,29.001562102440737,24.566786606959354,-10,-0.33,0.33,10,33,23,32.67,33.33,43,10,10,10,10
15,3,0.21960379999654833,w,36.6,Limited Time - 800ms,h,30.35649426380974,36.566775291024435,26.30766948580807,24.50427134776494,24.50427134776494,30.35649426380974,26.30766948580807,36.566775291024435,-10,-0.33,0.33,10,33,23,32.67,33.33,43,10,10,10,10
15,4,0.4360434999980498,p,25.1,Limited Time - 800ms,h,21.242533139499077,45.18203519695806,28.8679042428183,25.12880036974322,25.12880036974322,21.242533139499077,28.8679042428183,45.18203519695806,-10,-0.33,0.33,10,33,23,32.67,33.33,43,10,10,10,10
15,5,,,0.0,Limited Time - 800ms,h,29.869634551791304,47.52456993970553,22.396616857730546,36.49430606125724,36.49430606125724,29.869634551791304,22.396616857730546,47.52456993970553,-10,-0.33,0.33,10,33,23,32.67,33.33,43,10,10,10,10
15,6,0.40646909999486525,p,23.6,Limited Time - 800ms,h,37.288219953548754,33.850573675711686,27.135339649773485,23.616206238937345,23.616206238937345,37.288219953548754,27.135339649773485,33.850573675711686,-10,-0.33,0.33,10,33,23,32.67,33.33,43,10,10,10,10
15,7,0.27186360000632703,w,34.7,Limited Time - 800ms,h,27.000102267735826,34.68984930543058,25.812759789912747,18.421241486347288,18.421241486347288,27.000102267735826,25.812759789912747,34.68984930543058,-10,-0.33,0.33,10,33,23,32.67,33.33,43,10,10,10,10
15,8,0.606782300004852,q,48.7,Limited Time - 800ms,h,48.72086902110334,47.90811614039039,30.54491064203533,10.679498187823983,10.679498187823983,48.72086902110334,30.54491064203533,47.90811614039039,-10,-0.33,0.33,10,33,23,32.67,33.33,43,10,10,10,10
15,9,0.2177498000091873,p,9.9,Limited Time - 800ms,h,51.60735772807627,42.725522954140075,46.46796170565092,9.877784474852122,9.877784474852122,51.60735772807627,46.46796170565092,42.725522954140075,-10,-0.33,0.33,10,33,23,32.67,33.33,43,10,10,10,10
15,10,0.7733683999977075,o,39.0,Limited Time - 800ms,h,9.256044336845534,60.08361679270913,38.98905730184109,20.625149879345962,20.625149879345962,9.256044336845534,38.98905730184109,60.08361679270913,-10,-0.33,0.33,10,33,23,32.67,33.33,43,10,10,10,10
15,11,0.3219851000030758,p,19.1,Limited Time - 800ms,h,30.465008257211785,36.5913671215717,46.353690494894806,19.067342935814533,19.067342935814533,30.465008257211785,46.353690494894806,36.5913671215717,-10,-0.33,0.33,10,33,23,32.67,33.33,43,10,10,10,10
15,12,0.3910119000065606,q,16.7,Limited Time - 800ms,h,16.72359481469007,38.49240603094548,30.184284445934914,17.657039183658263,17.657039183658263,16.72359481469007,30.184284445934914,38.49240603094548,-10,-0.33,0.33,10,33,23,32.67,33.33,43,10,10,10,10
15,13,,,0.0,Limited Time - 800ms,h,41.52300573374151,58.86530324205124,38.592099288941306,14.921502198174288,14.921502198174288,41.52300573374151,38.592099288941306,58.86530324205124,-10,-0.33,0.33,10,33,23,32.67,33.33,43,10,10,10,10
15,14,0.4015307999943616,w,44.8,Limited Time - 800ms,h,14.531821621166284,44.75901748857281,15.665717545198326,26.10172950935535,26.10172950935535,14.531821621166284,15.665717545198326,44.75901748857281,-10,-0.33,0.33,10,33,23,32.67,33.33,43,10,10,10,10
15,15,,,0.0,Limited Time - 800ms,h,50.22446522388583,50.10453987363869,25.67153701425937,21.07548700791641,21.07548700791641,50.22446522388583,25.67153701425937,50.10453987363869,-10,-0.33,0.33,10,33,23,32.67,33.33,43,10,10,10,10
15,16,0.38145390000136103,q,39.9,Limited Time - 800ms,h,39.86487971744981,46.17812130958061,16.95719357179458,13.901011785506817,13.901011785506817,39.86487971744981,16.95719357179458,46.17812130958061,-10,-0.33,0.33,10,33,23,32.67,33.33,43,10,10,10,10
15,17,0.08073729999887291,p,11.4,Limited Time - 800ms,h,40.55457555282058,45.09387278336503,28.690135452314365,11.422322402062779,11.422322402062779,40.55457555282058,28.690135452314365,45.09387278336503,-10,-0.33,0.33,10,33,23,32.67,33.33,43,10,10,10,10
15,18,0.6228522000019439,o,40.2,Limited Time - 800ms,h,22.529391610951095,40.743268568008226,40.22693593424503,18.590604817833057,18.590604817833057,22.529391610951095,40.22693593424503,40.743268568008226,-10,-0.33,0.33,10,33,23,32.67,33.33,43,10,10,10,10
15,19,0.29788579999876674,p,10.3,Limited Time - 800ms,h,55.03898329959727,45.67130584628735,23.13019784579737,10.250644757300286,10.250644757300286,55.03898329959727,23.13019784579737,45.67130584628735,-10,-0.33,0.33,10,33,23,32.67,33.33,43,10,10,10,10
15,20,,,0.0,Limited Time - 800ms,h,19.944699474746596,44.60493430198809,41.24287807949405,29.802661350857548,29.802661350857548,19.944699474746596,41.24287807949405,44.60493430198809,-10,-0.33,0.33,10,33,23,32.67,33.33,43,10,10,10,10
16,1,0.9600482000096235,o,27.0,Unlimited Time,h,44.91298919820454,20.751283710575173,26.98197717608414,18.157026170372095,18.157026170372095,20.751283710575173,26.98197717608414,44.91298919820454,-10,-0.33,0.33,10,33,23,32.67,33.33,43,10,10,10,10
16,2,0.09491569999954663,w,14.4,Unlimited Time,h,24.566786606959354,14.40942686127044,29.001562102440737,24.401037345947174,24.401037345947174,14.40942686127044,29.001562102440737,24.566786606959354,-10,-0.33,0.33,10,33,23,32.67,33.33,43,10,10,10,10
16,3,0.3366923999856226,p,24.5,Unlimited Time,h,36.566775291024435,30.35649426380974,26.30766948580807,24.50427134776494,24.50427134776494,30.35649426380974,26.30766948580807,36.566775291024435,-10,-0.33,0.33,10,33,23,32.67,33.33,43,10,10,10,10
16,4,0.43894059999729507,q,45.2,Unlimited Time,h,45.18203519695806,21.242533139499077,28.8679042428183,25.12880036974322,25.12880036974322,21.242533139499077,28.8679042428183,45.18203519695806,-10,-0.33,0.33,10,33,23,32.67,33.33,43,10,10,10,10
16,5,0.3949824999872362,w,29.9,Unlimited Time,h,47.52456993970553,29.869634551791304,22.396616857730546,36.49430606125724,36.49430606125724,29.869634551791304,22.396616857730546,47.52456993970553,-10,-0.33,0.33,10,33,23,32.67,33.33,43,10,10,10,10
16,6,0.6607402999943588,o,27.1,Unlimited Time,h,33.850573675711686,37.288219953548754,27.135339649773485,23.616206238937345,23.616206238937345,37.288219953548754,27.135339649773485,33.850573675711686,-10,-0.33,0.33,10,33,23,32.67,33.33,43,10,10,10,10
16,7,0.1335356000054162,p,18.4,Unlimited Time,h,34.68984930543058,27.000102267735826,25.812759789912747,18.421241486347288,18.421241486347288,27.000102267735826,25.812759789912747,34.68984930543058,-10,-0.33,0.33,10,33,23,32.67,33.33,43,10,10,10,10
16,8,0.7216077000048244,p,10.7,Unlimited Time,h,47.90811614039039,48.72086902110334,30.54491064203533,10.679498187823983,10.679498187823983,48.72086902110334,30.54491064203533,47.90811614039039,-10,-0.33,0.33,10,33,23,32.67,33.33,43,10,10,10,10
16,9,0.04901390000304673,q,42.7,Unlimited Time,h,42.725522954140075,51.60735772807627,46.46796170565092,9.877784474852122,9.877784474852122,51.60735772807627,46.46796170565092,42.725522954140075,-10,-0.33,0.33,10,33,23,32.67,33.33,43,10,10,10,10
16,10,0.00608339998871088,w,9.3,Unlimited Time,h,60.08361679270913,9.256044336845534,38.98905730184109,20.625149879345962,20.625149879345962,9.256044336845534,38.98905730184109,60.08361679270913,-10,-0.33,0.33,10,33,23,32.67,33.33,43,10,10,10,10
16,11,0.06363950000377372,o,46.4,Unlimited Time,h,36.5913671215717,30.465008257211785,46.353690494894806,19.067342935814533,19.067342935814533,30.465008257211785,46.353690494894806,36.5913671215717,-10,-0.33,0.33,10,33,23,32.67,33.33,43,10,10,10,10
16,12,0.4799854000011692,p,17.7,Unlimited Time,h,38.49240603094548,16.72359481469007,30.184284445934914,17.657039183658263,17.657039183658263,16.72359481469007,30.184284445934914,38.49240603094548,-10,-0.33,0.33,10,33,23,32.67,33.33,43,10,10,10,10
16,13,0.32342590000189375,o,38.6,Unlimited Time,h,58.86530324205124,41.52300573374151,38.592099288941306,14.921502198174288,14.921502198174288,41.52300573374151,38.592099288941306,58.86530324205124,-10,-0.33,0.33,10,33,23,32.67,33.33,43,10,10,10,10
16,14,0.10397700000612531,q,44.8,Unlimited Time,h,44.75901748857281,14.531821621166284,15.665717545198326,26.10172950935535,26.10172950935535,14.531821621166284,15.665717545198326,44.75901748857281,-10,-0.33,0.33,10,33,23,32.67,33.33,43,10,10,10,10
16,15,0.24583509999501985,w,50.2,Unlimited Time,h,50.10453987363869,50.22446522388583,25.67153701425937,21.07548700791641,21.07548700791641,50.22446522388583,25.67153701425937,50.10453987363869,-10,-0.33,0.33,10,33,23,32.67,33.33,43,10,10,10,10
16,16,0.5758127000008244,w,39.9,Unlimited Time,h,46.17812130958061,39.86487971744981,16.95719357179458,13.901011785506817,13.901011785506817,39.86487971744981,16.95719357179458,46.17812130958061,-10,-0.33,0.33,10,33,23,32.67,33.33,43,10,10,10,10
16,17,0.17428029999427963,p,11.4,Unlimited Time,h,45.09387278336503,40.55457555282058,28.690135452314365,11.422322402062779,11.422322402062779,40.55457555282058,28.690135452314365,45.09387278336503,-10,-0.33,0.33,10,33,23,32.67,33.33,43,10,10,10,10
16,18,0.2277277000102913,o,40.2,Unlimited Time,h,40.743268568008226,22.529391610951095,40.22693593424503,18.590604817833057,18.590604817833057,22.529391610951095,40.22693593424503,40.743268568008226,-10,-0.33,0.33,10,33,23,32.67,33.33,43,10,10,10,10
16,19,0.5295240999985253,q,45.7,Unlimited Time,h,45.67130584628735,55.03898329959727,23.13019784579737,10.250644757300286,10.250644757300286,55.03898329959727,23.13019784579737,45.67130584628735,-10,-0.33,0.33,10,33,23,32.67,33.33,43,10,10,10,10
16,20,0.7757996000000276,p,29.8,Unlimited Time,h,44.60493430198809,19.944699474746596,41.24287807949405,29.802661350857548,29.802661350857548,19.944699474746596,41.24287807949405,44.60493430198809,-10,-0.33,0.33,10,33,23,32.67,33.33,43,10,10,10,10
17,1,,,0.0,Limited Time - 400ms,l,40.088697188278985,17.539902845913296,43.003227061949914,38.75524080584201,17.539902845913296,38.75524080584201,40.088697188278985,43.003227061949914,-10,-0.33,0.33,10,33,23,32.67,33.33,43,3.1622776601683795,3.1622776601683795,3.1622776601683795,3.1622776601683795
17,2,0.33061990000715014,q,30.0,Limited Time - 400ms,l,30.04307925665251,19.285278352803655,46.18840782811235,32.857504335419414,19.285278352803655,32.857504335419414,30.04307925665251,46.18840782811235,-10,-0.33,0.33,10,33,23,32.67,33.33,43,3.1622776601683795,3.1622776601683795,3.1622776601683795,3.1622776601683795
17,3,0.1516091000084998,w,18.4,Limited Time - 400ms,l,31.468850615860852,18.441823203068285,40.570445151032764,36.83518412004544,18.441823203068285,36.83518412004544,31.468850615860852,40.570445151032764,-10,-0.33,0.33,10,33,23,32.67,33.33,43,3.1622776601683795,3.1622776601683795,3.1622776601683795,3.1622776601683795
17,4,,,0.0,Limited Time - 400ms,l,34.74856609384513,21.39111798153117,40.46677405859923,31.133932412376275,21.39111798153117,31.133932412376275,34.74856609384513,40.46677405859923,-10,-0.33,0.33,10,33,23,32.67,33.33,43,3.1622776601683795,3.1622776601683795,3.1622776601683795,3.1622776601683795
17,5,0.12182820000452921,q,31.7,Limited Time - 400ms,l,31.655231555052623,18.101958327181624,43.62708233778104,36.2543458230025,18.101958327181624,36.2543458230025,31.655231555052623,43.62708233778104,-10,-0.33,0.33,10,33,23,32.67,33.33,43,3.1622776601683795,3.1622776601683795,3.1622776601683795,3.1622776601683795
17,6,0.06094009999651462,w,23.0,Limited Time - 400ms,l,34.30187909078462,23.011604164793923,42.77225097455334,33.65236620972106,23.011604164793923,33.65236620972106,34.30187909078462,42.77225097455334,-10,-0.33,0.33,10,33,23,32.67,33.33,43,3.1622776601683795,3.1622776601683795,3.1622776601683795,3.1622776601683795
17,7,,,0.0,Limited Time - 400ms,l,29.860931526396065,23.54187517646803,46.93826590034199,36.606303887751274,23.54187517646803,36.606303887751274,29.860931526396065,46.93826590034199,-10,-0.33,0.33,10,33,23,32.67,33.33,43,3.1622776601683795,3.1622776601683795,3.1622776601683795,3.1622776601683795
17,8,0.3711475000018254,p,39.1,Limited Time - 400ms,l,32.54808212814128,18.156714927199715,42.82166775139572,39.08570571930083,18.156714927199715,39.08570571930083,32.54808212814128,42.82166775139572,-10,-0.33,0.33,10,33,23,32.67,33.33,43,3.1622776601683795,3.1622776601683795,3.1622776601683795,3.1622776601683795
17,9,0.1598463999980595,w,25.6,Limited Time - 400ms,l,34.49735880623887,25.620407285942875,43.37128055170047,27.01162269346313,25.620407285942875,27.01162269346313,34.49735880623887,43.37128055170047,-10,-0.33,0.33,10,33,23,32.67,33.33,43,3.1622776601683795,3.1622776601683795,3.1622776601683795,3.1622776601683795
17,10,,,0.0,Limited Time - 400ms,l,32.35246763864375,23.179532147986343,45.07940455109561,24.588580708121967,23.179532147986343,24.588580708121967,32.35246763864375,45.07940455109561,-10,-0.33,0.33,10,33,23,32.67,33.33,43,3.1622776601683795,3.1622776601683795,3.1622776601683795,3.1622776601683795
17,11,0.29439260000071954,p,31.3,Limited Time - 400ms,l,28.87698523819912,18.590485248534556,43.71208386330351,31.33290690805493,18.590485248534556,31.33290690805493,28.87698523819912,43.71208386330351,-10,-0.33,0.33,10,33,23,32.67,33.33,43,3.1622776601683795,3.1622776601683795,3.1622776601683795,3.1622776601683795
17,12,0.3172440999915125,o,46.0,Limited Time - 400ms,l,33.65922486419396,25.99373459959448,46.00982410005707,29.043131927950572,25.99373459959448,29.043131927950572,33.65922486419396,46.00982410005707,-10,-0.33,0.33,10,33,23,32.67,33.33,43,3.1622776601683795,3.1622776601683795,3.1622776601683795,3.1622776601683795
17,13,0.2868190000008326,q,37.1,Limited Time - 400ms,l,37.082000349783065,21.547734484653024,41.31551213249297,38.81776635352935,21.547734484653024,38.81776635352935,37.082000349783065,41.31551213249297,-10,-0.33,0.33,10,33,23,32.67,33.33,43,3.1622776601683795,3.1622776601683795,3.1622776601683795,3.1622776601683795
17,14,0.19452049999381416,o,45.0,Limited Time - 400ms,l,31.28312617371396,27.552613226365715,44.95248522601276,34.60071989171716,27.552613226365715,34.60071989171716,31.28312617371396,44.95248522601276,-10,-0.33,0.33,10,33,23,32.67,33.33,43,3.1622776601683795,3.1622776601683795,3.1622776601683795,3.1622776601683795
17,15,,,0.0,Limited Time - 400ms,l,36.46044408763818,22.366484791170738,39.0710842531283,26.900336253487538,22.366484791170738,26.900336253487538,36.46044408763818,39.0710842531283,-10,-0.33,0.33,10,33,23,32.67,33.33,43,3.1622776601683795,3.1622776601683795,3.1622776601683795,3.1622776601683795
17,16,0.076743899990106,p,35.6,Limited Time - 400ms,l,37.76201292001858,23.953476433662786,45.00645985868829,35.579602028552316,23.953476433662786,35.579602028552316,37.76201292001858,45.00645985868829,-10,-0.33,0.33,10,33,23,32.67,33.33,43,3.1622776601683795,3.1622776601683795,3.1622776601683795,3.1622776601683795
17,17,0.009601300000213087,w,28.5,Limited Time - 400ms,l,28.488736564030603,28.450020970854727,40.88177247827665,37.89998946235925,28.450020970854727,37.89998946235925,28.488736564030603,40.88177247827665,-10,-0.33,0.33,10,33,23,32.67,33.33,43,3.1622776601683795,3.1622776601683795,3.1622776601683795,3.1622776601683795
17,18,0.2562218999955803,p,34.8,Limited Time - 400ms,l,29.42383164676724,19.667414519415594,42.339601514581034,34.84976310679838,19.667414519415594,34.84976310679838,29.42383164676724,42.339601514581034,-10,-0.33,0.33,10,33,23,32.67,33.33,43,3.1622776601683795,3.1622776601683795,3.1622776601683795,3.1622776601683795
17,19,0.3243625000031898,o,36.3,Limited Time - 400ms,l,36.64187739302879,21.760959395434565,36.29210536226833,32.084682717286555,21.760959395434565,32.084682717286555,36.64187739302879,36.29210536226833,-10,-0.33,0.33,10,33,23,32.67,33.33,43,3.1622776601683795,3.1622776601683795,3.1622776601683795,3.1622776601683795
17,20,0.19585920000099577,p,39.6,Limited Time - 400ms,l,35.943772867331354,18.521020652305992,50.62423487232402,39.60631404086783,18.521020652305992,39.60631404086783,35.943772867331354,50.62423487232402,-10,-0.33,0.33,10,33,23,32.67,33.33,43,3.1622776601683795,3.1622776601683795,3.1622776601683795,3.1622776601683795
18,1,0.6567489000008209,w,42.9,Limited Time - 800ms,e,39.455106065732174,42.85124423752515,23.032853303073313,35.5010905823472,35.5010905823472,39.455106065732174,23.032853303073313,42.85124423752515,0,0,0,0,33,33,33,33,33,3.1622776601683795,6.324555320336759,8.366600265340756,10
18,2,0.06527779999305494,o,32.7,Limited Time - 800ms,e,38.05138311311722,16.51893156522983,32.70891891458638,38.096327560328554,38.096327560328554,38.05138311311722,32.70891891458638,16.51893156522983,0,0,0,0,33,33,33,33,33,3.1622776601683795,6.324555320336759,8.366600265340756,10
18,3,0.18658769999456126,q,49.4,Limited Time - 800ms,e,49.3709406007258,10.12153033260078,27.450663360768075,31.040270602265526,31.040270602265526,49.3709406007258,27.450663360768075,10.12153033260078,0,0,0,0,33,33,33,33,33,3.1622776601683795,6.324555320336759,8.366600265340756,10
18,4,0.06566839999868535,o,26.3,Limited Time - 800ms,e,25.26503340498867,23.801801815132695,26.2873751749341,35.01808790441329,35.01808790441329,25.26503340498867,26.2873751749341,23.801801815132695,0,0,0,0,33,33,33,33,33,3.1622776601683795,6.324555320336759,8.366600265340756,10
18,5,0.43191400000068825,w,17.1,Limited Time - 800ms,e,31.695022245475894,17.078577403446324,45.84462934729344,33.224508653330986,33.224508653330986,31.695022245475894,45.84462934729344,17.078577403446324,0,0,0,0,33,33,33,33,33,3.1622776601683795,6.324555320336759,8.366600265340756,10
18,6,0.575836399992113,o,36.1,Limited Time - 800ms,e,27.657022468529817,31.58949407608591,36.109951784156834,37.446626133490305,37.446626133490305,27.657022468529817,36.109951784156834,31.58949407608591,0,0,0,0,33,33,33,33,33,3.1622776601683795,6.324555320336759,8.366600265340756,10
18,7,0.3382947000063723,p,31.9,Limited Time - 800ms,e,31.30703928847841,46.22545134988214,41.29349870963051,31.905365363905737,31.905365363905737,31.30703928847841,41.29349870963051,46.22545134988214,0,0,0,0,33,33,33,33,33,3.1622776601683795,6.324555320336759,8.366600265340756,10
18,8,0.09618409999529831,q,37.1,Limited Time - 800ms,e,37.09154197864113,24.55813696392886,34.867558004947185,30.189341762866604,30.189341762866604,37.09154197864113,34.867558004947185,24.55813696392886,0,0,0,0,33,33,33,33,33,3.1622776601683795,6.324555320336759,8.366600265340756,10
18,9,0.5369917000061832,o,39.4,Limited Time - 800ms,e,29.904494714751266,62.56045303966443,39.421220429845846,27.088335760267732,27.088335760267732,29.904494714751266,39.421220429845846,62.56045303966443,0,0,0,0,33,33,33,33,33,3.1622776601683795,6.324555320336759,8.366600265340756,10
18,10,0.29727439999987837,p,26.6,Limited Time - 800ms,e,34.1254917164619,21.84446921136986,24.570442959546547,26.644716562918223,26.644716562918223,34.1254917164619,24.570442959546547,21.84446921136986,0,0,0,0,33,33,33,33,33,3.1622776601683795,6.324555320336759,8.366600265340756,10
18,11,0.13838770000438672,w,27.1,Limited Time - 800ms,e,38.375475283158835,27.050905260829715,36.99049099715862,32.01691975006354,32.01691975006354,38.375475283158835,36.99049099715862,27.050905260829715,0,0,0,0,33,33,33,33,33,3.1622776601683795,6.324555320336759,8.366600265340756,10
18,12,0.3913439999887487,p,30.4,Limited Time - 800ms,e,26.841127787877916,43.14131346293606,25.335498358376306,30.448690135883442,30.448690135883442,26.841127787877916,25.335498358376306,43.14131346293606,0,0,0,0,33,33,33,33,33,3.1622776601683795,6.324555320336759,8.366600265340756,10
18,13,0.14542109999456443,w,33.2,Limited Time - 800ms,e,35.5398274064093,33.19138900852224,38.688877103937216,32.38560351110274,32.38560351110274,35.5398274064093,38.688877103937216,33.19138900852224,0,0,0,0,33,33,33,33,33,3.1622776601683795,6.324555320336759,8.366600265340756,10
18,14,0.17172700000810437,p,35.2,Limited Time - 800ms,e,35.83946400670512,27.256398064259216,41.68800315343662,35.22771261539503,35.22771261539503,35.83946400670512,41.68800315343662,27.256398064259216,0,0,0,0,33,33,33,33,33,3.1622776601683795,6.324555320336759,8.366600265340756,10
18,15,,,0.0,Limited Time - 800ms,e,36.91475939512001,41.59878565624754,37.49459209252182,36.140599023917716,36.140599023917716,36.91475939512001,37.49459209252182,41.59878565624754,0,0,0,0,33,33,33,33,33,3.1622776601683795,6.324555320336759,8.366600265340756,10
18,16,0.6670817000122042,o,39.1,Limited Time - 800ms,e,34.461528236586865,28.681119181761744,39.14787895385786,38.58996803101947,38.58996803101947,34.461528236586865,39.14787895385786,28.681119181761744,0,0,0,0,33,33,33,33,33,3.1622776601683795,6.324555320336759,8.366600265340756,10
18,17,,,0.0,Limited Time - 800ms,e,35.44478284248868,22.65919818705618,24.75587837681981,34.14095081963269,34.14095081963269,35.44478284248868,24.75587837681981,22.65919818705618,0,0,0,0,33,33,33,33,33,3.1622776601683795,6.324555320336759,8.366600265340756,10
18,18,0.7781472000060603,q,24.6,Limited Time - 800ms,e,24.57652092293598,43.17725561247869,32.63749776315692,35.221719016459545,35.221719016459545,24.57652092293598,32.63749776315692,43.17725561247869,0,0,0,0,33,33,33,33,33,3.1622776601683795,6.324555320336759,8.366600265340756,10
18,19,0.37720280000939965,o,31.8,Limited Time - 800ms,e,37.59061050073991,22.205478018114654,31.811609978738993,34.78916734226844,34.78916734226844,37.59061050073991,31.811609978738993,22.205478018114654,0,0,0,0,33,33,33,33,33,3.1622776601683795,6.324555320336759,8.366600265340756,10
18,20,0.2269083999999566,p,34.4,Limited Time - 800ms,e,26.56332316498468,42.960085037571076,17.15466713894333,34.38777824909611,34.38777824909611,26.56332316498468,17.15466713894333,42.960085037571076,0,0,0,0,33,33,33,33,33,3.1622776601683795,6.324555320336759,8.366600265340756,10
19,1,0.697420600001351,o,43.0,Unlimited Time,l,17.539902845913296,40.088697188278985,43.003227061949914,38.75524080584201,17.539902845913296,38.75524080584201,40.088697188278985,43.003227061949914,-10,-0.33,0.33,10,33,23,32.67,33.33,43,3.1622776601683795,3.1622776601683795,3.1622776601683795,3.1622776601683795
19,2,0.4911645999964094,p,32.9,Unlimited Time,l,19.285278352803655,30.04307925665251,46.18840782811235,32.857504335419414,19.285278352803655,32.857504335419414,30.04307925665251,46.18840782811235,-10,-0.33,0.33,10,33,23,32.67,33.33,43,3.1622776601683795,3.1622776601683795,3.1622776601683795,3.1622776601683795
19,3,0.020724499991047196,q,18.4,Unlimited Time,l,18.441823203068285,31.468850615860852,40.570445151032764,36.83518412004544,18.441823203068285,36.83518412004544,31.468850615860852,40.570445151032764,-10,-0.33,0.33,10,33,23,32.67,33.33,43,3.1622776601683795,3.1622776601683795,3.1622776601683795,3.1622776601683795
19,4,0.09067259999574162,w,34.7,Unlimited Time,l,21.39111798153117,34.74856609384513,40.46677405859923,31.133932412376275,21.39111798153117,31.133932412376275,34.74856609384513,40.46677405859923,-10,-0.33,0.33,10,33,23,32.67,33.33,43,3.1622776601683795,3.1622776601683795,3.1622776601683795,3.1622776601683795
19,5,0.19118609999713954,p,36.3,Unlimited Time,l,18.101958327181624,31.655231555052623,43.62708233778104,36.2543458230025,18.101958327181624,36.2543458230025,31.655231555052623,43.62708233778104,-10,-0.33,0.33,10,33,23,32.67,33.33,43,3.1622776601683795,3.1622776601683795,3.1622776601683795,3.1622776601683795
19,6,0.06609150000440422,w,34.3,Unlimited Time,l,23.011604164793923,34.30187909078462,42.77225097455334,33.65236620972106,23.011604164793923,33.65236620972106,34.30187909078462,42.77225097455334,-10,-0.33,0.33,10,33,23,32.67,33.33,43,3.1622776601683795,3.1622776601683795,3.1622776601683795,3.1622776601683795
