Round Number,Trial Number,Reaction Time,Choice,Reward (Health Points),Time Condition,Payoff Condition,Q mapped,W mapped,O mapped,P mapped,One value,Two value,Three value,Four value,One mean,Two mean,Three mean,Four mean,Mean Shift,One shifted mean,Two shifted mean,Three shifted mean,Four shifted mean,One SD,Two SD,Three SD,Four SD
1,1,0.851113599999735,q,33.0,Unlimited Time,e,33.03084467674194,24.07358438167512,39.62351213490963,33.84806231597438,33.03084467674194,39.62351213490963,24.07358438167512,33.84806231597438,0,0,0,0,31,31,31,31,31,3.1622776601683795,6.324555320336759,8.366600265340756,10
1,2,0.6148597999999765,w,33.9,Unlimited Time,e,28.755257637511818,33.90857217687929,36.888548204071334,46.250387703293,28.755257637511818,36.888548204071334,33.90857217687929,46.250387703293,0,0,0,0,31,31,31,31,31,3.1622776601683795,6.324555320336759,8.366600265340756,10
1,3,0.6532910999999331,o,22.0,Unlimited Time,e,33.93373545712658,32.174732114399674,21.95138619253566,51.809702411772875,33.93373545712658,21.95138619253566,32.174732114399674,51.809702411772875,0,0,0,0,31,31,31,31,31,3.1622776601683795,6.324555320336759,8.366600265340756,10
1,4,0.7866102000002684,p,23.3,Unlimited Time,e,30.409751776002295,37.01675223798532,18.57815834846285,23.314983907186623,30.409751776002295,18.57815834846285,37.01675223798532,23.314983907186623,0,0,0,0,31,31,31,31,31,3.1622776601683795,6.324555320336759,8.366600265340756,10
1,5,0.57786329999999,w,33.7,Unlimited Time,e,29.82356956732574,33.72469147398895,26.949577125325778,18.040446457541385,29.82356956732574,26.949577125325778,33.72469147398895,18.040446457541385,0,0,0,0,31,31,31,31,31,3.1622776601683795,6.324555320336759,8.366600265340756,10
1,6,0.7023080999997546,q,32.7,Unlimited Time,e,32.698085299215485,28.72135576281377,30.94959383815686,41.8604001958931,32.698085299215485,30.94959383815686,28.72135576281377,41.8604001958931,0,0,0,0,31,31,31,31,31,3.1622776601683795,6.324555320336759,8.366600265340756,10
1,7,0.526631499999894,w,27.6,Unlimited Time,e,31.373976328204495,27.552869728821438,30.159866198675697,20.975433358035474,31.373976328204495,30.159866198675697,27.552869728821438,20.975433358035474,0,0,0,0,31,31,31,31,31,3.1622776601683795,6.324555320336759,8.366600265340756,10
1,8,0.5329501999999593,q,33.3,Unlimited Time,e,33.260550171141,27.068419420151297,34.57019632335171,35.05343164873231,33.260550171141,34.57019632335171,27.068419420151297,35.05343164873231,0,0,0,0,31,31,31,31,31,3.1622776601683795,6.324555320336759,8.366600265340756,10
1,9,0.5955921999998282,q,30.8,Unlimited Time,e,30.78091151971712,30.322916949904027,22.93377978202339,19.872095307064818,30.78091151971712,22.93377978202339,30.322916949904027,19.872095307064818,0,0,0,0,31,31,31,31,31,3.1622776601683795,6.324555320336759,8.366600265340756,10
1,10,0.540359399999943,q,27.4,Unlimited Time,e,27.410385838573816,31.684193044553467,34.711625040032075,14.86431673945544,27.410385838573816,34.711625040032075,31.684193044553467,14.86431673945544,0,0,0,0,31,31,31,31,31,3.1622776601683795,6.324555320336759,8.366600265340756,10
1,11,0.7814309999998841,o,42.6,Unlimited Time,e,28.043990068687556,34.88866749609642,42.575723362267354,15.269710731609674,28.043990068687556,42.575723362267354,34.88866749609642,15.269710731609674,0,0,0,0,31,31,31,31,31,3.1622776601683795,6.324555320336759,8.366600265340756,10
1,12,1.0998385999996572,o,41.9,Unlimited Time,e,33.2202665745333,38.29359821589353,41.88823536653192,45.617808586455396,33.2202665745333,41.88823536653192,38.29359821589353,45.617808586455396,0,0,0,0,31,31,31,31,31,3.1622776601683795,6.324555320336759,8.366600265340756,10
1,13,0.6701724999998078,p,3.1,Unlimited Time,e,38.91763286775145,37.283165968283456,37.65904677344486,3.1157168576461203,38.91763286775145,37.65904677344486,37.283165968283456,3.1157168576461203,0,0,0,0,31,31,31,31,31,3.1622776601683795,6.324555320336759,8.366600265340756,10
1,14,0.7145660999999564,o,24.3,Unlimited Time,e,31.703987949061187,31.09800083054944,24.2808525033492,31.950879406237235,31.703987949061187,24.2808525033492,31.09800083054944,31.950879406237235,0,0,0,0,31,31,31,31,31,3.1622776601683795,6.324555320336759,8.366600265340756,10
1,15,0.9628062000001592,w,35.0,Unlimited Time,e,30.128301617828605,35.03906607591424,37.40470826287393,28.871009309221247,30.128301617828605,37.40470826287393,35.03906607591424,28.871009309221247,0,0,0,0,31,31,31,31,31,3.1622776601683795,6.324555320336759,8.366600265340756,10
1,16,0.8142748000000211,q,35.8,Unlimited Time,e,35.83677418396883,22.332278848615715,28.745490699198573,26.832317273179413,35.83677418396883,28.745490699198573,22.332278848615715,26.832317273179413,0,0,0,0,31,31,31,31,31,3.1622776601683795,6.324555320336759,8.366600265340756,10
1,17,0.6587684000000991,q,27.1,Unlimited Time,e,27.13981234508297,27.71239496401381,31.790526325484645,34.564216371574936,27.13981234508297,31.790526325484645,27.71239496401381,34.564216371574936,0,0,0,0,31,31,31,31,31,3.1622776601683795,6.324555320336759,8.366600265340756,10
1,18,0.4821687000003294,w,29.4,Unlimited Time,e,32.48996354208136,29.418718254698646,18.15851898380078,43.75055845167807,32.48996354208136,18.15851898380078,29.418718254698646,43.75055845167807,0,0,0,0,31,31,31,31,31,3.1622776601683795,6.324555320336759,8.366600265340756,10
1,19,0.5881494999998722,o,33.7,Unlimited Time,e,32.5339697543208,28.459685967980032,33.729335311591946,43.90339287232965,32.5339697543208,33.729335311591946,28.459685967980032,43.90339287232965,0,0,0,0,31,31,31,31,31,3.1622776601683795,6.324555320336759,8.366600265340756,10
1,20,1.1356644999996206,o,28.0,Unlimited Time,e,30.79243674957974,37.54298778219182,27.96453340405819,24.580573488936555,30.79243674957974,27.96453340405819,37.54298778219182,24.580573488936555,0,0,0,0,31,31,31,31,31,3.1622776601683795,6.324555320336759,8.366600265340756,10
2,1,0.18775430000005144,q,46.6,Limited Time - 400ms,h,46.57219430644129,31.672823502798483,41.48913796980861,37.108753889811325,31.672823502798483,46.57219430644129,37.108753889811325,41.48913796980861,-10,-0.33,0.33,10,31,21,30.67,31.33,41,10,10,10,10
2,2,0.22668490000023667,w,32.5,Limited Time - 400ms,h,39.3161570327806,32.47375076374158,48.57245845758375,39.30332039955049,32.47375076374158,39.3161570327806,39.30332039955049,48.57245845758375,-10,-0.33,0.33,10,31,21,30.67,31.33,41,10,10,10,10
2,3,0.2471031000000039,o,31.8,Limited Time - 400ms,h,32.008071037203955,40.18081207945646,31.82116015628171,42.591231021751874,40.18081207945646,32.008071037203955,42.591231021751874,31.82116015628171,-10,-0.33,0.33,10,31,21,30.67,31.33,41,10,10,10,10
2,4,,,0.0,Limited Time - 400ms,h,30.449346792615934,27.845736431297993,53.70051080896526,12.901014900940392,27.845736431297993,30.449346792615934,12.901014900940392,53.70051080896526,-10,-0.33,0.33,10,31,21,30.67,31.33,41,10,10,10,10
2,5,0.31337589999975535,p,39.1,Limited Time - 400ms,h,34.38341490182923,25.976357981739454,47.573542038161946,39.12231719289815,25.976357981739454,34.38341490182923,39.12231719289815,47.573542038161946,-10,-0.33,0.33,10,31,21,30.67,31.33,41,10,10,10,10
2,6,,,0.0,Limited Time - 400ms,h,34.72037854102605,30.807851099037613,34.54764437338221,22.50168332914982,30.807851099037613,34.72037854102605,22.50168332914982,34.54764437338221,-10,-0.33,0.33,10,31,21,30.67,31.33,41,10,10,10,10
2,7,0.3024073999999928,p,27.1,Limited Time - 400ms,h,28.370975173718346,22.056847538139948,28.530051964287118,27.07663219832194,22.056847538139948,28.370975173718346,27.07663219832194,28.530051964287118,-10,-0.33,0.33,10,31,21,30.67,31.33,41,10,10,10,10
2,8,0.33635039999990113,q,18.6,Limited Time - 400ms,h,18.621692057131032,25.257893396284054,39.67495536059868,25.25192432210352,25.257893396284054,18.621692057131032,25.25192432210352,39.67495536059868,-10,-0.33,0.33,10,31,21,30.67,31.33,41,10,10,10,10
2,9,0.2929170000002159,o,29.8,Limited Time - 400ms,h,43.57142907264771,13.695007931511427,29.826678064793448,37.25672575074156,13.695007931511427,43.57142907264771,37.25672575074156,29.826678064793448,-10,-0.33,0.33,10,31,21,30.67,31.33,41,10,10,10,10
2,10,0.25340379999988727,p,19.5,Limited Time - 400ms,h,44.98178660169123,5.110810999047434,46.516641058513,19.524693665326435,5.110810999047434,44.98178660169123,19.524693665326435,46.516641058513,-10,-0.33,0.33,10,31,21,30.67,31.33,41,10,10,10,10
2,11,0.2717077000002064,w,7.4,Limited Time - 400ms,h,36.392548290473016,7.374551385495613,40.076267491159165,48.96019667045999,7.374551385495613,36.392548290473016,48.96019667045999,40.076267491159165,-10,-0.33,0.33,10,31,21,30.67,31.33,41,10,10,10,10
2,12,0.2919654000002083,p,25.7,Limited Time - 400ms,h,41.88981204058824,17.606784959467383,30.894587092718155,25.68397958850232,17.606784959467383,41.88981204058824,25.68397958850232,30.894587092718155,-10,-0.33,0.33,10,31,21,30.67,31.33,41,10,10,10,10
2,13,0.22653139999965788,p,20.3,Limited Time - 400ms,h,39.745297397396136,22.64727684227519,63.02899228676449,20.326240807309777,22.64727684227519,39.745297397396136,20.326240807309777,63.02899228676449,-10,-0.33,0.33,10,31,21,30.67,31.33,41,10,10,10,10
2,14,0.25778349999973216,o,33.4,Limited Time - 400ms,h,38.36676703787549,35.86689750442851,33.38299805678808,25.874986763452362,35.86689750442851,38.36676703787549,25.874986763452362,33.38299805678808,-10,-0.33,0.33,10,31,21,30.67,31.33,41,10,10,10,10
2,15,0.2995190999999977,o,30.5,Limited Time - 400ms,h,8.383149397141501,6.67138018900231,30.520890953790943,21.592141710363713,6.67138018900231,8.383149397141501,21.592141710363713,30.520890953790943,-10,-0.33,0.33,10,31,21,30.67,31.33,41,10,10,10,10
2,16,0.21784129999969082,o,51.4,Limited Time - 400ms,h,27.634563637527467,40.5829320039848,51.40559872070084,33.725345005637024,40.5829320039848,27.634563637527467,33.725345005637024,51.40559872070084,-10,-0.33,0.33,10,31,21,30.67,31.33,41,10,10,10,10
2,17,0.30518579999989015,o,41.2,Limited Time - 400ms,h,32.65207335409718,28.394594908586456,41.15980168344702,34.895040999864534,28.394594908586456,32.65207335409718,34.895040999864534,41.15980168344702,-10,-0.33,0.33,10,31,21,30.67,31.33,41,10,10,10,10
2,18,0.20136830000001282,o,60.5,Limited Time - 400ms,h,26.490772379094594,43.81431060073066,60.51143210288722,19.394935247958724,43.81431060073066,26.490772379094594,19.394935247958724,60.51143210288722,-10,-0.33,0.33,10,31,21,30.67,31.33,41,10,10,10,10
2,19,0.21681279999984326,o,38.9,Limited Time - 400ms,h,33.20212541630736,34.10527850317321,38.937854331850296,46.348377770572064,34.10527850317321,33.20212541630736,46.348377770572064,38.937854331850296,-10,-0.33,0.33,10,31,21,30.67,31.33,41,10,10,10,10
2,20,0.1708010999996077,o,37.2,Limited Time - 400ms,h,17.78690102088224,17.24559985127936,37.20701439770072,53.44582942972765,17.24559985127936,17.78690102088224,53.44582942972765,37.20701439770072,-10,-0.33,0.33,10,31,21,30.67,31.33,41,10,10,10,10
3,1,0.34904229999983727,q,37.1,Limited Time - 800ms,h,37.108753889811325,41.48913796980861,31.672823502798483,46.57219430644129,31.672823502798483,46.57219430644129,37.108753889811325,41.48913796980861,-10,-0.33,0.33,10,31,21,30.67,31.33,41,10,10,10,10
3,2,0.5557389999999032,w,48.6,Limited Time - 800ms,h,39.30332039955049,48.57245845758375,32.47375076374158,39.3161570327806,32.47375076374158,39.3161570327806,39.30332039955049,48.57245845758375,-10,-0.33,0.33,10,31,21,30.67,31.33,41,10,10,10,10
3,3,0.652954299999692,o,40.2,Limited Time - 800ms,h,42.591231021751874,31.82116015628171,40.18081207945646,32.008071037203955,40.18081207945646,32.008071037203955,42.591231021751874,31.82116015628171,-10,-0.33,0.33,10,31,21,30.67,31.33,41,10,10,10,10
3,4,0.5708507999997892,p,30.4,Limited Time - 800ms,h,12.901014900940392,53.70051080896526,27.845736431297993,30.449346792615934,27.845736431297993,30.449346792615934,12.901014900940392,53.70051080896526,-10,-0.33,0.33,10,31,21,30.67,31.33,41,10,10,10,10
3,5,0.4636872000000949,w,47.6,Limited Time - 800ms,h,39.12231719289815,47.573542038161946,25.976357981739454,34.38341490182923,25.976357981739454,34.38341490182923,39.12231719289815,47.573542038161946,-10,-0.33,0.33,10,31,21,30.67,31.33,41,10,10,10,10
3,6,0.5943554999998923,w,34.5,Limited Time - 800ms,h,22.50168332914982,34.54764437338221,30.807851099037613,34.72037854102605,30.807851099037613,34.72037854102605,22.50168332914982,34.54764437338221,-10,-0.33,0.33,10,31,21,30.67,31.33,41,10,10,10,10
3,7,0.3718880999999783,o,22.1,Limited Time - 800ms,h,27.07663219832194,28.530051964287118,22.056847538139948,28.370975173718346,22.056847538139948,28.370975173718346,27.07663219832194,28.530051964287118,-10,-0.33,0.33,10,31,21,30.67,31.33,41,10,10,10,10
3,8,0.37960229999998774,q,25.3,Limited Time - 800ms,h,25.25192432210352,39.67495536059868,25.257893396284054,18.621692057131032,25.257893396284054,18.621692057131032,25.25192432210352,39.67495536059868,-10,-0.33,0.33,10,31,21,30.67,31.33,41,10,10,10,10
3,9,0.501359699999739,w,29.8,Limited Time - 800ms,h,37.25672575074156,29.826678064793448,13.695007931511427,43.57142907264771,13.695007931511427,43.57142907264771,37.25672575074156,29.826678064793448,-10,-0.33,0.33,10,31,21,30.67,31.33,41,10,10,10,10
3,10,0.5348920999999791,p,45.0,Limited Time - 800ms,h,19.524693665326435,46.516641058513,5.110810999047434,44.98178660169123,5.110810999047434,44.98178660169123,19.524693665326435,46.516641058513,-10,-0.33,0.33,10,31,21,30.67,31.33,41,10,10,10,10
3,11,0.545586899999762,w,40.1,Limited Time - 800ms,h,48.96019667045999,40.076267491159165,7.374551385495613,36.392548290473016,7.374551385495613,36.392548290473016,48.96019667045999,40.076267491159165,-10,-0.33,0.33,10,31,21,30.67,31.33,41,10,10,10,10
3,12,0.4697986999999557,p,41.9,Limited Time - 800ms,h,25.68397958850232,30.894587092718155,17.606784959467383,41.88981204058824,17.606784959467383,41.88981204058824,25.68397958850232,30.894587092718155,-10,-0.33,0.33,10,31,21,30.67,31.33,41,10,10,10,10
3,13,0.5101550000003954,w,63.0,Limited Time - 800ms,h,20.326240807309777,63.02899228676449,22.64727684227519,39.745297397396136,22.64727684227519,39.745297397396136,20.326240807309777,63.02899228676449,-10,-0.33,0.33,10,31,21,30.67,31.33,41,10,10,10,10
3,14,0.4736225999999988,p,38.4,Limited Time - 800ms,h,25.874986763452362,33.38299805678808,35.86689750442851,38.36676703787549,35.86689750442851,38.36676703787549,25.874986763452362,33.38299805678808,-10,-0.33,0.33,10,31,21,30.67,31.33,41,10,10,10,10
3,15,0.41802069999994274,w,30.5,Limited Time - 800ms,h,21.592141710363713,30.520890953790943,6.67138018900231,8.383149397141501,6.67138018900231,8.383149397141501,21.592141710363713,30.520890953790943,-10,-0.33,0.33,10,31,21,30.67,31.33,41,10,10,10,10
3,16,0.3517607999997381,o,40.6,Limited Time - 800ms,h,33.725345005637024,51.40559872070084,40.5829320039848,27.634563637527467,40.5829320039848,27.634563637527467,33.725345005637024,51.40559872070084,-10,-0.33,0.33,10,31,21,30.67,31.33,41,10,10,10,10
3,17,0.4365120000002207,q,34.9,Limited Time - 800ms,h,34.895040999864534,41.15980168344702,28.394594908586456,32.65207335409718,28.394594908586456,32.65207335409718,34.895040999864534,41.15980168344702,-10,-0.33,0.33,10,31,21,30.67,31.33,41,10,10,10,10
3,18,0.3943405999998504,o,43.8,Limited Time - 800ms,h,19.394935247958724,60.51143210288722,43.81431060073066,26.490772379094594,43.81431060073066,26.490772379094594,19.394935247958724,60.51143210288722,-10,-0.33,0.33,10,31,21,30.67,31.33,41,10,10,10,10
3,19,0.5553254999999808,o,34.1,Limited Time - 800ms,h,46.348377770572064,38.937854331850296,34.10527850317321,33.20212541630736,34.10527850317321,33.20212541630736,46.348377770572064,38.937854331850296,-10,-0.33,0.33,10,31,21,30.67,31.33,41,10,10,10,10
3,20,0.30579050000005736,w,37.2,Limited Time - 800ms,h,53.44582942972765,37.20701439770072,17.24559985127936,17.78690102088224,17.24559985127936,17.78690102088224,53.44582942972765,37.20701439770072,-10,-0.33,0.33,10,31,21,30.67,31.33,41,10,10,10,10
4,1,0.9995891000003212,q,31.7,Unlimited Time,h,31.672823502798483,46.57219430644129,37.108753889811325,41.48913796980861,31.672823502798483,46.57219430644129,37.108753889811325,41.48913796980861,-10,-0.33,0.33,10,31,21,30.67,31.33,41,10,10,10,10
4,2,0.5045285999999578,w,39.3,Unlimited Time,h,32.47375076374158,39.3161570327806,39.30332039955049,48.57245845758375,32.47375076374158,39.3161570327806,39.30332039955049,48.57245845758375,-10,-0.33,0.33,10,31,21,30.67,31.33,41,10,10,10,10
4,3,0.9796922999998969,o,42.6,Unlimited Time,h,40.18081207945646,32.008071037203955,42.591231021751874,31.82116015628171,40.18081207945646,32.008071037203955,42.591231021751874,31.82116015628171,-10,-0.33,0.33,10,31,21,30.67,31.33,41,10,10,10,10
4,4,0.5644116000003123,p,53.7,Unlimited Time,h,27.845736431297993,30.449346792615934,12.901014900940392,53.70051080896526,27.845736431297993,30.449346792615934,12.901014900940392,53.70051080896526,-10,-0.33,0.33,10,31,21,30.67,31.33,41,10,10,10,10
4,5,6.973551600000064,p,47.6,Unlimited Time,h,25.976357981739454,34.38341490182923,39.12231719289815,47.573542038161946,25.976357981739454,34.38341490182923,39.12231719289815,47.573542038161946,-10,-0.33,0.33,10,31,21,30.67,31.33,41,10,10,10,10
4,6,0.7812506000000212,o,22.5,Unlimited Time,h,30.807851099037613,34.72037854102605,22.50168332914982,34.54764437338221,30.807851099037613,34.72037854102605,22.50168332914982,34.54764437338221,-10,-0.33,0.33,10,31,21,30.67,31.33,41,10,10,10,10
4,7,1.1474974999996448,w,28.4,Unlimited Time,h,22.056847538139948,28.370975173718346,27.07663219832194,28.530051964287118,22.056847538139948,28.370975173718346,27.07663219832194,28.530051964287118,-10,-0.33,0.33,10,31,21,30.67,31.33,41,10,10,10,10
4,8,0.6150531999996929,p,39.7,Unlimited Time,h,25.257893396284054,18.621692057131032,25.25192432210352,39.67495536059868,25.257893396284054,18.621692057131032,25.25192432210352,39.67495536059868,-10,-0.33,0.33,10,31,21,30.67,31.33,41,10,10,10,10
4,9,0.5933947999997145,q,13.7,Unlimited Time,h,13.695007931511427,43.57142907264771,37.25672575074156,29.826678064793448,13.695007931511427,43.57142907264771,37.25672575074156,29.826678064793448,-10,-0.33,0.33,10,31,21,30.67,31.33,41,10,10,10,10
4,10,0.47040629999992234,p,46.5,Unlimited Time,h,5.110810999047434,44.98178660169123,19.524693665326435,46.516641058513,5.110810999047434,44.98178660169123,19.524693665326435,46.516641058513,-10,-0.33,0.33,10,31,21,30.67,31.33,41,10,10,10,10
4,11,0.753859200000079,p,40.1,Unlimited Time,h,7.374551385495613,36.392548290473016,48.96019667045999,40.076267491159165,7.374551385495613,36.392548290473016,48.96019667045999,40.076267491159165,-10,-0.33,0.33,10,31,21,30.67,31.33,41,10,10,10,10
4,12,0.6519992999997157,p,30.9,Unlimited Time,h,17.606784959467383,41.88981204058824,25.68397958850232,30.894587092718155,17.606784959467383,41.88981204058824,25.68397958850232,30.894587092718155,-10,-0.33,0.33,10,31,21,30.67,31.33,41,10,10,10,10
4,13,0.38246280000021216,w,39.7,Unlimited Time,h,22.64727684227519,39.745297397396136,20.326240807309777,63.02899228676449,22.64727684227519,39.745297397396136,20.326240807309777,63.02899228676449,-10,-0.33,0.33,10,31,21,30.67,31.33,41,10,10,10,10
4,14,0.8952600000002349,w,38.4,Unlimited Time,h,35.86689750442851,38.36676703787549,25.874986763452362,33.38299805678808,35.86689750442851,38.36676703787549,25.874986763452362,33.38299805678808,-10,-0.33,0.33,10,31,21,30.67,31.33,41,10,10,10,10
4,15,0.6597885000001042,w,8.4,Unlimited Time,h,6.67138018900231,8.383149397141501,21.592141710363713,30.520890953790943,6.67138018900231,8.383149397141501,21.592141710363713,30.520890953790943,-10,-0.33,0.33,10,31,21,30.67,31.33,41,10,10,10,10
4,16,0.8569010000001072,p,51.4,Unlimited Time,h,40.5829320039848,27.634563637527467,33.725345005637024,51.40559872070084,40.5829320039848,27.634563637527467,33.725345005637024,51.40559872070084,-10,-0.33,0.33,10,31,21,30.67,31.33,41,10,10,10,10
4,17,1.2311248999999407,p,41.2,Unlimited Time,h,28.394594908586456,32.65207335409718,34.895040999864534,41.15980168344702,28.394594908586456,32.65207335409718,34.895040999864534,41.15980168344702,-10,-0.33,0.33,10,31,21,30.67,31.33,41,10,10,10,10
4,18,0.8991624999998749,o,19.4,Unlimited Time,h,43.81431060073066,26.490772379094594,19.394935247958724,60.51143210288722,43.81431060073066,26.490772379094594,19.394935247958724,60.51143210288722,-10,-0.33,0.33,10,31,21,30.67,31.33,41,10,10,10,10
4,19,1.3585894000002554,q,34.1,Unlimited Time,h,34.10527850317321,33.20212541630736,46.348377770572064,38.937854331850296,34.10527850317321,33.20212541630736,46.348377770572064,38.937854331850296,-10,-0.33,0.33,10,31,21,30.67,31.33,41,10,10,10,10
4,20,0.6911145999997643,q,17.2,Unlimited Time,h,17.24559985127936,17.78690102088224,53.44582942972765,37.20701439770072,17.24559985127936,17.78690102088224,53.44582942972765,37.20701439770072,-10,-0.33,0.33,10,31,21,30.67,31.33,41,10,10,10,10
5,1,0.17532389999996667,q,43.9,Limited Time - 400ms,l,43.892107226306244,32.74820479233382,31.398110983403072,21.9979010281651,21.9979010281651,32.74820479233382,31.398110983403072,43.892107226306244,-10,-0.33,0.33,10,31,21,30.67,31.33,41,3.1622776601683795,3.1622776601683795,3.1622776601683795,3.1622776601683795
5,2,,,0.0,Limited Time - 400ms,l,40.59364139571893,39.826513816120006,34.3983924276473,25.403437789686638,25.403437789686638,39.826513816120006,34.3983924276473,40.59364139571893,-10,-0.33,0.33,10,31,21,30.67,31.33,41,3.1622776601683795,3.1622776601683795,3.1622776601683795,3.1622776601683795
5,3,0.19746470000018235,o,24.4,Limited Time - 400ms,l,40.12187155210207,31.93745720489739,24.434085776917698,23.24336195322016,23.24336195322016,31.93745720489739,24.434085776917698,40.12187155210207,-10,-0.33,0.33,10,31,21,30.67,31.33,41,3.1622776601683795,3.1622776601683795,3.1622776601683795,3.1622776601683795
5,4,0.23905509999985952,p,19.8,Limited Time - 400ms,l,42.538742209852884,26.93914941494611,30.583764833730626,19.761284200850238,19.761284200850238,26.93914941494611,30.583764833730626,42.538742209852884,-10,-0.33,0.33,10,31,21,30.67,31.33,41,3.1622776601683795,3.1622776601683795,3.1622776601683795,3.1622776601683795
5,5,0.19941109999990658,w,32.0,Limited Time - 400ms,l,40.7625550976692,32.04787181643473,30.476963431744995,20.0827881731259,20.0827881731259,32.04787181643473,30.476963431744995,40.7625550976692,-10,-0.33,0.33,10,31,21,30.67,31.33,41,3.1622776601683795,3.1622776601683795,3.1622776601683795,3.1622776601683795
5,6,0.19514200000003257,q,42.9,Limited Time - 400ms,l,42.920938504550946,30.025386267620057,28.4368334703409,20.512317045766487,20.512317045766487,30.025386267620057,28.4368334703409,42.920938504550946,-10,-0.33,0.33,10,31,21,30.67,31.33,41,3.1622776601683795,3.1622776601683795,3.1622776601683795,3.1622776601683795
5,7,0.22900309999977253,q,36.9,Limited Time - 400ms,l,36.859102604270106,29.414045265082688,26.99074228726921,25.946074957477638,25.946074957477638,29.414045265082688,26.99074228726921,36.859102604270106,-10,-0.33,0.33,10,31,21,30.67,31.33,41,3.1622776601683795,3.1622776601683795,3.1622776601683795,3.1622776601683795
5,8,0.2587154000002556,q,41.1,Limited Time - 400ms,l,41.1196448386324,27.840836279573928,37.78032937133509,27.403914562064408,27.403914562064408,27.840836279573928,37.78032937133509,41.1196448386324,-10,-0.33,0.33,10,31,21,30.67,31.33,41,3.1622776601683795,3.1622776601683795,3.1622776601683795,3.1622776601683795
5,9,0.2617310999999063,q,35.8,Limited Time - 400ms,l,35.77449943922868,29.018937890124448,32.845721226767814,18.86330021240344,18.86330021240344,29.018937890124448,32.845721226767814,35.77449943922868,-10,-0.33,0.33,10,31,21,30.67,31.33,41,3.1622776601683795,3.1622776601683795,3.1622776601683795,3.1622776601683795
5,10,0.28119480000032127,q,38.3,Limited Time - 400ms,l,38.31784102018074,31.940524448321398,28.3981430159416,21.717566567944086,21.717566567944086,31.940524448321398,28.3981430159416,38.31784102018074,-10,-0.33,0.33,10,31,21,30.67,31.33,41,3.1622776601683795,3.1622776601683795,3.1622776601683795,3.1622776601683795
5,11,0.18464229999972304,q,41.1,Limited Time - 400ms,l,41.072227444707494,33.20783033150281,26.94124124178726,20.256382210275955,20.256382210275955,33.20783033150281,26.94124124178726,41.072227444707494,-10,-0.33,0.33,10,31,21,30.67,31.33,41,3.1622776601683795,3.1622776601683795,3.1622776601683795,3.1622776601683795
5,12,0.2269810000002508,q,44.4,Limited Time - 400ms,l,44.44886656790359,23.79306931880649,33.732169235953364,20.27461215358323,20.27461215358323,23.79306931880649,33.732169235953364,44.44886656790359,-10,-0.33,0.33,10,31,21,30.67,31.33,41,3.1622776601683795,3.1622776601683795,3.1622776601683795,3.1622776601683795
5,13,0.15844160000006013,o,26.2,Limited Time - 400ms,l,39.65917511285948,32.329217619681515,26.172125265088088,19.527882399835153,19.527882399835153,32.329217619681515,26.172125265088088,39.65917511285948,-10,-0.33,0.33,10,31,21,30.67,31.33,41,3.1622776601683795,3.1622776601683795,3.1622776601683795,3.1622776601683795
5,14,0.2044965999998567,q,44.7,Limited Time - 400ms,l,44.65032179276139,38.70619170765473,36.77331369657617,20.82964561113141,20.82964561113141,38.70619170765473,36.77331369657617,44.65032179276139,-10,-0.33,0.33,10,31,21,30.67,31.33,41,3.1622776601683795,3.1622776601683795,3.1622776601683795,3.1622776601683795
5,15,0.21417560000008962,w,31.6,Limited Time - 400ms,l,40.592358602316516,31.573692730769192,31.429138432878908,19.815286784424096,19.815286784424096,31.573692730769192,31.429138432878908,40.592358602316516,-10,-0.33,0.33,10,31,21,30.67,31.33,41,3.1622776601683795,3.1622776601683795,3.1622776601683795,3.1622776601683795
5,16,0.21713250000038897,q,48.1,Limited Time - 400ms,l,48.11297572036545,30.445136684562463,28.465264983443564,20.72143171466759,20.72143171466759,30.445136684562463,28.465264983443564,48.11297572036545,-10,-0.33,0.33,10,31,21,30.67,31.33,41,3.1622776601683795,3.1622776601683795,3.1622776601683795,3.1622776601683795
5,17,0.2165128999999979,q,44.8,Limited Time - 400ms,l,44.81905520937055,32.785168285219235,31.462466644608153,22.51287633716097,22.51287633716097,32.785168285219235,31.462466644608153,44.81905520937055,-10,-0.33,0.33,10,31,21,30.67,31.33,41,3.1622776601683795,3.1622776601683795,3.1622776601683795,3.1622776601683795
5,18,,,0.0,Limited Time - 400ms,l,41.50885283129412,31.65647673840361,28.64214674607514,18.404243465020965,18.404243465020965,31.65647673840361,28.64214674607514,41.50885283129412,-10,-0.33,0.33,10,31,21,30.67,31.33,41,3.1622776601683795,3.1622776601683795,3.1622776601683795,3.1622776601683795
5,19,0.3116965999997774,q,43.4,Limited Time - 400ms,l,43.39271609821889,31.300699531597463,30.41586145103008,21.08920549111706,21.08920549111706,31.300699531597463,30.41586145103008,43.39271609821889,-10,-0.33,0.33,10,31,21,30.67,31.33,41,3.1622776601683795,3.1622776601683795,3.1622776601683795,3.1622776601683795
5,20,0.20597470000029716,q,34.9,Limited Time - 400ms,l,34.85182152299235,28.64312938931466,26.516867397481057,22.264621216493463,22.264621216493463,28.64312938931466,26.516867397481057,34.85182152299235,-10,-0.33,0.33,10,31,21,30.67,31.33,41,3.1622776601683795,3.1622776601683795,3.1622776601683795,3.1622776601683795
6,1,0.44083409999984724,q,51.7,Limited Time - 800ms,i,51.69370171210127,39.97621992951668,11.648700098853354,24.347186113024406,24.347186113024406,11.648700098853354,39.97621992951668,51.69370171210127,-10,-10,10,10,31,21,21,41,41,3.1622776601683795,10,3.1622776601683795,10
6,2,0.2327805999998418,w,44.6,Limited Time - 800ms,i,45.52068529321595,44.584305107076666,21.04542409008264,19.54325231193391,19.54325231193391,21.04542409008264,44.584305107076666,45.52068529321595,-10,-10,10,10,31,21,21,41,41,3.1622776601683795,10,3.1622776601683795,10
6,3,0.27980890000026193,o,28.7,Limited Time - 800ms,i,33.27521092491462,36.78487303228249,28.694409925873206,17.516846337656325,17.516846337656325,28.694409925873206,36.78487303228249,33.27521092491462,-10,-10,10,10,31,21,21,41,41,3.1622776601683795,10,3.1622776601683795,10
6,4,0.2847417000002679,p,20.5,Limited Time - 800ms,i,45.69023110939379,43.49434623574945,37.00194855177328,20.542197128731924,20.542197128731924,37.00194855177328,43.49434623574945,45.69023110939379,-10,-10,10,10,31,21,21,41,41,3.1622776601683795,10,3.1622776601683795,10
6,5,0.30000639999980194,w,42.4,Limited Time - 800ms,i,45.389887670684075,42.44619100044845,14.050958309211621,19.645908917217415,19.645908917217415,14.050958309211621,42.44619100044845,45.389887670684075,-10,-10,10,10,31,21,21,41,41,3.1622776601683795,10,3.1622776601683795,10
6,6,0.32287270000006174,q,44.5,Limited Time - 800ms,i,44.477721705575966,41.297403977569054,22.32370271123996,21.656611719042896,21.656611719042896,22.32370271123996,41.297403977569054,44.477721705575966,-10,-10,10,10,31,21,21,41,41,3.1622776601683795,10,3.1622776601683795,10
6,7,0.33412970000017594,w,39.0,Limited Time - 800ms,i,31.434442875035295,39.013506579255484,18.905873891631007,22.063421227413997,22.063421227413997,18.905873891631007,39.013506579255484,31.434442875035295,-10,-10,10,10,31,21,21,41,41,3.1622776601683795,10,3.1622776601683795,10
6,8,0.26846859999977823,q,29.7,Limited Time - 800ms,i,29.66908980443174,37.483127585122006,25.40788517428141,23.327110931121275,23.327110931121275,25.40788517428141,37.483127585122006,29.66908980443174,-10,-10,10,10,31,21,21,41,41,3.1622776601683795,10,3.1622776601683795,10
6,9,0.2696278000003076,w,45.1,Limited Time - 800ms,i,53.62564342399221,45.10343140986217,13.264671377821815,17.609288698665523,17.609288698665523,13.264671377821815,45.10343140986217,53.62564342399221,-10,-10,10,10,31,21,21,41,41,3.1622776601683795,10,3.1622776601683795,10
6,10,0.38715989999991507,w,44.7,Limited Time - 800ms,i,45.93545662621891,44.711051663499106,17.83610438356076,19.573990468610777,19.573990468610777,17.83610438356076,44.711051663499106,45.93545662621891,-10,-10,10,10,31,21,21,41,41,3.1622776601683795,10,3.1622776601683795,10
6,11,0.2354104000000916,w,37.2,Limited Time - 800ms,i,34.771288108648655,37.22524710642031,36.970849293706436,19.164866811610256,19.164866811610256,36.970849293706436,37.22524710642031,34.771288108648655,-10,-10,10,10,31,21,21,41,41,3.1622776601683795,10,3.1622776601683795,10
6,12,0.27018290000023626,w,41.6,Limited Time - 800ms,i,25.207644034267577,41.56194680476054,4.388014025425445,24.138336535473666,24.138336535473666,4.388014025425445,41.56194680476054,25.207644034267577,-10,-10,10,10,31,21,21,41,41,3.1622776601683795,10,3.1622776601683795,10
6,13,0.35627210000029663,w,40.6,Limited Time - 800ms,i,30.535616028894687,40.638463903747095,19.95202800265028,23.657305353186143,23.657305353186143,19.95202800265028,40.638463903747095,30.535616028894687,-10,-10,10,10,31,21,21,41,41,3.1622776601683795,10,3.1622776601683795,10
6,14,0.3625851000001603,w,46.6,Limited Time - 800ms,i,58.07923481972306,46.61211527265417,29.335239070346404,21.158988591902986,21.158988591902986,29.335239070346404,46.61211527265417,58.07923481972306,-10,-10,10,10,31,21,21,41,41,3.1622776601683795,10,3.1622776601683795,10
6,15,0.304135899999892,q,49.6,Limited Time - 800ms,i,49.63645359428197,45.83220011887622,21.08332869273234,20.07512016679331,20.07512016679331,21.08332869273234,45.83220011887622,49.63645359428197,-10,-10,10,10,31,21,21,41,41,3.1622776601683795,10,3.1622776601683795,10
6,16,0.2757649999998648,w,39.4,Limited Time - 800ms,i,68.33684739990362,39.42919320138223,9.393369715276698,21.84064269147043,21.84064269147043,9.393369715276698,39.42919320138223,68.33684739990362,-10,-10,10,10,31,21,21,41,41,3.1622776601683795,10,3.1622776601683795,10
6,17,0.3013175000000956,q,41.0,Limited Time - 800ms,i,41.03332743962818,35.64200962976437,7.757991514163312,26.96711910155359,26.96711910155359,7.757991514163312,35.64200962976437,41.03332743962818,-10,-10,10,10,31,21,21,41,41,3.1622776601683795,10,3.1622776601683795,10
6,18,0.3459069999998974,q,32.5,Limited Time - 800ms,i,32.45961887862518,43.9992759492117,30.122554878272016,22.772839323330132,22.772839323330132,30.122554878272016,43.9992759492117,32.45961887862518,-10,-10,10,10,31,21,21,41,41,3.1622776601683795,10,3.1622776601683795,10
6,19,0.2589929000000666,o,18.2,Limited Time - 800ms,i,33.69749964884507,37.93777453925305,18.193866283147422,22.888319687649574,22.888319687649574,18.193866283147422,37.93777453925305,33.69749964884507,-10,-10,10,10,31,21,21,41,41,3.1622776601683795,10,3.1622776601683795,10
6,20,0.25105349999967075,p,18.1,Limited Time - 800ms,i,62.61053066891265,37.4820107437361,13.166710805691405,18.09280080025468,18.09280080025468,13.166710805691405,37.4820107437361,62.61053066891265,-10,-10,10,10,31,21,21,41,41,3.1622776601683795,10,3.1622776601683795,10
7,1,0.629030000000057,q,40.0,Unlimited Time,i,39.97621992951668,51.69370171210127,11.648700098853354,24.347186113024406,24.347186113024406,11.648700098853354,39.97621992951668,51.69370171210127,-10,-10,10,10,31,21,21,41,41,3.1622776601683795,10,3.1622776601683795,10
7,2,0.2562800000000607,w,45.5,Unlimited Time,i,44.584305107076666,45.52068529321595,21.04542409008264,19.54325231193391,19.54325231193391,21.04542409008264,44.584305107076666,45.52068529321595,-10,-10,10,10,31,21,21,41,41,3.1622776601683795,10,3.1622776601683795,10
7,3,0.3038215000001401,o,28.7,Unlimited Time,i,36.78487303228249,33.27521092491462,28.694409925873206,17.516846337656325,17.516846337656325,28.694409925873206,36.78487303228249,33.27521092491462,-10,-10,10,10,31,21,21,41,41,3.1622776601683795,10,3.1622776601683795,10
7,4,0.661536900000101,p,20.5,Unlimited Time,i,43.49434623574945,45.69023110939379,37.00194855177328,20.542197128731924,20.542197128731924,37.00194855177328,43.49434623574945,45.69023110939379,-10,-10,10,10,31,21,21,41,41,3.1622776601683795,10,3.1622776601683795,10
7,5,0.4256327999996756,w,45.4,Unlimited Time,i,42.44619100044845,45.389887670684075,14.050958309211621,19.645908917217415,19.645908917217415,14.050958309211621,42.44619100044845,45.389887670684075,-10,-10,10,10,31,21,21,41,41,3.1622776601683795,10,3.1622776601683795,10
7,6,0.37383120000004055,q,41.3,Unlimited Time,i,41.297403977569054,44.477721705575966,22.32370271123996,21.656611719042896,21.656611719042896,22.32370271123996,41.297403977569054,44.477721705575966,-10,-10,10,10,31,21,21,41,41,3.1622776601683795,10,3.1622776601683795,10
7,7,0.33316729999978634,w,31.4,Unlimited Time,i,39.013506579255484,31.434442875035295,18.905873891631007,22.063421227413997,22.063421227413997,18.905873891631007,39.013506579255484,31.434442875035295,-10,-10,10,10,31,21,21,41,41,3.1622776601683795,10,3.1622776601683795,10
7,8,0.2779222999997728,o,25.4,Unlimited Time,i,37.483127585122006,29.66908980443174,25.40788517428141,23.327110931121275,23.327110931121275,25.40788517428141,37.483127585122006,29.66908980443174,-10,-10,10,10,31,21,21,41,41,3.1622776601683795,10,3.1622776601683795,10
7,9,0.2458011999997325,p,17.6,Unlimited Time,i,45.10343140986217,53.62564342399221,13.264671377821815,17.609288698665523,17.609288698665523,13.264671377821815,45.10343140986217,53.62564342399221,-10,-10,10,10,31,21,21,41,41,3.1622776601683795,10,3.1622776601683795,10
7,10,0.28550289999975575,w,45.9,Unlimited Time,i,44.711051663499106,45.93545662621891,17.83610438356076,19.573990468610777,19.573990468610777,17.83610438356076,44.711051663499106,45.93545662621891,-10,-10,10,10,31,21,21,41,41,3.1622776601683795,10,3.1622776601683795,10
7,11,0.28179739999995945,w,34.8,Unlimited Time,i,37.22524710642031,34.771288108648655,36.970849293706436,19.164866811610256,19.164866811610256,36.970849293706436,37.22524710642031,34.771288108648655,-10,-10,10,10,31,21,21,41,41,3.1622776601683795,10,3.1622776601683795,10
7,12,0.34737089999998716,w,25.2,Unlimited Time,i,41.56194680476054,25.207644034267577,4.388014025425445,24.138336535473666,24.138336535473666,4.388014025425445,41.56194680476054,25.207644034267577,-10,-10,10,10,31,21,21,41,41,3.1622776601683795,10,3.1622776601683795,10
7,13,0.3893370999999206,q,40.6,Unlimited Time,i,40.638463903747095,30.535616028894687,19.95202800265028,23.657305353186143,23.657305353186143,19.95202800265028,40.638463903747095,30.535616028894687,-10,-10,10,10,31,21,21,41,41,3.1622776601683795,10,3.1622776601683795,10
7,14,0.3283212999999705,w,58.1,Unlimited Time,i,46.61211527265417,58.07923481972306,29.335239070346404,21.158988591902986,21.158988591902986,29.335239070346404,46.61211527265417,58.07923481972306,-10,-10,10,10,31,21,21,41,41,3.1622776601683795,10,3.1622776601683795,10
7,15,0.24642599999970116,q,45.8,Unlimited Time,i,45.83220011887622,49.63645359428197,21.08332869273234,20.07512016679331,20.07512016679331,21.08332869273234,45.83220011887622,49.63645359428197,-10,-10,10,10,31,21,21,41,41,3.1622776601683795,10,3.1622776601683795,10
7,16,0.2333558999998786,w,68.3,Unlimited Time,i,39.42919320138223,68.33684739990362,9.393369715276698,21.84064269147043,21.84064269147043,9.393369715276698,39.42919320138223,68.33684739990362,-10,-10,10,10,31,21,21,41,41,3.1622776601683795,10,3.1622776601683795,10
7,17,0.5333072000003085,q,35.6,Unlimited Time,i,35.64200962976437,41.03332743962818,7.757991514163312,26.96711910155359,26.96711910155359,7.757991514163312,35.64200962976437,41.03332743962818,-10,-10,10,10,31,21,21,41,41,3.1622776601683795,10,3.1622776601683795,10
7,18,0.19958090000000084,w,32.5,Unlimited Time,i,43.9992759492117,32.45961887862518,30.122554878272016,22.772839323330132,22.772839323330132,30.122554878272016,43.9992759492117,32.45961887862518,-10,-10,10,10,31,21,21,41,41,3.1622776601683795,10,3.1622776601683795,10
7,19,0.4077737000002344,w,33.7,Unlimited Time,i,37.93777453925305,33.69749964884507,18.193866283147422,22.888319687649574,22.888319687649574,18.193866283147422,37.93777453925305,33.69749964884507,-10,-10,10,10,31,21,21,41,41,3.1622776601683795,10,3.1622776601683795,10
7,20,0.2878193999999894,q,37.5,Unlimited Time,i,37.4820107437361,62.61053066891265,13.166710805691405,18.09280080025468,18.09280080025468,13.166710805691405,37.4820107437361,62.61053066891265,-10,-10,10,10,31,21,21,41,41,3.1622776601683795,10,3.1622776601683795,10
8,1,0.2271074000000226,q,33.0,Limited Time - 400ms,e,33.03084467674194,33.84806231597438,39.62351213490963,24.07358438167512,33.03084467674194,39.62351213490963,24.07358438167512,33.84806231597438,0,0,0,0,31,31,31,31,31,3.1622776601683795,6.324555320336759,8.366600265340756,10
8,2,0.20147950000000492,w,46.3,Limited Time - 400ms,e,28.755257637511818,46.250387703293,36.888548204071334,33.90857217687929,28.755257637511818,36.888548204071334,33.90857217687929,46.250387703293,0,0,0,0,31,31,31,31,31,3.1622776601683795,6.324555320336759,8.366600265340756,10
8,3,0.2062393000001066,o,22.0,Limited Time - 400ms,e,33.93373545712658,51.809702411772875,21.95138619253566,32.174732114399674,33.93373545712658,21.95138619253566,32.174732114399674,51.809702411772875,0,0,0,0,31,31,31,31,31,3.1622776601683795,6.324555320336759,8.366600265340756,10
8,4,0.2086965000003147,p,37.0,Limited Time - 400ms,e,30.409751776002295,23.314983907186623,18.57815834846285,37.01675223798532,30.409751776002295,18.57815834846285,37.01675223798532,23.314983907186623,0,0,0,0,31,31,31,31,31,3.1622776601683795,6.324555320336759,8.366600265340756,10
8,5,0.23215140000002066,w,18.0,Limited Time - 400ms,e,29.82356956732574,18.040446457541385,26.949577125325778,33.72469147398895,29.82356956732574,26.949577125325778,33.72469147398895,18.040446457541385,0,0,0,0,31,31,31,31,31,3.1622776601683795,6.324555320336759,8.366600265340756,10
8,6,0.19072370000003502,p,28.7,Limited Time - 400ms,e,32.698085299215485,41.8604001958931,30.94959383815686,28.72135576281377,32.698085299215485,30.94959383815686,28.72135576281377,41.8604001958931,0,0,0,0,31,31,31,31,31,3.1622776601683795,6.324555320336759,8.366600265340756,10
8,7,0.2670278000000508,p,27.6,Limited Time - 400ms,e,31.373976328204495,20.975433358035474,30.159866198675697,27.552869728821438,31.373976328204495,30.159866198675697,27.552869728821438,20.975433358035474,0,0,0,0,31,31,31,31,31,3.1622776601683795,6.324555320336759,8.366600265340756,10
8,8,0.21319410000023709,q,33.3,Limited Time - 400ms,e,33.260550171141,35.05343164873231,34.57019632335171,27.068419420151297,33.260550171141,34.57019632335171,27.068419420151297,35.05343164873231,0,0,0,0,31,31,31,31,31,3.1622776601683795,6.324555320336759,8.366600265340756,10
8,9,0.19770550000021103,p,30.3,Limited Time - 400ms,e,30.78091151971712,19.872095307064818,22.93377978202339,30.322916949904027,30.78091151971712,22.93377978202339,30.322916949904027,19.872095307064818,0,0,0,0,31,31,31,31,31,3.1622776601683795,6.324555320336759,8.366600265340756,10
8,10,0.2177019000000655,w,14.9,Limited Time - 400ms,e,27.410385838573816,14.86431673945544,34.711625040032075,31.684193044553467,27.410385838573816,34.711625040032075,31.684193044553467,14.86431673945544,0,0,0,0,31,31,31,31,31,3.1622776601683795,6.324555320336759,8.366600265340756,10
8,11,0.2634411000003638,p,34.9,Limited Time - 400ms,e,28.043990068687556,15.269710731609674,42.575723362267354,34.88866749609642,28.043990068687556,42.575723362267354,34.88866749609642,15.269710731609674,0,0,0,0,31,31,31,31,31,3.1622776601683795,6.324555320336759,8.366600265340756,10
8,12,0.24696289999974397,o,41.9,Limited Time - 400ms,e,33.2202665745333,45.617808586455396,41.88823536653192,38.29359821589353,33.2202665745333,41.88823536653192,38.29359821589353,45.617808586455396,0,0,0,0,31,31,31,31,31,3.1622776601683795,6.324555320336759,8.366600265340756,10
8,13,0.2697310000003199,p,37.3,Limited Time - 400ms,e,38.91763286775145,3.1157168576461203,37.65904677344486,37.283165968283456,38.91763286775145,37.65904677344486,37.283165968283456,3.1157168576461203,0,0,0,0,31,31,31,31,31,3.1622776601683795,6.324555320336759,8.366600265340756,10
8,14,0.1725283999999192,o,24.3,Limited Time - 400ms,e,31.703987949061187,31.950879406237235,24.2808525033492,31.09800083054944,31.703987949061187,24.2808525033492,31.09800083054944,31.950879406237235,0,0,0,0,31,31,31,31,31,3.1622776601683795,6.324555320336759,8.366600265340756,10
8,15,0.22002389999988736,p,35.0,Limited Time - 400ms,e,30.128301617828605,28.871009309221247,37.40470826287393,35.03906607591424,30.128301617828605,37.40470826287393,35.03906607591424,28.871009309221247,0,0,0,0,31,31,31,31,31,3.1622776601683795,6.324555320336759,8.366600265340756,10
8,16,0.24070549999987634,p,22.3,Limited Time - 400ms,e,35.83677418396883,26.832317273179413,28.745490699198573,22.332278848615715,35.83677418396883,28.745490699198573,22.332278848615715,26.832317273179413,0,0,0,0,31,31,31,31,31,3.1622776601683795,6.324555320336759,8.366600265340756,10
8,17,0.22499700000025769,q,27.1,Limited Time - 400ms,e,27.13981234508297,34.564216371574936,31.790526325484645,27.71239496401381,27.13981234508297,31.790526325484645,27.71239496401381,34.564216371574936,0,0,0,0,31,31,31,31,31,3.1622776601683795,6.324555320336759,8.366600265340756,10
8,18,0.2559105999998792,o,18.2,Limited Time - 400ms,e,32.48996354208136,43.75055845167807,18.15851898380078,29.418718254698646,32.48996354208136,18.15851898380078,29.418718254698646,43.75055845167807,0,0,0,0,31,31,31,31,31,3.1622776601683795,6.324555320336759,8.366600265340756,10
8,19,0.28971050000018295,p,28.5,Limited Time - 400ms,e,32.5339697543208,43.90339287232965,33.729335311591946,28.459685967980032,32.5339697543208,33.729335311591946,28.459685967980032,43.90339287232965,0,0,0,0,31,31,31,31,31,3.1622776601683795,6.324555320336759,8.366600265340756,10
8,20,,,0.0,Limited Time - 400ms,e,30.79243674957974,24.580573488936555,27.96453340405819,37.54298778219182,30.79243674957974,27.96453340405819,37.54298778219182,24.580573488936555,0,0,0,0,31,31,31,31,31,3.1622776601683795,6.324555320336759,8.366600265340756,10
9,1,0.7206484000003002,q,43.9,Limited Time - 800ms,l,43.892107226306244,21.9979010281651,32.74820479233382,31.398110983403072,21.9979010281651,32.74820479233382,31.398110983403072,43.892107226306244,-10,-0.33,0.33,10,31,21,30.67,31.33,41,3.1622776601683795,3.1622776601683795,3.1622776601683795,3.1622776601683795
9,2,0.2531104999998206,w,25.4,Limited Time - 800ms,l,40.59364139571893,25.403437789686638,39.826513816120006,34.3983924276473,25.403437789686638,39.826513816120006,34.3983924276473,40.59364139571893,-10,-0.33,0.33,10,31,21,30.67,31.33,41,3.1622776601683795,3.1622776601683795,3.1622776601683795,3.1622776601683795
9,3,0.32653339999978925,o,31.9,Limited Time - 800ms,l,40.12187155210207,23.24336195322016,31.93745720489739,24.434085776917698,23.24336195322016,31.93745720489739,24.434085776917698,40.12187155210207,-10,-0.33,0.33,10,31,21,30.67,31.33,41,3.1622776601683795,3.1622776601683795,3.1622776601683795,3.1622776601683795
9,4,0.24699509999982183,p,30.6,Limited Time - 800ms,l,42.538742209852884,19.761284200850238,26.93914941494611,30.583764833730626,19.761284200850238,26.93914941494611,30.583764833730626,42.538742209852884,-10,-0.33,0.33,10,31,21,30.67,31.33,41,3.1622776601683795,3.1622776601683795,3.1622776601683795,3.1622776601683795
9,5,0.2780766000000767,q,40.8,Limited Time - 800ms,l,40.7625550976692,20.0827881731259,32.04787181643473,30.476963431744995,20.0827881731259,32.04787181643473,30.476963431744995,40.7625550976692,-10,-0.33,0.33,10,31,21,30.67,31.33,41,3.1622776601683795,3.1622776601683795,3.1622776601683795,3.1622776601683795
9,6,0.3182231999999203,q,42.9,Limited Time - 800ms,l,42.920938504550946,20.512317045766487,30.025386267620057,28.4368334703409,20.512317045766487,30.025386267620057,28.4368334703409,42.920938504550946,-10,-0.33,0.33,10,31,21,30.67,31.33,41,3.1622776601683795,3.1622776601683795,3.1622776601683795,3.1622776601683795
9,7,0.3072787999999491,q,36.9,Limited Time - 800ms,l,36.859102604270106,25.946074957477638,29.414045265082688,26.99074228726921,25.946074957477638,29.414045265082688,26.99074228726921,36.859102604270106,-10,-0.33,0.33,10,31,21,30.67,31.33,41,3.1622776601683795,3.1622776601683795,3.1622776601683795,3.1622776601683795
9,8,0.32390339999983553,q,41.1,Limited Time - 800ms,l,41.1196448386324,27.403914562064408,27.840836279573928,37.78032937133509,27.403914562064408,27.840836279573928,37.78032937133509,41.1196448386324,-10,-0.33,0.33,10,31,21,30.67,31.33,41,3.1622776601683795,3.1622776601683795,3.1622776601683795,3.1622776601683795
9,9,0.31532990000005157,q,35.8,Limited Time - 800ms,l,35.77449943922868,18.86330021240344,29.018937890124448,32.845721226767814,18.86330021240344,29.018937890124448,32.845721226767814,35.77449943922868,-10,-0.33,0.33,10,31,21,30.67,31.33,41,3.1622776601683795,3.1622776601683795,3.1622776601683795,3.1622776601683795
9,10,0.2986862000002475,q,38.3,Limited Time - 800ms,l,38.31784102018074,21.717566567944086,31.940524448321398,28.3981430159416,21.717566567944086,31.940524448321398,28.3981430159416,38.31784102018074,-10,-0.33,0.33,10,31,21,30.67,31.33,41,3.1622776601683795,3.1622776601683795,3.1622776601683795,3.1622776601683795
9,11,0.28896850000000995,q,41.1,Limited Time - 800ms,l,41.072227444707494,20.256382210275955,33.20783033150281,26.94124124178726,20.256382210275955,33.20783033150281,26.94124124178726,41.072227444707494,-10,-0.33,0.33,10,31,21,30.67,31.33,41,3.1622776601683795,3.1622776601683795,3.1622776601683795,3.1622776601683795
9,12,0.1910225999999966,w,20.3,Limited Time - 800ms,l,44.44886656790359,20.27461215358323,23.79306931880649,33.732169235953364,20.27461215358323,23.79306931880649,33.732169235953364,44.44886656790359,-10,-0.33,0.33,10,31,21,30.67,31.33,41,3.1622776601683795,3.1622776601683795,3.1622776601683795,3.1622776601683795
9,13,0.31238440000015544,p,26.2,Limited Time - 800ms,l,39.65917511285948,19.527882399835153,32.329217619681515,26.172125265088088,19.527882399835153,32.329217619681515,26.172125265088088,39.65917511285948,-10,-0.33,0.33,10,31,21,30.67,31.33,41,3.1622776601683795,3.1622776601683795,3.1622776601683795,3.1622776601683795
9,14,0.3104410999999345,o,38.7,Limited Time - 800ms,l,44.65032179276139,20.82964561113141,38.70619170765473,36.77331369657617,20.82964561113141,38.70619170765473,36.77331369657617,44.65032179276139,-10,-0.33,0.33,10,31,21,30.67,31.33,41,3.1622776601683795,3.1622776601683795,3.1622776601683795,3.1622776601683795
9,15,0.3983103000000483,q,40.6,Limited Time - 800ms,l,40.592358602316516,19.815286784424096,31.573692730769192,31.429138432878908,19.815286784424096,31.573692730769192,31.429138432878908,40.592358602316516,-10,-0.33,0.33,10,31,21,30.67,31.33,41,3.1622776601683795,3.1622776601683795,3.1622776601683795,3.1622776601683795
9,16,0.23792229999980918,o,30.4,Limited Time - 800ms,l,48.11297572036545,20.72143171466759,30.445136684562463,28.465264983443564,20.72143171466759,30.445136684562463,28.465264983443564,48.11297572036545,-10,-0.33,0.33,10,31,21,30.67,31.33,41,3.1622776601683795,3.1622776601683795,3.1622776601683795,3.1622776601683795
9,17,0.2638855999998668,q,44.8,Limited Time - 800ms,l,44.81905520937055,22.51287633716097,32.785168285219235,31.462466644608153,22.51287633716097,32.785168285219235,31.462466644608153,44.81905520937055,-10,-0.33,0.33,10,31,21,30.67,31.33,41,3.1622776601683795,3.1622776601683795,3.1622776601683795,3.1622776601683795
9,18,0.22545190000028015,q,41.5,Limited Time - 800ms,l,41.50885283129412,18.404243465020965,31.65647673840361,28.64214674607514,18.404243465020965,31.65647673840361,28.64214674607514,41.50885283129412,-10,-0.33,0.33,10,31,21,30.67,31.33,41,3.1622776601683795,3.1622776601683795,3.1622776601683795,3.1622776601683795
9,19,0.1922788000001674,q,43.4,Limited Time - 800ms,l,43.39271609821889,21.08920549111706,31.300699531597463,30.41586145103008,21.08920549111706,31.300699531597463,30.41586145103008,43.39271609821889,-10,-0.33,0.33,10,31,21,30.67,31.33,41,3.1622776601683795,3.1622776601683795,3.1622776601683795,3.1622776601683795
9,20,0.2053673999998864,q,34.9,Limited Time - 800ms,l,34.85182152299235,22.264621216493463,28.64312938931466,26.516867397481057,22.264621216493463,28.64312938931466,26.516867397481057,34.85182152299235,-10,-0.33,0.33,10,31,21,30.67,31.33,41,3.1622776601683795,3.1622776601683795,3.1622776601683795,3.1622776601683795
10,1,0.6926856000000043,q,32.7,Unlimited Time,l,32.74820479233382,21.9979010281651,31.398110983403072,43.892107226306244,21.9979010281651,32.74820479233382,31.398110983403072,43.892107226306244,-10,-0.33,0.33,10,31,21,30.67,31.33,41,3.1622776601683795,3.1622776601683795,3.1622776601683795,3.1622776601683795
10,2,0.3847065999998449,w,25.4,Unlimited Time,l,39.826513816120006,25.403437789686638,34.3983924276473,40.59364139571893,25.403437789686638,39.826513816120006,34.3983924276473,40.59364139571893,-10,-0.33,0.33,10,31,21,30.67,31.33,41,3.1622776601683795,3.1622776601683795,3.1622776601683795,3.1622776601683795
10,3,0.4251361999999972,o,24.4,Unlimited Time,l,31.93745720489739,23.24336195322016,24.434085776917698,40.12187155210207,23.24336195322016,31.93745720489739,24.434085776917698,40.12187155210207,-10,-0.33,0.33,10,31,21,30.67,31.33,41,3.1622776601683795,3.1622776601683795,3.1622776601683795,3.1622776601683795
10,4,0.325198200000159,q,26.9,Unlimited Time,l,26.93914941494611,19.761284200850238,30.583764833730626,42.538742209852884,19.761284200850238,26.93914941494611,30.583764833730626,42.538742209852884,-10,-0.33,0.33,10,31,21,30.67,31.33,41,3.1622776601683795,3.1622776601683795,3.1622776601683795,3.1622776601683795
10,5,0.3684337999998206,q,32.0,Unlimited Time,l,32.04787181643473,20.0827881731259,30.476963431744995,40.7625550976692,20.0827881731259,32.04787181643473,30.476963431744995,40.7625550976692,-10,-0.33,0.33,10,31,21,30.67,31.33,41,3.1622776601683795,3.1622776601683795,3.1622776601683795,3.1622776601683795
10,6,0.24911389999988387,p,42.9,Unlimited Time,l,30.025386267620057,20.512317045766487,28.4368334703409,42.920938504550946,20.512317045766487,30.025386267620057,28.4368334703409,42.920938504550946,-10,-0.33,0.33,10,31,21,30.67,31.33,41,3.1622776601683795,3.1622776601683795,3.1622776601683795,3.1622776601683795
10,7,0.42454559999987396,p,36.9,Unlimited Time,l,29.414045265082688,25.946074957477638,26.99074228726921,36.859102604270106,25.946074957477638,29.414045265082688,26.99074228726921,36.859102604270106,-10,-0.33,0.33,10,31,21,30.67,31.33,41,3.1622776601683795,3.1622776601683795,3.1622776601683795,3.1622776601683795
10,8,0.32189370000014605,p,41.1,Unlimited Time,l,27.840836279573928,27.403914562064408,37.78032937133509,41.1196448386324,27.403914562064408,27.840836279573928,37.78032937133509,41.1196448386324,-10,-0.33,0.33,10,31,21,30.67,31.33,41,3.1622776601683795,3.1622776601683795,3.1622776601683795,3.1622776601683795
10,9,0.3059714000000895,p,35.8,Unlimited Time,l,29.018937890124448,18.86330021240344,32.845721226767814,35.77449943922868,18.86330021240344,29.018937890124448,32.845721226767814,35.77449943922868,-10,-0.33,0.33,10,31,21,30.67,31.33,41,3.1622776601683795,3.1622776601683795,3.1622776601683795,3.1622776601683795
10,10,0.2714498000000276,p,38.3,Unlimited Time,l,31.940524448321398,21.717566567944086,28.3981430159416,38.31784102018074,21.717566567944086,31.940524448321398,28.3981430159416,38.31784102018074,-10,-0.33,0.33,10,31,21,30.67,31.33,41,3.1622776601683795,3.1622776601683795,3.1622776601683795,3.1622776601683795
10,11,0.26976509999985865,p,41.1,Unlimited Time,l,33.20783033150281,20.256382210275955,26.94124124178726,41.072227444707494,20.256382210275955,33.20783033150281,26.94124124178726,41.072227444707494,-10,-0.33,0.33,10,31,21,30.67,31.33,41,3.1622776601683795,3.1622776601683795,3.1622776601683795,3.1622776601683795
10,12,0.19002309999996214,p,44.4,Unlimited Time,l,23.79306931880649,20.27461215358323,33.732169235953364,44.44886656790359,20.27461215358323,23.79306931880649,33.732169235953364,44.44886656790359,-10,-0.33,0.33,10,31,21,30.67,31.33,41,3.1622776601683795,3.1622776601683795,3.1622776601683795,3.1622776601683795
10,13,0.15923549999979514,p,39.7,Unlimited Time,l,32.329217619681515,19.527882399835153,26.172125265088088,39.65917511285948,19.527882399835153,32.329217619681515,26.172125265088088,39.65917511285948,-10,-0.33,0.33,10,31,21,30.67,31.33,41,3.1622776601683795,3.1622776601683795,3.1622776601683795,3.1622776601683795
10,14,0.15493220000007568,p,44.7,Unlimited Time,l,38.70619170765473,20.82964561113141,36.77331369657617,44.65032179276139,20.82964561113141,38.70619170765473,36.77331369657617,44.65032179276139,-10,-0.33,0.33,10,31,21,30.67,31.33,41,3.1622776601683795,3.1622776601683795,3.1622776601683795,3.1622776601683795
10,15,0.17515969999976733,p,40.6,Unlimited Time,l,31.573692730769192,19.815286784424096,31.429138432878908,40.592358602316516,19.815286784424096,31.573692730769192,31.429138432878908,40.592358602316516,-10,-0.33,0.33,10,31,21,30.67,31.33,41,3.1622776601683795,3.1622776601683795,3.1622776601683795,3.1622776601683795
10,16,0.13233089999994263,p,48.1,Unlimited Time,l,30.445136684562463,20.72143171466759,28.465264983443564,48.11297572036545,20.72143171466759,30.445136684562463,28.465264983443564,48.11297572036545,-10,-0.33,0.33,10,31,21,30.67,31.33,41,3.1622776601683795,3.1622776601683795,3.1622776601683795,3.1622776601683795
10,17,0.17556400000012218,q,32.8,Unlimited Time,l,32.785168285219235,22.51287633716097,31.462466644608153,44.81905520937055,22.51287633716097,32.785168285219235,31.462466644608153,44.81905520937055,-10,-0.33,0.33,10,31,21,30.67,31.33,41,3.1622776601683795,3.1622776601683795,3.1622776601683795,3.1622776601683795
10,18,0.170176299999639,p,41.5,Unlimited Time,l,31.65647673840361,18.404243465020965,28.64214674607514,41.50885283129412,18.404243465020965,31.65647673840361,28.64214674607514,41.50885283129412,-10,-0.33,0.33,10,31,21,30.67,31.33,41,3.1622776601683795,3.1622776601683795,3.1622776601683795,3.1622776601683795
10,19,0.24000519999981407,p,43.4,Unlimited Time,l,31.300699531597463,21.08920549111706,30.41586145103008,43.39271609821889,21.08920549111706,31.300699531597463,30.41586145103008,43.39271609821889,-10,-0.33,0.33,10,31,21,30.67,31.33,41,3.1622776601683795,3.1622776601683795,3.1622776601683795,3.1622776601683795
10,20,0.29679170000008526,p,34.9,Unlimited Time,l,28.64312938931466,22.264621216493463,26.516867397481057,34.85182152299235,22.264621216493463,28.64312938931466,26.516867397481057,34.85182152299235,-10,-0.33,0.33,10,31,21,30.67,31.33,41,3.1622776601683795,3.1622776601683795,3.1622776601683795,3.1622776601683795
11,1,,,0.0,Limited Time - 400ms,i,24.347186113024406,11.648700098853354,39.97621992951668,51.69370171210127,24.347186113024406,11.648700098853354,39.97621992951668,51.69370171210127,-10,-10,10,10,31,21,21,41,41,3.1622776601683795,10,3.1622776601683795,10
11,2,0.2808571000000484,w,21.0,Limited Time - 400ms,i,19.54325231193391,21.04542409008264,44.584305107076666,45.52068529321595,19.54325231193391,21.04542409008264,44.584305107076666,45.52068529321595,-10,-10,10,10,31,21,21,41,41,3.1622776601683795,10,3.1622776601683795,10
11,3,,,0.0,Limited Time - 400ms,i,17.516846337656325,28.694409925873206,36.78487303228249,33.27521092491462,17.516846337656325,28.694409925873206,36.78487303228249,33.27521092491462,-10,-10,10,10,31,21,21,41,41,3.1622776601683795,10,3.1622776601683795,10
11,4,,,0.0,Limited Time - 400ms,i,20.542197128731924,37.00194855177328,43.49434623574945,45.69023110939379,20.542197128731924,37.00194855177328,43.49434623574945,45.69023110939379,-10,-10,10,10,31,21,21,41,41,3.1622776601683795,10,3.1622776601683795,10
11,5,0.20995200000015757,q,19.6,Limited Time - 400ms,i,19.645908917217415,14.050958309211621,42.44619100044845,45.389887670684075,19.645908917217415,14.050958309211621,42.44619100044845,45.389887670684075,-10,-10,10,10,31,21,21,41,41,3.1622776601683795,10,3.1622776601683795,10
11,6,0.22285839999995005,w,22.3,Limited Time - 400ms,i,21.656611719042896,22.32370271123996,41.297403977569054,44.477721705575966,21.656611719042896,22.32370271123996,41.297403977569054,44.477721705575966,-10,-10,10,10,31,21,21,41,41,3.1622776601683795,10,3.1622776601683795,10
11,7,0.1692416000000776,o,39.0,Limited Time - 400ms,i,22.063421227413997,18.905873891631007,39.013506579255484,31.434442875035295,22.063421227413997,18.905873891631007,39.013506579255484,31.434442875035295,-10,-10,10,10,31,21,21,41,41,3.1622776601683795,10,3.1622776601683795,10
11,8,0.13273309999976846,o,37.5,Limited Time - 400ms,i,23.327110931121275,25.40788517428141,37.483127585122006,29.66908980443174,23.327110931121275,25.40788517428141,37.483127585122006,29.66908980443174,-10,-10,10,10,31,21,21,41,41,3.1622776601683795,10,3.1622776601683795,10
11,9,0.1656486000001678,p,53.6,Limited Time - 400ms,i,17.609288698665523,13.264671377821815,45.10343140986217,53.62564342399221,17.609288698665523,13.264671377821815,45.10343140986217,53.62564342399221,-10,-10,10,10,31,21,21,41,41,3.1622776601683795,10,3.1622776601683795,10
11,10,0.08601150000004054,p,45.9,Limited Time - 400ms,i,19.573990468610777,17.83610438356076,44.711051663499106,45.93545662621891,19.573990468610777,17.83610438356076,44.711051663499106,45.93545662621891,-10,-10,10,10,31,21,21,41,41,3.1622776601683795,10,3.1622776601683795,10
11,11,0.08325799999965966,p,34.8,Limited Time - 400ms,i,19.164866811610256,36.970849293706436,37.22524710642031,34.771288108648655,19.164866811610256,36.970849293706436,37.22524710642031,34.771288108648655,-10,-10,10,10,31,21,21,41,41,3.1622776601683795,10,3.1622776601683795,10
11,12,0.1197399999996378,p,25.2,Limited Time - 400ms,i,24.138336535473666,4.388014025425445,41.56194680476054,25.207644034267577,24.138336535473666,4.388014025425445,41.56194680476054,25.207644034267577,-10,-10,10,10,31,21,21,41,41,3.1622776601683795,10,3.1622776601683795,10
11,13,0.15898050000032526,p,30.5,Limited Time - 400ms,i,23.657305353186143,19.95202800265028,40.638463903747095,30.535616028894687,23.657305353186143,19.95202800265028,40.638463903747095,30.535616028894687,-10,-10,10,10,31,21,21,41,41,3.1622776601683795,10,3.1622776601683795,10
11,14,0.08881449999989854,q,21.2,Limited Time - 400ms,i,21.158988591902986,29.335239070346404,46.61211527265417,58.07923481972306,21.158988591902986,29.335239070346404,46.61211527265417,58.07923481972306,-10,-10,10,10,31,21,21,41,41,3.1622776601683795,10,3.1622776601683795,10
11,15,0.07482879999997749,q,20.1,Limited Time - 400ms,i,20.07512016679331,21.08332869273234,45.83220011887622,49.63645359428197,20.07512016679331,21.08332869273234,45.83220011887622,49.63645359428197,-10,-10,10,10,31,21,21,41,41,3.1622776601683795,10,3.1622776601683795,10
11,16,0.206406600000264,p,68.3,Limited Time - 400ms,i,21.84064269147043,9.393369715276698,39.42919320138223,68.33684739990362,21.84064269147043,9.393369715276698,39.42919320138223,68.33684739990362,-10,-10,10,10,31,21,21,41,41,3.1622776601683795,10,3.1622776601683795,10
11,17,0.11423759999979666,p,41.0,Limited Time - 400ms,i,26.96711910155359,7.757991514163312,35.64200962976437,41.03332743962818,26.96711910155359,7.757991514163312,35.64200962976437,41.03332743962818,-10,-10,10,10,31,21,21,41,41,3.1622776601683795,10,3.1622776601683795,10
11,18,0.12801850000005288,p,32.5,Limited Time - 400ms,i,22.772839323330132,30.122554878272016,43.9992759492117,32.45961887862518,22.772839323330132,30.122554878272016,43.9992759492117,32.45961887862518,-10,-10,10,10,31,21,21,41,41,3.1622776601683795,10,3.1622776601683795,10
11,19,0.12352790000022651,p,33.7,Limited Time - 400ms,i,22.888319687649574,18.193866283147422,37.93777453925305,33.69749964884507,22.888319687649574,18.193866283147422,37.93777453925305,33.69749964884507,-10,-10,10,10,31,21,21,41,41,3.1622776601683795,10,3.1622776601683795,10
11,20,0.07876309999983278,w,13.2,Limited Time - 400ms,i,18.09280080025468,13.166710805691405,37.4820107437361,62.61053066891265,18.09280080025468,13.166710805691405,37.4820107437361,62.61053066891265,-10,-10,10,10,31,21,21,41,41,3.1622776601683795,10,3.1622776601683795,10
12,1,0.3264259000002312,q,46.6,Limited Time - 800ms,h,46.57219430644129,31.672823502798483,37.108753889811325,41.48913796980861,31.672823502798483,46.57219430644129,37.108753889811325,41.48913796980861,-10,-0.33,0.33,10,31,21,30.67,31.33,41,10,10,10,10
12,2,0.40035200000011173,w,32.5,Limited Time - 800ms,h,39.3161570327806,32.47375076374158,39.30332039955049,48.57245845758375,32.47375076374158,39.3161570327806,39.30332039955049,48.57245845758375,-10,-0.33,0.33,10,31,21,30.67,31.33,41,10,10,10,10
12,3,0.328653900000063,o,42.6,Limited Time - 800ms,h,32.008071037203955,40.18081207945646,42.591231021751874,31.82116015628171,40.18081207945646,32.008071037203955,42.591231021751874,31.82116015628171,-10,-0.33,0.33,10,31,21,30.67,31.33,41,10,10,10,10
12,4,0.4540694000002077,p,53.7,Limited Time - 800ms,h,30.449346792615934,27.845736431297993,12.901014900940392,53.70051080896526,27.845736431297993,30.449346792615934,12.901014900940392,53.70051080896526,-10,-0.33,0.33,10,31,21,30.67,31.33,41,10,10,10,10
12,5,0.46126730000014504,p,47.6,Limited Time - 800ms,h,34.38341490182923,25.976357981739454,39.12231719289815,47.573542038161946,25.976357981739454,34.38341490182923,39.12231719289815,47.573542038161946,-10,-0.33,0.33,10,31,21,30.67,31.33,41,10,10,10,10
12,6,0.3553063999997903,p,34.5,Limited Time - 800ms,h,34.72037854102605,30.807851099037613,22.50168332914982,34.54764437338221,30.807851099037613,34.72037854102605,22.50168332914982,34.54764437338221,-10,-0.33,0.33,10,31,21,30.67,31.33,41,10,10,10,10
12,7,0.33882949999997436,p,28.5,Limited Time - 800ms,h,28.370975173718346,22.056847538139948,27.07663219832194,28.530051964287118,22.056847538139948,28.370975173718346,27.07663219832194,28.530051964287118,-10,-0.33,0.33,10,31,21,30.67,31.33,41,10,10,10,10
12,8,0.24054089999981443,q,18.6,Limited Time - 800ms,h,18.621692057131032,25.257893396284054,25.25192432210352,39.67495536059868,25.257893396284054,18.621692057131032,25.25192432210352,39.67495536059868,-10,-0.33,0.33,10,31,21,30.67,31.33,41,10,10,10,10
12,9,0.28461730000026364,o,37.3,Limited Time - 800ms,h,43.57142907264771,13.695007931511427,37.25672575074156,29.826678064793448,13.695007931511427,43.57142907264771,37.25672575074156,29.826678064793448,-10,-0.33,0.33,10,31,21,30.67,31.33,41,10,10,10,10
12,10,0.3595580000001064,p,46.5,Limited Time - 800ms,h,44.98178660169123,5.110810999047434,19.524693665326435,46.516641058513,5.110810999047434,44.98178660169123,19.524693665326435,46.516641058513,-10,-0.33,0.33,10,31,21,30.67,31.33,41,10,10,10,10
12,11,0.23146349999979066,o,49.0,Limited Time - 800ms,h,36.392548290473016,7.374551385495613,48.96019667045999,40.076267491159165,7.374551385495613,36.392548290473016,48.96019667045999,40.076267491159165,-10,-0.33,0.33,10,31,21,30.67,31.33,41,10,10,10,10
12,12,0.25983270000006087,p,30.9,Limited Time - 800ms,h,41.88981204058824,17.606784959467383,25.68397958850232,30.894587092718155,17.606784959467383,41.88981204058824,25.68397958850232,30.894587092718155,-10,-0.33,0.33,10,31,21,30.67,31.33,41,10,10,10,10
12,13,0.14966550000008283,o,20.3,Limited Time - 800ms,h,39.745297397396136,22.64727684227519,20.326240807309777,63.02899228676449,22.64727684227519,39.745297397396136,20.326240807309777,63.02899228676449,-10,-0.33,0.33,10,31,21,30.67,31.33,41,10,10,10,10
12,14,0.2754971999997906,p,33.4,Limited Time - 800ms,h,38.36676703787549,35.86689750442851,25.874986763452362,33.38299805678808,35.86689750442851,38.36676703787549,25.874986763452362,33.38299805678808,-10,-0.33,0.33,10,31,21,30.67,31.33,41,10,10,10,10
12,15,0.27465200000006007,w,6.7,Limited Time - 800ms,h,8.383149397141501,6.67138018900231,21.592141710363713,30.520890953790943,6.67138018900231,8.383149397141501,21.592141710363713,30.520890953790943,-10,-0.33,0.33,10,31,21,30.67,31.33,41,10,10,10,10
12,16,0.18288510000002134,p,51.4,Limited Time - 800ms,h,27.634563637527467,40.5829320039848,33.725345005637024,51.40559872070084,40.5829320039848,27.634563637527467,33.725345005637024,51.40559872070084,-10,-0.33,0.33,10,31,21,30.67,31.33,41,10,10,10,10
12,17,0.22439180000037595,o,34.9,Limited Time - 800ms,h,32.65207335409718,28.394594908586456,34.895040999864534,41.15980168344702,28.394594908586456,32.65207335409718,34.895040999864534,41.15980168344702,-10,-0.33,0.33,10,31,21,30.67,31.33,41,10,10,10,10
12,18,0.16150029999971593,p,60.5,Limited Time - 800ms,h,26.490772379094594,43.81431060073066,19.394935247958724,60.51143210288722,43.81431060073066,26.490772379094594,19.394935247958724,60.51143210288722,-10,-0.33,0.33,10,31,21,30.67,31.33,41,10,10,10,10
12,19,0.2241628000001583,p,38.9,Limited Time - 800ms,h,33.20212541630736,34.10527850317321,46.348377770572064,38.937854331850296,34.10527850317321,33.20212541630736,46.348377770572064,38.937854331850296,-10,-0.33,0.33,10,31,21,30.67,31.33,41,10,10,10,10
12,20,0.22083509999993112,p,37.2,Limited Time - 800ms,h,17.78690102088224,17.24559985127936,53.44582942972765,37.20701439770072,17.24559985127936,17.78690102088224,53.44582942972765,37.20701439770072,-10,-0.33,0.33,10,31,21,30.67,31.33,41,10,10,10,10
13,1,0.8304840000000695,p,22.0,Unlimited Time,l,43.892107226306244,31.398110983403072,32.74820479233382,21.9979010281651,21.9979010281651,32.74820479233382,31.398110983403072,43.892107226306244,-10,-0.33,0.33,10,31,21,30.67,31.33,41,3.1622776601683795,3.1622776601683795,3.1622776601683795,3.1622776601683795
13,2,0.24708449999980076,o,39.8,Unlimited Time,l,40.59364139571893,34.3983924276473,39.826513816120006,25.403437789686638,25.403437789686638,39.826513816120006,34.3983924276473,40.59364139571893,-10,-0.33,0.33,10,31,21,30.67,31.33,41,3.1622776601683795,3.1622776601683795,3.1622776601683795,3.1622776601683795
13,3,0.31633849999980157,w,24.4,Unlimited Time,l,40.12187155210207,24.434085776917698,31.93745720489739,23.24336195322016,23.24336195322016,31.93745720489739,24.434085776917698,40.12187155210207,-10,-0.33,0.33,10,31,21,30.67,31.33,41,3.1622776601683795,3.1622776601683795,3.1622776601683795,3.1622776601683795
13,4,0.21336209999981293,q,42.5,Unlimited Time,l,42.538742209852884,30.583764833730626,26.93914941494611,19.761284200850238,19.761284200850238,26.93914941494611,30.583764833730626,42.538742209852884,-10,-0.33,0.33,10,31,21,30.67,31.33,41,3.1622776601683795,3.1622776601683795,3.1622776601683795,3.1622776601683795
13,5,0.34505529999978535,o,32.0,Unlimited Time,l,40.7625550976692,30.476963431744995,32.04787181643473,20.0827881731259,20.0827881731259,32.04787181643473,30.476963431744995,40.7625550976692,-10,-0.33,0.33,10,31,21,30.67,31.33,41,3.1622776601683795,3.1622776601683795,3.1622776601683795,3.1622776601683795
13,6,0.20039719999977024,q,42.9,Unlimited Time,l,42.920938504550946,28.4368334703409,30.025386267620057,20.512317045766487,20.512317045766487,30.025386267620057,28.4368334703409,42.920938504550946,-10,-0.33,0.33,10,31,21,30.67,31.33,41,3.1622776601683795,3.1622776601683795,3.1622776601683795,3.1622776601683795
13,7,0.2520358000001579,q,36.9,Unlimited Time,l,36.859102604270106,26.99074228726921,29.414045265082688,25.946074957477638,25.946074957477638,29.414045265082688,26.99074228726921,36.859102604270106,-10,-0.33,0.33,10,31,21,30.67,31.33,41,3.1622776601683795,3.1622776601683795,3.1622776601683795,3.1622776601683795
13,8,0.2808290999996643,q,41.1,Unlimited Time,l,41.1196448386324,37.78032937133509,27.840836279573928,27.403914562064408,27.403914562064408,27.840836279573928,37.78032937133509,41.1196448386324,-10,-0.33,0.33,10,31,21,30.67,31.33,41,3.1622776601683795,3.1622776601683795,3.1622776601683795,3.1622776601683795
13,9,0.17376999999987675,q,35.8,Unlimited Time,l,35.77449943922868,32.845721226767814,29.018937890124448,18.86330021240344,18.86330021240344,29.018937890124448,32.845721226767814,35.77449943922868,-10,-0.33,0.33,10,31,21,30.67,31.33,41,3.1622776601683795,3.1622776601683795,3.1622776601683795,3.1622776601683795
13,10,0.2066023000002133,q,38.3,Unlimited Time,l,38.31784102018074,28.3981430159416,31.940524448321398,21.717566567944086,21.717566567944086,31.940524448321398,28.3981430159416,38.31784102018074,-10,-0.33,0.33,10,31,21,30.67,31.33,41,3.1622776601683795,3.1622776601683795,3.1622776601683795,3.1622776601683795
13,11,0.15284310000015466,q,41.1,Unlimited Time,l,41.072227444707494,26.94124124178726,33.20783033150281,20.256382210275955,20.256382210275955,33.20783033150281,26.94124124178726,41.072227444707494,-10,-0.33,0.33,10,31,21,30.67,31.33,41,3.1622776601683795,3.1622776601683795,3.1622776601683795,3.1622776601683795
13,12,0.18573079999987385,q,44.4,Unlimited Time,l,44.44886656790359,33.732169235953364,23.79306931880649,20.27461215358323,20.27461215358323,23.79306931880649,33.732169235953364,44.44886656790359,-10,-0.33,0.33,10,31,21,30.67,31.33,41,3.1622776601683795,3.1622776601683795,3.1622776601683795,3.1622776601683795
13,13,0.17040719999977227,q,39.7,Unlimited Time,l,39.65917511285948,26.172125265088088,32.329217619681515,19.527882399835153,19.527882399835153,32.329217619681515,26.172125265088088,39.65917511285948,-10,-0.33,0.33,10,31,21,30.67,31.33,41,3.1622776601683795,3.1622776601683795,3.1622776601683795,3.1622776601683795
13,14,0.235933599999953,q,44.7,Unlimited Time,l,44.65032179276139,36.77331369657617,38.70619170765473,20.82964561113141,20.82964561113141,38.70619170765473,36.77331369657617,44.65032179276139,-10,-0.33,0.33,10,31,21,30.67,31.33,41,3.1622776601683795,3.1622776601683795,3.1622776601683795,3.1622776601683795
13,15,0.16682659999969474,q,40.6,Unlimited Time,l,40.592358602316516,31.429138432878908,31.573692730769192,19.815286784424096,19.815286784424096,31.573692730769192,31.429138432878908,40.592358602316516,-10,-0.33,0.33,10,31,21,30.67,31.33,41,3.1622776601683795,3.1622776601683795,3.1622776601683795,3.1622776601683795
13,16,0.20773529999996754,q,48.1,Unlimited Time,l,48.11297572036545,28.465264983443564,30.445136684562463,20.72143171466759,20.72143171466759,30.445136684562463,28.465264983443564,48.11297572036545,-10,-0.33,0.33,10,31,21,30.67,31.33,41,3.1622776601683795,3.1622776601683795,3.1622776601683795,3.1622776601683795
13,17,0.26385930000014923,q,44.8,Unlimited Time,l,44.81905520937055,31.462466644608153,32.785168285219235,22.51287633716097,22.51287633716097,32.785168285219235,31.462466644608153,44.81905520937055,-10,-0.33,0.33,10,31,21,30.67,31.33,41,3.1622776601683795,3.1622776601683795,3.1622776601683795,3.1622776601683795
13,18,0.17857850000018516,o,31.7,Unlimited Time,l,41.50885283129412,28.64214674607514,31.65647673840361,18.404243465020965,18.404243465020965,31.65647673840361,28.64214674607514,41.50885283129412,-10,-0.33,0.33,10,31,21,30.67,31.33,41,3.1622776601683795,3.1622776601683795,3.1622776601683795,3.1622776601683795
13,19,0.35041659999978947,q,43.4,Unlimited Time,l,43.39271609821889,30.41586145103008,31.300699531597463,21.08920549111706,21.08920549111706,31.300699531597463,30.41586145103008,43.39271609821889,-10,-0.33,0.33,10,31,21,30.67,31.33,41,3.1622776601683795,3.1622776601683795,3.1622776601683795,3.1622776601683795
13,20,0.1395943000002262,w,26.5,Unlimited Time,l,34.85182152299235,26.516867397481057,28.64312938931466,22.264621216493463,22.264621216493463,28.64312938931466,26.516867397481057,34.85182152299235,-10,-0.33,0.33,10,31,21,30.67,31.33,41,3.1622776601683795,3.1622776601683795,3.1622776601683795,3.1622776601683795
14,1,,,0.0,Limited Time - 400ms,e,39.62351213490963,33.84806231597438,33.03084467674194,24.07358438167512,33.03084467674194,39.62351213490963,24.07358438167512,33.84806231597438,0,0,0,0,31,31,31,31,31,3.1622776601683795,6.324555320336759,8.366600265340756,10
14,2,0.13463279999996303,q,36.9,Limited Time - 400ms,e,36.888548204071334,46.250387703293,28.755257637511818,33.90857217687929,28.755257637511818,36.888548204071334,33.90857217687929,46.250387703293,0,0,0,0,31,31,31,31,31,3.1622776601683795,6.324555320336759,8.366600265340756,10
14,3,0.2572574999999233,q,22.0,Limited Time - 400ms,e,21.95138619253566,51.809702411772875,33.93373545712658,32.174732114399674,33.93373545712658,21.95138619253566,32.174732114399674,51.809702411772875,0,0,0,0,31,31,31,31,31,3.1622776601683795,6.324555320336759,8.366600265340756,10
14,4,0.17548989999977493,q,18.6,Limited Time - 400ms,e,18.57815834846285,23.314983907186623,30.409751776002295,37.01675223798532,30.409751776002295,18.57815834846285,37.01675223798532,23.314983907186623,0,0,0,0,31,31,31,31,31,3.1622776601683795,6.324555320336759,8.366600265340756,10
14,5,0.04142200000023877,q,26.9,Limited Time - 400ms,e,26.949577125325778,18.040446457541385,29.82356956732574,33.72469147398895,29.82356956732574,26.949577125325778,33.72469147398895,18.040446457541385,0,0,0,0,31,31,31,31,31,3.1622776601683795,6.324555320336759,8.366600265340756,10
14,6,0.21942959999978484,q,30.9,Limited Time - 400ms,e,30.94959383815686,41.8604001958931,32.698085299215485,28.72135576281377,32.698085299215485,30.94959383815686,28.72135576281377,41.8604001958931,0,0,0,0,31,31,31,31,31,3.1622776601683795,6.324555320336759,8.366600265340756,10
14,7,0.04598790000000008,q,30.2,Limited Time - 400ms,e,30.159866198675697,20.975433358035474,31.373976328204495,27.552869728821438,31.373976328204495,30.159866198675697,27.552869728821438,20.975433358035474,0,0,0,0,31,31,31,31,31,3.1622776601683795,6.324555320336759,8.366600265340756,10
14,8,0.0019978999998784275,w,35.1,Limited Time - 400ms,e,34.57019632335171,35.05343164873231,33.260550171141,27.068419420151297,33.260550171141,34.57019632335171,27.068419420151297,35.05343164873231,0,0,0,0,31,31,31,31,31,3.1622776601683795,6.324555320336759,8.366600265340756,10
14,9,0.2355560000000878,q,22.9,Limited Time - 400ms,e,22.93377978202339,19.872095307064818,30.78091151971712,30.322916949904027,30.78091151971712,22.93377978202339,30.322916949904027,19.872095307064818,0,0,0,0,31,31,31,31,31,3.1622776601683795,6.324555320336759,8.366600265340756,10
14,10,0.025685299999622657,o,27.4,Limited Time - 400ms,e,34.711625040032075,14.86431673945544,27.410385838573816,31.684193044553467,27.410385838573816,34.711625040032075,31.684193044553467,14.86431673945544,0,0,0,0,31,31,31,31,31,3.1622776601683795,6.324555320336759,8.366600265340756,10
14,11,0.012337999999999738,p,34.9,Limited Time - 400ms,e,42.575723362267354,15.269710731609674,28.043990068687556,34.88866749609642,28.043990068687556,42.575723362267354,34.88866749609642,15.269710731609674,0,0,0,0,31,31,31,31,31,3.1622776601683795,6.324555320336759,8.366600265340756,10
14,12,0.044337000000268745,q,41.9,Limited Time - 400ms,e,41.88823536653192,45.617808586455396,33.2202665745333,38.29359821589353,33.2202665745333,41.88823536653192,38.29359821589353,45.617808586455396,0,0,0,0,31,31,31,31,31,3.1622776601683795,6.324555320336759,8.366600265340756,10
14,13,0.05824429999984204,w,3.1,Limited Time - 400ms,e,37.65904677344486,3.1157168576461203,38.91763286775145,37.283165968283456,38.91763286775145,37.65904677344486,37.283165968283456,3.1157168576461203,0,0,0,0,31,31,31,31,31,3.1622776601683795,6.324555320336759,8.366600265340756,10
14,14,0.02991969999993671,q,24.3,Limited Time - 400ms,e,24.2808525033492,31.950879406237235,31.703987949061187,31.09800083054944,31.703987949061187,24.2808525033492,31.09800083054944,31.950879406237235,0,0,0,0,31,31,31,31,31,3.1622776601683795,6.324555320336759,8.366600265340756,10
14,15,0.07271690000015951,q,37.4,Limited Time - 400ms,e,37.40470826287393,28.871009309221247,30.128301617828605,35.03906607591424,30.128301617828605,37.40470826287393,35.03906607591424,28.871009309221247,0,0,0,0,31,31,31,31,31,3.1622776601683795,6.324555320336759,8.366600265340756,10
14,16,0.054513999999926455,q,28.7,Limited Time - 400ms,e,28.745490699198573,26.832317273179413,35.83677418396883,22.332278848615715,35.83677418396883,28.745490699198573,22.332278848615715,26.832317273179413,0,0,0,0,31,31,31,31,31,3.1622776601683795,6.324555320336759,8.366600265340756,10
14,17,0.021487900000010995,q,31.8,Limited Time - 400ms,e,31.790526325484645,34.564216371574936,27.13981234508297,27.71239496401381,27.13981234508297,31.790526325484645,27.71239496401381,34.564216371574936,0,0,0,0,31,31,31,31,31,3.1622776601683795,6.324555320336759,8.366600265340756,10
14,18,,,0.0,Limited Time - 400ms,e,18.15851898380078,43.75055845167807,32.48996354208136,29.418718254698646,32.48996354208136,18.15851898380078,29.418718254698646,43.75055845167807,0,0,0,0,31,31,31,31,31,3.1622776601683795,6.324555320336759,8.366600265340756,10
14,19,,,0.0,Limited Time - 400ms,e,33.729335311591946,43.90339287232965,32.5339697543208,28.459685967980032,32.5339697543208,33.729335311591946,28.459685967980032,43.90339287232965,0,0,0,0,31,31,31,31,31,3.1622776601683795,6.324555320336759,8.366600265340756,10
14,20,,,0.0,Limited Time - 400ms,e,27.96453340405819,24.580573488936555,30.79243674957974,37.54298778219182,30.79243674957974,27.96453340405819,37.54298778219182,24.580573488936555,0,0,0,0,31,31,31,31,31,3.1622776601683795,6.324555320336759,8.366600265340756,10
15,1,0.2989026999998714,q,33.8,Limited Time - 800ms,e,33.84806231597438,39.62351213490963,24.07358438167512,33.03084467674194,33.03084467674194,39.62351213490963,24.07358438167512,33.84806231597438,0,0,0,0,31,31,31,31,31,3.1622776601683795,6.324555320336759,8.366600265340756,10
15,2,0.16938900000013746,q,46.3,Limited Time - 800ms,e,46.250387703293,36.888548204071334,33.90857217687929,28.755257637511818,28.755257637511818,36.888548204071334,33.90857217687929,46.250387703293,0,0,0,0,31,31,31,31,31,3.1622776601683795,6.324555320336759,8.366600265340756,10
15,3,0.22623820000035266,q,51.8,Limited Time - 800ms,e,51.809702411772875,21.95138619253566,32.174732114399674,33.93373545712658,33.93373545712658,21.95138619253566,32.174732114399674,51.809702411772875,0,0,0,0,31,31,31,31,31,3.1622776601683795,6.324555320336759,8.366600265340756,10
15,4,0.13312600000017483,o,37.0,Limited Time - 800ms,e,23.314983907186623,18.57815834846285,37.01675223798532,30.409751776002295,30.409751776002295,18.57815834846285,37.01675223798532,23.314983907186623,0,0,0,0,31,31,31,31,31,3.1622776601683795,6.324555320336759,8.366600265340756,10
15,5,0.2050507999997535,p,29.8,Limited Time - 800ms,e,18.040446457541385,26.949577125325778,33.72469147398895,29.82356956732574,29.82356956732574,26.949577125325778,33.72469147398895,18.040446457541385,0,0,0,0,31,31,31,31,31,3.1622776601683795,6.324555320336759,8.366600265340756,10
15,6,0.19686589999992066,w,30.9,Limited Time - 800ms,e,41.8604001958931,30.94959383815686,28.72135576281377,32.698085299215485,32.698085299215485,30.94959383815686,28.72135576281377,41.8604001958931,0,0,0,0,31,31,31,31,31,3.1622776601683795,6.324555320336759,8.366600265340756,10
15,7,0.13180689999990136,q,21.0,Limited Time - 800ms,e,20.975433358035474,30.159866198675697,27.552869728821438,31.373976328204495,31.373976328204495,30.159866198675697,27.552869728821438,20.975433358035474,0,0,0,0,31,31,31,31,31,3.1622776601683795,6.324555320336759,8.366600265340756,10
15,8,0.1717342999995708,q,35.1,Limited Time - 800ms,e,35.05343164873231,34.57019632335171,27.068419420151297,33.260550171141,33.260550171141,34.57019632335171,27.068419420151297,35.05343164873231,0,0,0,0,31,31,31,31,31,3.1622776601683795,6.324555320336759,8.366600265340756,10
15,9,0.039719200000035926,o,30.3,Limited Time - 800ms,e,19.872095307064818,22.93377978202339,30.322916949904027,30.78091151971712,30.78091151971712,22.93377978202339,30.322916949904027,19.872095307064818,0,0,0,0,31,31,31,31,31,3.1622776601683795,6.324555320336759,8.366600265340756,10
15,10,0.14735550000023068,o,31.7,Limited Time - 800ms,e,14.86431673945544,34.711625040032075,31.684193044553467,27.410385838573816,27.410385838573816,34.711625040032075,31.684193044553467,14.86431673945544,0,0,0,0,31,31,31,31,31,3.1622776601683795,6.324555320336759,8.366600265340756,10
15,11,0.17842190000010305,o,34.9,Limited Time - 800ms,e,15.269710731609674,42.575723362267354,34.88866749609642,28.043990068687556,28.043990068687556,42.575723362267354,34.88866749609642,15.269710731609674,0,0,0,0,31,31,31,31,31,3.1622776601683795,6.324555320336759,8.366600265340756,10
15,12,0.027424700000210578,o,38.3,Limited Time - 800ms,e,45.617808586455396,41.88823536653192,38.29359821589353,33.2202665745333,33.2202665745333,41.88823536653192,38.29359821589353,45.617808586455396,0,0,0,0,31,31,31,31,31,3.1622776601683795,6.324555320336759,8.366600265340756,10
15,13,0.15947419999974954,o,37.3,Limited Time - 800ms,e,3.1157168576461203,37.65904677344486,37.283165968283456,38.91763286775145,38.91763286775145,37.65904677344486,37.283165968283456,3.1157168576461203,0,0,0,0,31,31,31,31,31,3.1622776601683795,6.324555320336759,8.366600265340756,10
15,14,0.05624850000003789,q,32.0,Limited Time - 800ms,e,31.950879406237235,24.2808525033492,31.09800083054944,31.703987949061187,31.703987949061187,24.2808525033492,31.09800083054944,31.950879406237235,0,0,0,0,31,31,31,31,31,3.1622776601683795,6.324555320336759,8.366600265340756,10
15,15,0.23909649999995963,q,28.9,Limited Time - 800ms,e,28.871009309221247,37.40470826287393,35.03906607591424,30.128301617828605,30.128301617828605,37.40470826287393,35.03906607591424,28.871009309221247,0,0,0,0,31,31,31,31,31,3.1622776601683795,6.324555320336759,8.366600265340756,10
15,16,0.49282240000002275,o,22.3,Limited Time - 800ms,e,26.832317273179413,28.745490699198573,22.332278848615715,35.83677418396883,35.83677418396883,28.745490699198573,22.332278848615715,26.832317273179413,0,0,0,0,31,31,31,31,31,3.1622776601683795,6.324555320336759,8.366600265340756,10
15,17,0.10901639999974577,o,27.7,Limited Time - 800ms,e,34.564216371574936,31.790526325484645,27.71239496401381,27.13981234508297,27.13981234508297,31.790526325484645,27.71239496401381,34.564216371574936,0,0,0,0,31,31,31,31,31,3.1622776601683795,6.324555320336759,8.366600265340756,10
15,18,0.11810569999988729,q,43.8,Limited Time - 800ms,e,43.75055845167807,18.15851898380078,29.418718254698646,32.48996354208136,32.48996354208136,18.15851898380078,29.418718254698646,43.75055845167807,0,0,0,0,31,31,31,31,31,3.1622776601683795,6.324555320336759,8.366600265340756,10
15,19,0.06922489999988102,q,43.9,Limited Time - 800ms,e,43.90339287232965,33.729335311591946,28.459685967980032,32.5339697543208,32.5339697543208,33.729335311591946,28.459685967980032,43.90339287232965,0,0,0,0,31,31,31,31,31,3.1622776601683795,6.324555320336759,8.366600265340756,10
15,20,0.04778219999980138,q,24.6,Limited Time - 800ms,e,24.580573488936555,27.96453340405819,37.54298778219182,30.79243674957974,30.79243674957974,27.96453340405819,37.54298778219182,24.580573488936555,0,0,0,0,31,31,31,31,31,3.1622776601683795,6.324555320336759,8.366600265340756,10
16,1,0.49481250000008004,q,24.3,Unlimited Time,i,24.347186113024406,39.97621992951668,51.69370171210127,11.648700098853354,24.347186113024406,11.648700098853354,39.97621992951668,51.69370171210127,-10,-10,10,10,31,21,21,41,41,3.1622776601683795,10,3.1622776601683795,10
16,2,0.2540313999998034,w,44.6,Unlimited Time,i,19.54325231193391,44.584305107076666,45.52068529321595,21.04542409008264,19.54325231193391,21.04542409008264,44.584305107076666,45.52068529321595,-10,-10,10,10,31,21,21,41,41,3.1622776601683795,10,3.1622776601683795,10
16,3,0.268178700000135,o,33.3,Unlimited Time,i,17.516846337656325,36.78487303228249,33.27521092491462,28.694409925873206,17.516846337656325,28.694409925873206,36.78487303228249,33.27521092491462,-10,-10,10,10,31,21,21,41,41,3.1622776601683795,10,3.1622776601683795,10
16,4,0.3031658999998399,p,37.0,Unlimited Time,i,20.542197128731924,43.49434623574945,45.69023110939379,37.00194855177328,20.542197128731924,37.00194855177328,43.49434623574945,45.69023110939379,-10,-10,10,10,31,21,21,41,41,3.1622776601683795,10,3.1622776601683795,10
16,5,0.43144219999976485,w,42.4,Unlimited Time,i,19.645908917217415,42.44619100044845,45.389887670684075,14.050958309211621,19.645908917217415,14.050958309211621,42.44619100044845,45.389887670684075,-10,-10,10,10,31,21,21,41,41,3.1622776601683795,10,3.1622776601683795,10
16,6,0.260650700000042,w,41.3,Unlimited Time,i,21.656611719042896,41.297403977569054,44.477721705575966,22.32370271123996,21.656611719042896,22.32370271123996,41.297403977569054,44.477721705575966,-10,-10,10,10,31,21,21,41,41,3.1622776601683795,10,3.1622776601683795,10
16,7,0.2112115999998423,w,39.0,Unlimited Time,i,22.063421227413997,39.013506579255484,31.434442875035295,18.905873891631007,22.063421227413997,18.905873891631007,39.013506579255484,31.434442875035295,-10,-10,10,10,31,21,21,41,41,3.1622776601683795,10,3.1622776601683795,10
16,8,0.18387239999992744,w,37.5,Unlimited Time,i,23.327110931121275,37.483127585122006,29.66908980443174,25.40788517428141,23.327110931121275,25.40788517428141,37.483127585122006,29.66908980443174,-10,-10,10,10,31,21,21,41,41,3.1622776601683795,10,3.1622776601683795,10
16,9,0.2456174000003557,w,45.1,Unlimited Time,i,17.609288698665523,45.10343140986217,53.62564342399221,13.264671377821815,17.609288698665523,13.264671377821815,45.10343140986217,53.62564342399221,-10,-10,10,10,31,21,21,41,41,3.1622776601683795,10,3.1622776601683795,10
16,10,0.27673979999963194,w,44.7,Unlimited Time,i,19.573990468610777,44.711051663499106,45.93545662621891,17.83610438356076,19.573990468610777,17.83610438356076,44.711051663499106,45.93545662621891,-10,-10,10,10,31,21,21,41,41,3.1622776601683795,10,3.1622776601683795,10
16,11,0.10929259999966234,w,37.2,Unlimited Time,i,19.164866811610256,37.22524710642031,34.771288108648655,36.970849293706436,19.164866811610256,36.970849293706436,37.22524710642031,34.771288108648655,-10,-10,10,10,31,21,21,41,41,3.1622776601683795,10,3.1622776601683795,10
16,12,0.06807879999996658,w,41.6,Unlimited Time,i,24.138336535473666,41.56194680476054,25.207644034267577,4.388014025425445,24.138336535473666,4.388014025425445,41.56194680476054,25.207644034267577,-10,-10,10,10,31,21,21,41,41,3.1622776601683795,10,3.1622776601683795,10
16,13,0.21232989999998608,w,40.6,Unlimited Time,i,23.657305353186143,40.638463903747095,30.535616028894687,19.95202800265028,23.657305353186143,19.95202800265028,40.638463903747095,30.535616028894687,-10,-10,10,10,31,21,21,41,41,3.1622776601683795,10,3.1622776601683795,10
16,14,0.033580199999960314,w,46.6,Unlimited Time,i,21.158988591902986,46.61211527265417,58.07923481972306,29.335239070346404,21.158988591902986,29.335239070346404,46.61211527265417,58.07923481972306,-10,-10,10,10,31,21,21,41,41,3.1622776601683795,10,3.1622776601683795,10
16,15,0.11055139999962194,w,45.8,Unlimited Time,i,20.07512016679331,45.83220011887622,49.63645359428197,21.08332869273234,20.07512016679331,21.08332869273234,45.83220011887622,49.63645359428197,-10,-10,10,10,31,21,21,41,41,3.1622776601683795,10,3.1622776601683795,10
16,16,0.11601989999962825,w,39.4,Unlimited Time,i,21.84064269147043,39.42919320138223,68.33684739990362,9.393369715276698,21.84064269147043,9.393369715276698,39.42919320138223,68.33684739990362,-10,-10,10,10,31,21,21,41,41,3.1622776601683795,10,3.1622776601683795,10
16,17,0.0677797999996983,w,35.6,Unlimited Time,i,26.96711910155359,35.64200962976437,41.03332743962818,7.757991514163312,26.96711910155359,7.757991514163312,35.64200962976437,41.03332743962818,-10,-10,10,10,31,21,21,41,41,3.1622776601683795,10,3.1622776601683795,10
16,18,0.17542809999986275,p,30.1,Unlimited Time,i,22.772839323330132,43.9992759492117,32.45961887862518,30.122554878272016,22.772839323330132,30.122554878272016,43.9992759492117,32.45961887862518,-10,-10,10,10,31,21,21,41,41,3.1622776601683795,10,3.1622776601683795,10
16,19,0.08625449999999546,w,37.9,Unlimited Time,i,22.888319687649574,37.93777453925305,33.69749964884507,18.193866283147422,22.888319687649574,18.193866283147422,37.93777453925305,33.69749964884507,-10,-10,10,10,31,21,21,41,41,3.1622776601683795,10,3.1622776601683795,10
16,20,0.1618677999999818,w,37.5,Unlimited Time,i,18.09280080025468,37.4820107437361,62.61053066891265,13.166710805691405,18.09280080025468,13.166710805691405,37.4820107437361,62.61053066891265,-10,-10,10,10,31,21,21,41,41,3.1622776601683795,10,3.1622776601683795,10
17,1,,,0.0,Limited Time - 400ms,l,21.9979010281651,43.892107226306244,31.398110983403072,32.74820479233382,21.9979010281651,32.74820479233382,31.398110983403072,43.892107226306244,-10,-0.33,0.33,10,31,21,30.67,31.33,41,3.1622776601683795,3.1622776601683795,3.1622776601683795,3.1622776601683795
17,2,0.007563899999695423,q,25.4,Limited Time - 400ms,l,25.403437789686638,40.59364139571893,34.3983924276473,39.826513816120006,25.403437789686638,39.826513816120006,34.3983924276473,40.59364139571893,-10,-0.33,0.33,10,31,21,30.67,31.33,41,3.1622776601683795,3.1622776601683795,3.1622776601683795,3.1622776601683795
17,3,0.05394609999984823,q,23.2,Limited Time - 400ms,l,23.24336195322016,40.12187155210207,24.434085776917698,31.93745720489739,23.24336195322016,31.93745720489739,24.434085776917698,40.12187155210207,-10,-0.33,0.33,10,31,21,30.67,31.33,41,3.1622776601683795,3.1622776601683795,3.1622776601683795,3.1622776601683795
17,4,0.22789289999991524,q,19.8,Limited Time - 400ms,l,19.761284200850238,42.538742209852884,30.583764833730626,26.93914941494611,19.761284200850238,26.93914941494611,30.583764833730626,42.538742209852884,-10,-0.33,0.33,10,31,21,30.67,31.33,41,3.1622776601683795,3.1622776601683795,3.1622776601683795,3.1622776601683795
17,5,0.2629855000000134,w,40.8,Limited Time - 400ms,l,20.0827881731259,40.7625550976692,30.476963431744995,32.04787181643473,20.0827881731259,32.04787181643473,30.476963431744995,40.7625550976692,-10,-0.33,0.33,10,31,21,30.67,31.33,41,3.1622776601683795,3.1622776601683795,3.1622776601683795,3.1622776601683795
17,6,0.1941546000002745,w,42.9,Limited Time - 400ms,l,20.512317045766487,42.920938504550946,28.4368334703409,30.025386267620057,20.512317045766487,30.025386267620057,28.4368334703409,42.920938504550946,-10,-0.33,0.33,10,31,21,30.67,31.33,41,3.1622776601683795,3.1622776601683795,3.1622776601683795,3.1622776601683795
17,7,0.17504409999992276,w,36.9,Limited Time - 400ms,l,25.946074957477638,36.859102604270106,26.99074228726921,29.414045265082688,25.946074957477638,29.414045265082688,26.99074228726921,36.859102604270106,-10,-0.33,0.33,10,31,21,30.67,31.33,41,3.1622776601683795,3.1622776601683795,3.1622776601683795,3.1622776601683795
17,8,0.18352200000026642,w,41.1,Limited Time - 400ms,l,27.403914562064408,41.1196448386324,37.78032937133509,27.840836279573928,27.403914562064408,27.840836279573928,37.78032937133509,41.1196448386324,-10,-0.33,0.33,10,31,21,30.67,31.33,41,3.1622776601683795,3.1622776601683795,3.1622776601683795,3.1622776601683795
17,9,0.2375675999996929,w,35.8,Limited Time - 400ms,l,18.86330021240344,35.77449943922868,32.845721226767814,29.018937890124448,18.86330021240344,29.018937890124448,32.845721226767814,35.77449943922868,-10,-0.33,0.33,10,31,21,30.67,31.33,41,3.1622776601683795,3.1622776601683795,3.1622776601683795,3.1622776601683795
17,10,0.14255250000041997,w,38.3,Limited Time - 400ms,l,21.717566567944086,38.31784102018074,28.3981430159416,31.940524448321398,21.717566567944086,31.940524448321398,28.3981430159416,38.31784102018074,-10,-0.33,0.33,10,31,21,30.67,31.33,41,3.1622776601683795,3.1622776601683795,3.1622776601683795,3.1622776601683795
17,11,0.211164099999678,w,41.1,Limited Time - 400ms,l,20.256382210275955,41.072227444707494,26.94124124178726,33.20783033150281,20.256382210275955,33.20783033150281,26.94124124178726,41.072227444707494,-10,-0.33,0.33,10,31,21,30.67,31.33,41,3.1622776601683795,3.1622776601683795,3.1622776601683795,3.1622776601683795
17,12,0.1795507000001635,w,44.4,Limited Time - 400ms,l,20.27461215358323,44.44886656790359,33.732169235953364,23.79306931880649,20.27461215358323,23.79306931880649,33.732169235953364,44.44886656790359,-10,-0.33,0.33,10,31,21,30.67,31.33,41,3.1622776601683795,3.1622776601683795,3.1622776601683795,3.1622776601683795
17,13,0.10448200000018915,w,39.7,Limited Time - 400ms,l,19.527882399835153,39.65917511285948,26.172125265088088,32.329217619681515,19.527882399835153,32.329217619681515,26.172125265088088,39.65917511285948,-10,-0.33,0.33,10,31,21,30.67,31.33,41,3.1622776601683795,3.1622776601683795,3.1622776601683795,3.1622776601683795
17,14,0.18487509999977192,w,44.7,Limited Time - 400ms,l,20.82964561113141,44.65032179276139,36.77331369657617,38.70619170765473,20.82964561113141,38.70619170765473,36.77331369657617,44.65032179276139,-10,-0.33,0.33,10,31,21,30.67,31.33,41,3.1622776601683795,3.1622776601683795,3.1622776601683795,3.1622776601683795
17,15,0.26637410000012096,w,40.6,Limited Time - 400ms,l,19.815286784424096,40.592358602316516,31.429138432878908,31.573692730769192,19.815286784424096,31.573692730769192,31.429138432878908,40.592358602316516,-10,-0.33,0.33,10,31,21,30.67,31.33,41,3.1622776601683795,3.1622776601683795,3.1622776601683795,3.1622776601683795
17,16,0.024399100000209728,w,48.1,Limited Time - 400ms,l,20.72143171466759,48.11297572036545,28.465264983443564,30.445136684562463,20.72143171466759,30.445136684562463,28.465264983443564,48.11297572036545,-10,-0.33,0.33,10,31,21,30.67,31.33,41,3.1622776601683795,3.1622776601683795,3.1622776601683795,3.1622776601683795
17,17,0.18237339999996038,w,44.8,Limited Time - 400ms,l,22.51287633716097,44.81905520937055,31.462466644608153,32.785168285219235,22.51287633716097,32.785168285219235,31.462466644608153,44.81905520937055,-10,-0.33,0.33,10,31,21,30.67,31.33,41,3.1622776601683795,3.1622776601683795,3.1622776601683795,3.1622776601683795
17,18,0.09225470000001224,w,41.5,Limited Time - 400ms,l,18.404243465020965,41.50885283129412,28.64214674607514,31.65647673840361,18.404243465020965,31.65647673840361,28.64214674607514,41.50885283129412,-10,-0.33,0.33,10,31,21,30.67,31.33,41,3.1622776601683795,3.1622776601683795,3.1622776601683795,3.1622776601683795
17,19,0.2772837000002255,w,43.4,Limited Time - 400ms,l,21.08920549111706,43.39271609821889,30.41586145103008,31.300699531597463,21.08920549111706,31.300699531597463,30.41586145103008,43.39271609821889,-10,-0.33,0.33,10,31,21,30.67,31.33,41,3.1622776601683795,3.1622776601683795,3.1622776601683795,3.1622776601683795
17,20,0.04054760000008173,w,34.9,Limited Time - 400ms,l,22.264621216493463,34.85182152299235,26.516867397481057,28.64312938931466,22.264621216493463,28.64312938931466,26.516867397481057,34.85182152299235,-10,-0.33,0.33,10,31,21,30.67,31.33,41,3.1622776601683795,3.1622776601683795,3.1622776601683795,3.1622776601683795
18,1,0.29761839999991935,q,51.7,Limited Time - 800ms,i,51.69370171210127,11.648700098853354,24.347186113024406,39.97621992951668,24.347186113024406,11.648700098853354,39.97621992951668,51.69370171210127,-10,-10,10,10,31,21,21,41,41,3.1622776601683795,10,3.1622776601683795,10
18,2,0.005506900000000314,w,21.0,Limited Time - 800ms,i,45.52068529321595,21.04542409008264,19.54325231193391,44.584305107076666,19.54325231193391,21.04542409008264,44.584305107076666,45.52068529321595,-10,-10,10,10,31,21,21,41,41,3.1622776601683795,10,3.1622776601683795,10
18,3,0.0651105999995707,o,17.5,Limited Time - 800ms,i,33.27521092491462,28.694409925873206,17.516846337656325,36.78487303228249,17.516846337656325,28.694409925873206,36.78487303228249,33.27521092491462,-10,-10,10,10,31,21,21,41,41,3.1622776601683795,10,3.1622776601683795,10
18,4,0.05532579999999143,p,43.5,Limited Time - 800ms,i,45.69023110939379,37.00194855177328,20.542197128731924,43.49434623574945,20.542197128731924,37.00194855177328,43.49434623574945,45.69023110939379,-10,-10,10,10,31,21,21,41,41,3.1622776601683795,10,3.1622776601683795,10
18,5,0.1226713999999447,q,45.4,Limited Time - 800ms,i,45.389887670684075,14.050958309211621,19.645908917217415,42.44619100044845,19.645908917217415,14.050958309211621,42.44619100044845,45.389887670684075,-10,-10,10,10,31,21,21,41,41,3.1622776601683795,10,3.1622776601683795,10
18,6,0.11437310000019352,q,44.5,Limited Time - 800ms,i,44.477721705575966,22.32370271123996,21.656611719042896,41.297403977569054,21.656611719042896,22.32370271123996,41.297403977569054,44.477721705575966,-10,-10,10,10,31,21,21,41,41,3.1622776601683795,10,3.1622776601683795,10
18,7,0.15840660000003481,q,31.4,Limited Time - 800ms,i,31.434442875035295,18.905873891631007,22.063421227413997,39.013506579255484,22.063421227413997,18.905873891631007,39.013506579255484,31.434442875035295,-10,-10,10,10,31,21,21,41,41,3.1622776601683795,10,3.1622776601683795,10
18,8,0.11012299999993047,q,29.7,Limited Time - 800ms,i,29.66908980443174,25.40788517428141,23.327110931121275,37.483127585122006,23.327110931121275,25.40788517428141,37.483127585122006,29.66908980443174,-10,-10,10,10,31,21,21,41,41,3.1622776601683795,10,3.1622776601683795,10
18,9,0.17032279999966704,q,53.6,Limited Time - 800ms,i,53.62564342399221,13.264671377821815,17.609288698665523,45.10343140986217,17.609288698665523,13.264671377821815,45.10343140986217,53.62564342399221,-10,-10,10,10,31,21,21,41,41,3.1622776601683795,10,3.1622776601683795,10
18,10,0.6495417000000998,p,44.7,Limited Time - 800ms,i,45.93545662621891,17.83610438356076,19.573990468610777,44.711051663499106,19.573990468610777,17.83610438356076,44.711051663499106,45.93545662621891,-10,-10,10,10,31,21,21,41,41,3.1622776601683795,10,3.1622776601683795,10
18,11,0.10732379999990371,p,37.2,Limited Time - 800ms,i,34.771288108648655,36.970849293706436,19.164866811610256,37.22524710642031,19.164866811610256,36.970849293706436,37.22524710642031,34.771288108648655,-10,-10,10,10,31,21,21,41,41,3.1622776601683795,10,3.1622776601683795,10
18,12,0.12375169999995705,p,41.6,Limited Time - 800ms,i,25.207644034267577,4.388014025425445,24.138336535473666,41.56194680476054,24.138336535473666,4.388014025425445,41.56194680476054,25.207644034267577,-10,-10,10,10,31,21,21,41,41,3.1622776601683795,10,3.1622776601683795,10
