Round Number,Trial Number,Reaction Time,Choice,Reward (Health Points),Time Condition,Payoff Condition,Q mapped,W mapped,O mapped,P mapped,One value,Two value,Three value,Four value,One mean,Two mean,Three mean,Four mean,Mean Shift,One shifted mean,Two shifted mean,Three shifted mean,Four shifted mean,One SD,Two SD,Three SD,Four SD
1,1,0.5779094999888912,w,58.7,Unlimited Time,h,40.94927139222096,58.745790849111465,31.05842948759061,27.57504504025058,31.05842948759061,58.745790849111465,40.94927139222096,27.57504504025058,-10,-0.33,0.33,10,38,28,37.67,38.33,48,10,10,10,10
1,2,0.40846140001667663,o,34.9,Unlimited Time,h,57.72465479614809,45.53581740625034,34.87537104213353,56.27990721487026,34.87537104213353,45.53581740625034,57.72465479614809,56.27990721487026,-10,-0.33,0.33,10,38,28,37.67,38.33,48,10,10,10,10
1,3,0.44962809997377917,p,47.4,Unlimited Time,h,33.327424891218115,16.47061007798617,28.73449205649013,47.351485935657536,28.73449205649013,16.47061007798617,33.327424891218115,47.351485935657536,-10,-0.33,0.33,10,38,28,37.67,38.33,48,10,10,10,10
1,4,0.45296600001165643,q,39.1,Unlimited Time,h,39.104736204892625,38.36720633533029,41.77866714077825,48.13854118136944,41.77866714077825,38.36720633533029,39.104736204892625,48.13854118136944,-10,-0.33,0.33,10,38,28,37.67,38.33,48,10,10,10,10
1,5,0.3711161999963224,w,58.7,Unlimited Time,h,56.11993532591515,58.74260122216102,18.25945686884362,62.60937942473836,18.25945686884362,58.74260122216102,56.11993532591515,62.60937942473836,-10,-0.33,0.33,10,38,28,37.67,38.33,48,10,10,10,10
1,6,0.3395712999626994,p,54.6,Unlimited Time,h,40.093067907001,49.66677540232753,32.90300978083355,54.578772805956554,32.90300978083355,49.66677540232753,40.093067907001,54.578772805956554,-10,-0.33,0.33,10,38,28,37.67,38.33,48,10,10,10,10
1,7,0.3838830000022426,w,25.5,Unlimited Time,h,36.65489474398156,25.480464419906706,13.739335286696159,63.522125404636924,13.739335286696159,25.480464419906706,36.65489474398156,63.522125404636924,-10,-0.33,0.33,10,38,28,37.67,38.33,48,10,10,10,10
1,8,0.3950212999479845,p,45.2,Unlimited Time,h,28.530301077973544,31.804025131582236,40.898548356984385,45.197364002237094,40.898548356984385,31.804025131582236,28.530301077973544,45.197364002237094,-10,-0.33,0.33,10,38,28,37.67,38.33,48,10,10,10,10
1,9,0.36946529999841005,q,36.5,Unlimited Time,h,36.53895341521028,49.62165779476122,22.30684597189724,48.499151171070295,22.30684597189724,49.62165779476122,36.53895341521028,48.499151171070295,-10,-0.33,0.33,10,38,28,37.67,38.33,48,10,10,10,10
1,10,0.2545953000080772,o,34.4,Unlimited Time,h,43.671358867830094,28.845285314842812,34.41312969033244,50.12945783703966,34.41312969033244,28.845285314842812,43.671358867830094,50.12945783703966,-10,-0.33,0.33,10,38,28,37.67,38.33,48,10,10,10,10
1,11,0.2258620000211522,p,62.9,Unlimited Time,h,49.56770504786291,30.464909875010303,11.814613224634648,62.89000870192931,11.814613224634648,30.464909875010303,49.56770504786291,62.89000870192931,-10,-0.33,0.33,10,38,28,37.67,38.33,48,10,10,10,10
1,12,0.30676090001361445,w,35.8,Unlimited Time,h,32.30649793014335,35.800035787538754,18.04845783292602,51.6631945967665,18.04845783292602,35.800035787538754,32.30649793014335,51.6631945967665,-10,-0.33,0.33,10,38,28,37.67,38.33,48,10,10,10,10
1,13,0.44170039996970445,p,47.6,Unlimited Time,h,19.42711006119635,28.042055494120312,19.07348800800313,47.57108991408186,19.07348800800313,28.042055494120312,19.42711006119635,47.57108991408186,-10,-0.33,0.33,10,38,28,37.67,38.33,48,10,10,10,10
1,14,0.24123089999193326,q,56.6,Unlimited Time,h,56.576195863329545,26.995477868223652,22.942105225889716,49.25650226868283,22.942105225889716,26.995477868223652,56.576195863329545,49.25650226868283,-10,-0.33,0.33,10,38,28,37.67,38.33,48,10,10,10,10
1,15,0.3732851999811828,o,42.3,Unlimited Time,h,56.70174968663364,22.980234871053113,42.26204124630065,57.10032322043499,42.26204124630065,22.980234871053113,56.70174968663364,57.10032322043499,-10,-0.33,0.33,10,38,28,37.67,38.33,48,10,10,10,10
1,16,0.17050609999569133,p,44.0,Unlimited Time,h,28.47913710879062,40.138173868457436,22.381867442757567,43.99020453368318,22.381867442757567,40.138173868457436,28.47913710879062,43.99020453368318,-10,-0.33,0.33,10,38,28,37.67,38.33,48,10,10,10,10
1,17,0.35418269998626783,q,33.3,Unlimited Time,h,33.264353807784914,40.53825970764073,43.11836896140472,48.04680033007744,43.11836896140472,40.53825970764073,33.264353807784914,48.04680033007744,-10,-0.33,0.33,10,38,28,37.67,38.33,48,10,10,10,10
1,18,0.19637590000638738,o,14.1,Unlimited Time,h,43.23939811591352,27.683020592782853,14.068734747868348,45.99096397254078,14.068734747868348,27.683020592782853,43.23939811591352,45.99096397254078,-10,-0.33,0.33,10,38,28,37.67,38.33,48,10,10,10,10
1,19,0.35095860000001267,p,50.7,Unlimited Time,h,39.300257865615286,52.37249833151995,24.833278415819553,50.69314913203996,24.833278415819553,52.37249833151995,39.300257865615286,50.69314913203996,-10,-0.33,0.33,10,38,28,37.67,38.33,48,10,10,10,10
1,20,0.10186210001120344,w,33.2,Unlimited Time,h,45.96033230216,33.2269314233568,20.751177614051272,42.44910305648743,20.751177614051272,33.2269314233568,45.96033230216,42.44910305648743,-10,-0.33,0.33,10,38,28,37.67,38.33,48,10,10,10,10
2,1,0.24456319998716936,o,31.1,Limited Time - 400ms,h,58.745790849111465,40.94927139222096,31.05842948759061,27.57504504025058,31.05842948759061,58.745790849111465,40.94927139222096,27.57504504025058,-10,-0.33,0.33,10,38,28,37.67,38.33,48,10,10,10,10
2,2,0.21239979995880276,q,45.5,Limited Time - 400ms,h,45.53581740625034,57.72465479614809,34.87537104213353,56.27990721487026,34.87537104213353,45.53581740625034,57.72465479614809,56.27990721487026,-10,-0.33,0.33,10,38,28,37.67,38.33,48,10,10,10,10
2,3,0.1539908000268042,q,16.5,Limited Time - 400ms,h,16.47061007798617,33.327424891218115,28.73449205649013,47.351485935657536,28.73449205649013,16.47061007798617,33.327424891218115,47.351485935657536,-10,-0.33,0.33,10,38,28,37.67,38.33,48,10,10,10,10
2,4,0.3474888000055216,o,41.8,Limited Time - 400ms,h,38.36720633533029,39.104736204892625,41.77866714077825,48.13854118136944,41.77866714077825,38.36720633533029,39.104736204892625,48.13854118136944,-10,-0.33,0.33,10,38,28,37.67,38.33,48,10,10,10,10
2,5,,,0.0,Limited Time - 400ms,h,58.74260122216102,56.11993532591515,18.25945686884362,62.60937942473836,18.25945686884362,58.74260122216102,56.11993532591515,62.60937942473836,-10,-0.33,0.33,10,38,28,37.67,38.33,48,10,10,10,10
2,6,0.019896799989510328,q,49.7,Limited Time - 400ms,h,49.66677540232753,40.093067907001,32.90300978083355,54.578772805956554,32.90300978083355,49.66677540232753,40.093067907001,54.578772805956554,-10,-0.33,0.33,10,38,28,37.67,38.33,48,10,10,10,10
2,7,0.0010389999952167273,w,36.7,Limited Time - 400ms,h,25.480464419906706,36.65489474398156,13.739335286696159,63.522125404636924,13.739335286696159,25.480464419906706,36.65489474398156,63.522125404636924,-10,-0.33,0.33,10,38,28,37.67,38.33,48,10,10,10,10
2,8,0.2531320999842137,w,28.5,Limited Time - 400ms,h,31.804025131582236,28.530301077973544,40.898548356984385,45.197364002237094,40.898548356984385,31.804025131582236,28.530301077973544,45.197364002237094,-10,-0.33,0.33,10,38,28,37.67,38.33,48,10,10,10,10
2,9,0.20044849999248981,q,49.6,Limited Time - 400ms,h,49.62165779476122,36.53895341521028,22.30684597189724,48.499151171070295,22.30684597189724,49.62165779476122,36.53895341521028,48.499151171070295,-10,-0.33,0.33,10,38,28,37.67,38.33,48,10,10,10,10
2,10,0.16665389999980107,p,50.1,Limited Time - 400ms,h,28.845285314842812,43.671358867830094,34.41312969033244,50.12945783703966,34.41312969033244,28.845285314842812,43.671358867830094,50.12945783703966,-10,-0.33,0.33,10,38,28,37.67,38.33,48,10,10,10,10
2,11,0.29364590003388,q,30.5,Limited Time - 400ms,h,30.464909875010303,49.56770504786291,11.814613224634648,62.89000870192931,11.814613224634648,30.464909875010303,49.56770504786291,62.89000870192931,-10,-0.33,0.33,10,38,28,37.67,38.33,48,10,10,10,10
2,12,0.25603400002000853,p,51.7,Limited Time - 400ms,h,35.800035787538754,32.30649793014335,18.04845783292602,51.6631945967665,18.04845783292602,35.800035787538754,32.30649793014335,51.6631945967665,-10,-0.33,0.33,10,38,28,37.67,38.33,48,10,10,10,10
2,13,0.23392269999021664,q,28.0,Limited Time - 400ms,h,28.042055494120312,19.42711006119635,19.07348800800313,47.57108991408186,19.07348800800313,28.042055494120312,19.42711006119635,47.57108991408186,-10,-0.33,0.33,10,38,28,37.67,38.33,48,10,10,10,10
2,14,0.16575440001906827,p,49.3,Limited Time - 400ms,h,26.995477868223652,56.576195863329545,22.942105225889716,49.25650226868283,22.942105225889716,26.995477868223652,56.576195863329545,49.25650226868283,-10,-0.33,0.33,10,38,28,37.67,38.33,48,10,10,10,10
2,15,0.28330489998916164,q,23.0,Limited Time - 400ms,h,22.980234871053113,56.70174968663364,42.26204124630065,57.10032322043499,42.26204124630065,22.980234871053113,56.70174968663364,57.10032322043499,-10,-0.33,0.33,10,38,28,37.67,38.33,48,10,10,10,10
2,16,0.20102520001819357,p,44.0,Limited Time - 400ms,h,40.138173868457436,28.47913710879062,22.381867442757567,43.99020453368318,22.381867442757567,40.138173868457436,28.47913710879062,43.99020453368318,-10,-0.33,0.33,10,38,28,37.67,38.33,48,10,10,10,10
2,17,0.1010418999940157,q,40.5,Limited Time - 400ms,h,40.53825970764073,33.264353807784914,43.11836896140472,48.04680033007744,43.11836896140472,40.53825970764073,33.264353807784914,48.04680033007744,-10,-0.33,0.33,10,38,28,37.67,38.33,48,10,10,10,10
2,18,0.32978969998657703,o,14.1,Limited Time - 400ms,h,27.683020592782853,43.23939811591352,14.068734747868348,45.99096397254078,14.068734747868348,27.683020592782853,43.23939811591352,45.99096397254078,-10,-0.33,0.33,10,38,28,37.67,38.33,48,10,10,10,10
2,19,0.027801899996120483,o,24.8,Limited Time - 400ms,h,52.37249833151995,39.300257865615286,24.833278415819553,50.69314913203996,24.833278415819553,52.37249833151995,39.300257865615286,50.69314913203996,-10,-0.33,0.33,10,38,28,37.67,38.33,48,10,10,10,10
2,20,,,0.0,Limited Time - 400ms,h,33.2269314233568,45.96033230216,20.751177614051272,42.44910305648743,20.751177614051272,33.2269314233568,45.96033230216,42.44910305648743,-10,-0.33,0.33,10,38,28,37.67,38.33,48,10,10,10,10
3,1,0.3133410000009462,w,37.2,Limited Time - 800ms,l,48.83130953277062,37.156675519270365,32.48685503567944,31.135548093389364,31.135548093389364,37.156675519270365,32.48685503567944,48.83130953277062,-10,-0.33,0.33,10,38,28,37.67,38.33,48,3.1622776601683795,3.1622776601683795,3.1622776601683795,3.1622776601683795
3,2,0.49028639995958656,p,27.4,Limited Time - 800ms,l,42.9343410004794,36.81933201786938,35.640427810840734,27.377367164062818,27.377367164062818,36.81933201786938,35.640427810840734,42.9343410004794,-10,-0.33,0.33,10,38,28,37.67,38.33,48,3.1622776601683795,3.1622776601683795,3.1622776601683795,3.1622776601683795
3,3,0.3847376999910921,q,51.2,Limited Time - 800ms,l,51.167400742716076,39.73153301375933,39.13923138217929,26.46277769919944,26.46277769919944,39.73153301375933,39.13923138217929,51.167400742716076,-10,-0.33,0.33,10,38,28,37.67,38.33,48,3.1622776601683795,3.1622776601683795,3.1622776601683795,3.1622776601683795
3,4,0.06945760000962764,o,38.3,Limited Time - 800ms,l,42.96878622321668,44.07528269715625,38.25547434903298,28.47784171556439,28.47784171556439,44.07528269715625,38.25547434903298,42.96878622321668,-10,-0.33,0.33,10,38,28,37.67,38.33,48,3.1622776601683795,3.1622776601683795,3.1622776601683795,3.1622776601683795
3,5,0.7446635999949649,w,38.0,Limited Time - 800ms,l,49.36915589846536,38.013865262246185,37.33262109237775,25.591131797184723,25.591131797184723,38.013865262246185,37.33262109237775,49.36915589846536,-10,-0.33,0.33,10,38,28,37.67,38.33,48,3.1622776601683795,3.1622776601683795,3.1622776601683795,3.1622776601683795
3,6,0.18448820000048727,q,49.6,Limited Time - 800ms,l,49.58087523910396,38.45902414169193,32.7291918989185,26.936067603247526,26.936067603247526,38.45902414169193,32.7291918989185,49.58087523910396,-10,-0.33,0.33,10,38,28,37.67,38.33,48,3.1622776601683795,3.1622776601683795,3.1622776601683795,3.1622776601683795
3,7,0.06284090003464371,p,29.2,Limited Time - 800ms,l,47.660032625314194,31.45669013416584,34.346824325428074,29.226002811011185,29.226002811011185,31.45669013416584,34.346824325428074,47.660032625314194,-10,-0.33,0.33,10,38,28,37.67,38.33,48,3.1622776601683795,3.1622776601683795,3.1622776601683795,3.1622776601683795
3,8,0.2690914999693632,w,39.2,Limited Time - 800ms,l,45.03096572013826,39.22445600104613,36.49722067586132,25.26974713423214,25.26974713423214,39.22445600104613,36.49722067586132,45.03096572013826,-10,-0.33,0.33,10,38,28,37.67,38.33,48,3.1622776601683795,3.1622776601683795,3.1622776601683795,3.1622776601683795
3,9,,,0.0,Limited Time - 800ms,l,47.73192004848486,39.66518536306837,37.952065088806364,29.32722233706709,29.32722233706709,39.66518536306837,37.952065088806364,47.73192004848486,-10,-0.33,0.33,10,38,28,37.67,38.33,48,3.1622776601683795,3.1622776601683795,3.1622776601683795,3.1622776601683795
3,10,0.17110879998654127,o,33.3,Limited Time - 800ms,l,48.137846773539074,37.36347477917596,33.2839308892854,26.387529868794736,26.387529868794736,37.36347477917596,33.2839308892854,48.137846773539074,-10,-0.33,0.33,10,38,28,37.67,38.33,48,3.1622776601683795,3.1622776601683795,3.1622776601683795,3.1622776601683795
3,11,0.027211999986320734,p,25.9,Limited Time - 800ms,l,47.00276487843317,40.45628464366889,33.86011017308841,25.906078471921187,25.906078471921187,40.45628464366889,33.86011017308841,47.00276487843317,-10,-0.33,0.33,10,38,28,37.67,38.33,48,3.1622776601683795,3.1622776601683795,3.1622776601683795,3.1622776601683795
3,12,0.4854485999676399,o,36.2,Limited Time - 800ms,l,44.875843839607526,41.77510222883588,36.21537762543704,27.04008150793364,27.04008150793364,41.77510222883588,36.21537762543704,44.875843839607526,-10,-0.33,0.33,10,38,28,37.67,38.33,48,3.1622776601683795,3.1622776601683795,3.1622776601683795,3.1622776601683795
3,13,0.17381879995809868,p,28.6,Limited Time - 800ms,l,52.21631678584785,35.578177146828324,36.99107843529276,28.567296729832634,28.567296729832634,35.578177146828324,36.99107843529276,52.21631678584785,-10,-0.33,0.33,10,38,28,37.67,38.33,48,3.1622776601683795,3.1622776601683795,3.1622776601683795,3.1622776601683795
3,14,0.4363300999975763,o,39.5,Limited Time - 800ms,l,49.889105926877306,35.25067360292832,39.48085582167133,32.36518222753479,32.36518222753479,35.25067360292832,39.48085582167133,49.889105926877306,-10,-0.33,0.33,10,38,28,37.67,38.33,48,3.1622776601683795,3.1622776601683795,3.1622776601683795,3.1622776601683795
3,15,0.2899714999948628,q,43.0,Limited Time - 800ms,l,43.04077956608392,39.262994852985706,34.566224781157985,24.532178533587384,24.532178533587384,39.262994852985706,34.566224781157985,43.04077956608392,-10,-0.33,0.33,10,38,28,37.67,38.33,48,3.1622776601683795,3.1622776601683795,3.1622776601683795,3.1622776601683795
3,16,0.47545440000249073,q,52.8,Limited Time - 800ms,l,52.76724069802954,29.325053033413447,42.52706530592162,29.50595193851659,29.50595193851659,29.325053033413447,42.52706530592162,52.76724069802954,-10,-0.33,0.33,10,38,28,37.67,38.33,48,3.1622776601683795,3.1622776601683795,3.1622776601683795,3.1622776601683795
3,17,0.37958680000156164,q,45.5,Limited Time - 800ms,l,45.46775474162316,39.16893172967011,37.050588979977526,30.39331319962058,30.39331319962058,39.16893172967011,37.050588979977526,45.46775474162316,-10,-0.33,0.33,10,38,28,37.67,38.33,48,3.1622776601683795,3.1622776601683795,3.1622776601683795,3.1622776601683795
3,18,0.3320122999721207,q,50.7,Limited Time - 800ms,l,50.73001979482792,42.96343970859738,38.37212805814863,29.311291128264827,29.311291128264827,42.96343970859738,38.37212805814863,50.73001979482792,-10,-0.33,0.33,10,38,28,37.67,38.33,48,3.1622776601683795,3.1622776601683795,3.1622776601683795,3.1622776601683795
3,19,0.5430007000104524,q,52.4,Limited Time - 800ms,l,52.41662710790145,38.17728696022125,40.81325237899797,26.114419994476904,26.114419994476904,38.17728696022125,40.81325237899797,52.41662710790145,-10,-0.33,0.33,10,38,28,37.67,38.33,48,3.1622776601683795,3.1622776601683795,3.1622776601683795,3.1622776601683795
3,20,0.30027089995564893,q,48.7,Limited Time - 800ms,l,48.695154743975344,37.35647052206179,40.38757891771013,30.255961063880697,30.255961063880697,37.35647052206179,40.38757891771013,48.695154743975344,-10,-0.33,0.33,10,38,28,37.67,38.33,48,3.1622776601683795,3.1622776601683795,3.1622776601683795,3.1622776601683795
4,1,0.6331474999897182,w,12.2,Unlimited Time,i,43.59310203493124,12.235434769230512,47.57132009487501,29.3373968315882,29.3373968315882,12.235434769230512,47.57132009487501,43.59310203493124,-10,-10,10,10,38,28,28,48,48,3.1622776601683795,10,3.1622776601683795,10
4,2,0.17934360000072047,q,58.8,Unlimited Time,i,58.825056166667245,39.83685909489663,50.04677370090349,26.71671509140925,26.71671509140925,39.83685909489663,50.04677370090349,58.825056166667245,-10,-10,10,10,38,28,28,48,48,3.1622776601683795,10,3.1622776601683795,10
4,3,0.19008729996858165,o,51.8,Unlimited Time,i,40.53586724403469,30.949701194287265,51.80945864475601,28.819870484308442,28.819870484308442,30.949701194287265,51.80945864475601,40.53586724403469,-10,-10,10,10,38,28,28,48,48,3.1622776601683795,10,3.1622776601683795,10
4,4,0.0020694000413641334,q,26.0,Unlimited Time,i,26.03592794729019,41.66791424783835,44.60443803434937,26.882325123227094,26.882325123227094,41.66791424783835,44.60443803434937,26.03592794729019,-10,-10,10,10,38,28,28,48,48,3.1622776601683795,10,3.1622776601683795,10
4,5,0.36024829995585606,o,49.7,Unlimited Time,i,32.83648181186026,10.847918722304907,49.73388008802045,33.00888393850412,33.00888393850412,10.847918722304907,49.73388008802045,32.83648181186026,-10,-10,10,10,38,28,28,48,48,3.1622776601683795,10,3.1622776601683795,10
4,6,0.12417100003222004,p,27.5,Unlimited Time,i,44.75909766339943,53.182504162232355,49.876575985433746,27.511915763952302,27.511915763952302,53.182504162232355,49.876575985433746,44.75909766339943,-10,-10,10,10,38,28,28,48,48,3.1622776601683795,10,3.1622776601683795,10
4,7,0.16279370000120252,w,34.2,Unlimited Time,i,52.62698531458362,34.201689868238375,47.16908908144646,29.666427502212485,29.666427502212485,34.201689868238375,47.16908908144646,52.62698531458362,-10,-10,10,10,38,28,28,48,48,3.1622776601683795,10,3.1622776601683795,10
4,8,0.09485639998456463,q,37.1,Unlimited Time,i,37.120119819362124,30.654139119224702,50.746964304614536,24.596710039699673,24.596710039699673,30.654139119224702,50.746964304614536,37.120119819362124,-10,-10,10,10,38,28,28,48,48,3.1622776601683795,10,3.1622776601683795,10
4,9,0.16719840001314878,o,47.7,Unlimited Time,i,61.319074355145844,34.3305764847169,47.74541728439188,24.80079769198453,24.80079769198453,34.3305764847169,47.74541728439188,61.319074355145844,-10,-10,10,10,38,28,28,48,48,3.1622776601683795,10,3.1622776601683795,10
4,10,0.13584380003158003,p,26.9,Unlimited Time,i,52.196151410245456,4.473951158851143,53.13132152877917,26.903368993396903,26.903368993396903,4.473951158851143,53.13132152877917,52.196151410245456,-10,-10,10,10,38,28,28,48,48,3.1622776601683795,10,3.1622776601683795,10
4,11,0.2677192999981344,q,29.1,Unlimited Time,i,29.066636037485075,29.801312212938242,49.1829097024455,28.059846378056903,28.059846378056903,29.801312212938242,49.1829097024455,29.066636037485075,-10,-10,10,10,38,28,28,48,48,3.1622776601683795,10,3.1622776601683795,10
4,12,0.13361890002852306,o,48.3,Unlimited Time,i,53.13855094274077,38.81222357884846,48.30439149888593,33.20416382772084,33.20416382772084,38.81222357884846,48.30439149888593,53.13855094274077,-10,-10,10,10,38,28,28,48,48,3.1622776601683795,10,3.1622776601683795,10
4,13,0.22959499998250976,p,27.2,Unlimited Time,i,47.09613252250637,35.344795177039735,46.265770230799355,27.19704246109718,27.19704246109718,35.344795177039735,46.265770230799355,47.09613252250637,-10,-10,10,10,38,28,28,48,48,3.1622776601683795,10,3.1622776601683795,10
4,14,0.2958311000256799,w,23.3,Unlimited Time,i,60.367362799012426,23.29573759160803,53.00569136649447,30.183307814114443,30.183307814114443,23.29573759160803,53.00569136649447,60.367362799012426,-10,-10,10,10,38,28,28,48,48,3.1622776601683795,10,3.1622776601683795,10
4,15,0.0227603999665007,q,34.4,Unlimited Time,i,34.410731617672546,24.89711605745269,44.115371026809626,25.05926481991999,25.05926481991999,24.89711605745269,44.115371026809626,34.410731617672546,-10,-10,10,10,38,28,28,48,48,3.1622776601683795,10,3.1622776601683795,10
4,16,0.008903600042685866,o,43.2,Unlimited Time,i,44.33729659410621,16.288632815795925,43.22636525564167,24.74113016296616,24.74113016296616,16.288632815795925,43.22636525564167,44.33729659410621,-10,-10,10,10,38,28,28,48,48,3.1622776601683795,10,3.1622776601683795,10
4,17,0.10474370000883937,p,32.0,Unlimited Time,i,35.527434636341376,18.94622433946698,47.97853730195898,31.95127363845829,31.95127363845829,18.94622433946698,47.97853730195898,35.527434636341376,-10,-10,10,10,38,28,28,48,48,3.1622776601683795,10,3.1622776601683795,10
4,18,0.2381118999910541,w,30.1,Unlimited Time,i,39.66045670919624,30.085250472300785,50.6507502504436,29.044802971243296,29.044802971243296,30.085250472300785,50.6507502504436,39.66045670919624,-10,-10,10,10,38,28,28,48,48,3.1622776601683795,10,3.1622776601683795,10
4,19,0.08905299997422844,q,43.7,Unlimited Time,i,43.74364978007931,35.35867894053777,50.95284239531639,27.317456950188546,27.317456950188546,35.35867894053777,50.95284239531639,43.74364978007931,-10,-10,10,10,38,28,28,48,48,3.1622776601683795,10,3.1622776601683795,10
4,20,0.27081819996237755,p,30.7,Unlimited Time,i,55.702874017485705,41.140070463645316,41.24370858370338,30.66253855977803,30.66253855977803,41.140070463645316,41.24370858370338,55.702874017485705,-10,-10,10,10,38,28,28,48,48,3.1622776601683795,10,3.1622776601683795,10
5,1,0.31030579999787733,w,37.2,Limited Time - 400ms,l,32.48685503567944,37.156675519270365,48.83130953277062,31.135548093389364,31.135548093389364,37.156675519270365,32.48685503567944,48.83130953277062,-10,-0.33,0.33,10,38,28,37.67,38.33,48,3.1622776601683795,3.1622776601683795,3.1622776601683795,3.1622776601683795
5,2,0.29954560002079234,o,42.9,Limited Time - 400ms,l,35.640427810840734,36.81933201786938,42.9343410004794,27.377367164062818,27.377367164062818,36.81933201786938,35.640427810840734,42.9343410004794,-10,-0.33,0.33,10,38,28,37.67,38.33,48,3.1622776601683795,3.1622776601683795,3.1622776601683795,3.1622776601683795
5,3,0.2583807000191882,q,39.1,Limited Time - 400ms,l,39.13923138217929,39.73153301375933,51.167400742716076,26.46277769919944,26.46277769919944,39.73153301375933,39.13923138217929,51.167400742716076,-10,-0.33,0.33,10,38,28,37.67,38.33,48,3.1622776601683795,3.1622776601683795,3.1622776601683795,3.1622776601683795
5,4,0.3290019999840297,q,38.3,Limited Time - 400ms,l,38.25547434903298,44.07528269715625,42.96878622321668,28.47784171556439,28.47784171556439,44.07528269715625,38.25547434903298,42.96878622321668,-10,-0.33,0.33,10,38,28,37.67,38.33,48,3.1622776601683795,3.1622776601683795,3.1622776601683795,3.1622776601683795
5,5,0.05055430001812056,q,37.3,Limited Time - 400ms,l,37.33262109237775,38.013865262246185,49.36915589846536,25.591131797184723,25.591131797184723,38.013865262246185,37.33262109237775,49.36915589846536,-10,-0.33,0.33,10,38,28,37.67,38.33,48,3.1622776601683795,3.1622776601683795,3.1622776601683795,3.1622776601683795
5,6,0.22591899998951703,p,26.9,Limited Time - 400ms,l,32.7291918989185,38.45902414169193,49.58087523910396,26.936067603247526,26.936067603247526,38.45902414169193,32.7291918989185,49.58087523910396,-10,-0.33,0.33,10,38,28,37.67,38.33,48,3.1622776601683795,3.1622776601683795,3.1622776601683795,3.1622776601683795
5,7,0.27151200000662357,q,34.3,Limited Time - 400ms,l,34.346824325428074,31.45669013416584,47.660032625314194,29.226002811011185,29.226002811011185,31.45669013416584,34.346824325428074,47.660032625314194,-10,-0.33,0.33,10,38,28,37.67,38.33,48,3.1622776601683795,3.1622776601683795,3.1622776601683795,3.1622776601683795
5,8,0.3227397999726236,o,45.0,Limited Time - 400ms,l,36.49722067586132,39.22445600104613,45.03096572013826,25.26974713423214,25.26974713423214,39.22445600104613,36.49722067586132,45.03096572013826,-10,-0.33,0.33,10,38,28,37.67,38.33,48,3.1622776601683795,3.1622776601683795,3.1622776601683795,3.1622776601683795
5,9,0.3105294000124559,o,47.7,Limited Time - 400ms,l,37.952065088806364,39.66518536306837,47.73192004848486,29.32722233706709,29.32722233706709,39.66518536306837,37.952065088806364,47.73192004848486,-10,-0.33,0.33,10,38,28,37.67,38.33,48,3.1622776601683795,3.1622776601683795,3.1622776601683795,3.1622776601683795
5,10,0.14642590004950762,o,48.1,Limited Time - 400ms,l,33.2839308892854,37.36347477917596,48.137846773539074,26.387529868794736,26.387529868794736,37.36347477917596,33.2839308892854,48.137846773539074,-10,-0.33,0.33,10,38,28,37.67,38.33,48,3.1622776601683795,3.1622776601683795,3.1622776601683795,3.1622776601683795
5,11,0.24393110000528395,w,40.5,Limited Time - 400ms,l,33.86011017308841,40.45628464366889,47.00276487843317,25.906078471921187,25.906078471921187,40.45628464366889,33.86011017308841,47.00276487843317,-10,-0.33,0.33,10,38,28,37.67,38.33,48,3.1622776601683795,3.1622776601683795,3.1622776601683795,3.1622776601683795
5,12,0.0893328000092879,w,41.8,Limited Time - 400ms,l,36.21537762543704,41.77510222883588,44.875843839607526,27.04008150793364,27.04008150793364,41.77510222883588,36.21537762543704,44.875843839607526,-10,-0.33,0.33,10,38,28,37.67,38.33,48,3.1622776601683795,3.1622776601683795,3.1622776601683795,3.1622776601683795
5,13,0.10353279998525977,w,35.6,Limited Time - 400ms,l,36.99107843529276,35.578177146828324,52.21631678584785,28.567296729832634,28.567296729832634,35.578177146828324,36.99107843529276,52.21631678584785,-10,-0.33,0.33,10,38,28,37.67,38.33,48,3.1622776601683795,3.1622776601683795,3.1622776601683795,3.1622776601683795
5,14,0.19735940004466102,o,49.9,Limited Time - 400ms,l,39.48085582167133,35.25067360292832,49.889105926877306,32.36518222753479,32.36518222753479,35.25067360292832,39.48085582167133,49.889105926877306,-10,-0.33,0.33,10,38,28,37.67,38.33,48,3.1622776601683795,3.1622776601683795,3.1622776601683795,3.1622776601683795
5,15,,,0.0,Limited Time - 400ms,l,34.566224781157985,39.262994852985706,43.04077956608392,24.532178533587384,24.532178533587384,39.262994852985706,34.566224781157985,43.04077956608392,-10,-0.33,0.33,10,38,28,37.67,38.33,48,3.1622776601683795,3.1622776601683795,3.1622776601683795,3.1622776601683795
5,16,,,0.0,Limited Time - 400ms,l,42.52706530592162,29.325053033413447,52.76724069802954,29.50595193851659,29.50595193851659,29.325053033413447,42.52706530592162,52.76724069802954,-10,-0.33,0.33,10,38,28,37.67,38.33,48,3.1622776601683795,3.1622776601683795,3.1622776601683795,3.1622776601683795
5,17,0.17577080003684387,w,39.2,Limited Time - 400ms,l,37.050588979977526,39.16893172967011,45.46775474162316,30.39331319962058,30.39331319962058,39.16893172967011,37.050588979977526,45.46775474162316,-10,-0.33,0.33,10,38,28,37.67,38.33,48,3.1622776601683795,3.1622776601683795,3.1622776601683795,3.1622776601683795
5,18,0.007142700022086501,p,29.3,Limited Time - 400ms,l,38.37212805814863,42.96343970859738,50.73001979482792,29.311291128264827,29.311291128264827,42.96343970859738,38.37212805814863,50.73001979482792,-10,-0.33,0.33,10,38,28,37.67,38.33,48,3.1622776601683795,3.1622776601683795,3.1622776601683795,3.1622776601683795
5,19,0.0009529999806545675,q,40.8,Limited Time - 400ms,l,40.81325237899797,38.17728696022125,52.41662710790145,26.114419994476904,26.114419994476904,38.17728696022125,40.81325237899797,52.41662710790145,-10,-0.33,0.33,10,38,28,37.67,38.33,48,3.1622776601683795,3.1622776601683795,3.1622776601683795,3.1622776601683795
5,20,0.026202899985946715,o,48.7,Limited Time - 400ms,l,40.38757891771013,37.35647052206179,48.695154743975344,30.255961063880697,30.255961063880697,37.35647052206179,40.38757891771013,48.695154743975344,-10,-0.33,0.33,10,38,28,37.67,38.33,48,3.1622776601683795,3.1622776601683795,3.1622776601683795,3.1622776601683795
6,1,0.32319669995922595,w,30.1,Limited Time - 800ms,e,39.884693030444375,30.13050741477567,45.64816484984379,27.923106160659575,30.13050741477567,27.923106160659575,39.884693030444375,45.64816484984379,0,0,0,0,38,38,38,38,38,3.1622776601683795,6.324555320336759,8.366600265340756,10
6,2,0.580401300045196,o,44.4,Limited Time - 800ms,e,39.821723554911166,34.17541405940899,44.417358181072686,33.479096008775805,34.17541405940899,33.479096008775805,39.821723554911166,44.417358181072686,0,0,0,0,38,38,38,38,38,3.1622776601683795,6.324555320336759,8.366600265340756,10
6,3,0.379471399995964,q,21.4,Limited Time - 800ms,e,21.43417969686317,34.33972976015008,47.546785363548615,37.538957532194225,34.33972976015008,37.538957532194225,21.43417969686317,47.546785363548615,0,0,0,0,38,38,38,38,38,3.1622776601683795,6.324555320336759,8.366600265340756,10
6,4,0.2279032000224106,o,9.4,Limited Time - 800ms,e,42.13111900410388,37.68170531052134,9.388241959519938,41.69607631571172,37.68170531052134,41.69607631571172,42.13111900410388,9.388241959519938,0,0,0,0,38,38,38,38,38,3.1622776601683795,6.324555320336759,8.366600265340756,10
6,5,0.16066250001313165,p,33.9,Limited Time - 800ms,e,39.91158941859581,39.75867386117138,49.873812245500304,33.920323422982534,39.75867386117138,33.920323422982534,39.91158941859581,49.873812245500304,0,0,0,0,38,38,38,38,38,3.1622776601683795,6.324555320336759,8.366600265340756,10
6,6,0.05433469999115914,o,40.6,Limited Time - 800ms,e,48.51150306889987,38.385770134829826,40.596957949729855,32.85921134698815,38.385770134829826,32.85921134698815,48.51150306889987,40.596957949729855,0,0,0,0,38,38,38,38,38,3.1622776601683795,6.324555320336759,8.366600265340756,10
6,7,0.24372079997556284,q,45.1,Limited Time - 800ms,e,45.1316914895247,33.36915891942343,36.21413566150191,34.603847069207816,33.36915891942343,34.603847069207816,45.1316914895247,36.21413566150191,0,0,0,0,38,38,38,38,38,3.1622776601683795,6.324555320336759,8.366600265340756,10
6,8,0.28706960001727566,p,33.6,Limited Time - 800ms,e,36.91604868435023,40.539710207355576,24.907993321960817,33.592778734886494,40.539710207355576,33.592778734886494,36.91604868435023,24.907993321960817,0,0,0,0,38,38,38,38,38,3.1622776601683795,6.324555320336759,8.366600265340756,10
6,9,0.23959980002837256,w,36.2,Limited Time - 800ms,e,30.16575130064293,36.17078307647551,31.25448279037615,26.640794114462807,36.17078307647551,26.640794114462807,30.16575130064293,31.25448279037615,0,0,0,0,38,38,38,38,38,3.1622776601683795,6.324555320336759,8.366600265340756,10
6,10,0.24295869999332353,o,34.7,Limited Time - 800ms,e,51.04960074011567,34.008956426624025,34.68147733327699,34.18354298514797,34.008956426624025,34.18354298514797,51.04960074011567,34.68147733327699,0,0,0,0,38,38,38,38,38,3.1622776601683795,6.324555320336759,8.366600265340756,10
6,11,0.01176979998126626,p,28.6,Limited Time - 800ms,e,32.087307560820406,35.004677175809206,42.98852969472547,28.62996721863307,35.004677175809206,28.62996721863307,32.087307560820406,42.98852969472547,0,0,0,0,38,38,38,38,38,3.1622776601683795,6.324555320336759,8.366600265340756,10
6,12,0.09253729996271431,q,21.5,Limited Time - 800ms,e,21.54409877383162,30.820014410026538,43.59794097342807,47.2050588014026,30.820014410026538,47.2050588014026,21.54409877383162,43.59794097342807,0,0,0,0,38,38,38,38,38,3.1622776601683795,6.324555320336759,8.366600265340756,10
6,13,0.1962813999853097,p,36.2,Limited Time - 800ms,e,37.15941059832603,42.89715259664224,44.32161787115335,36.17129201609857,42.89715259664224,36.17129201609857,37.15941059832603,44.32161787115335,0,0,0,0,38,38,38,38,38,3.1622776601683795,6.324555320336759,8.366600265340756,10
6,14,0.22220869996817783,o,41.8,Limited Time - 800ms,e,42.06728712234894,44.4369700837865,41.84120263955521,33.84975520285355,44.4369700837865,33.84975520285355,42.06728712234894,41.84120263955521,0,0,0,0,38,38,38,38,38,3.1622776601683795,6.324555320336759,8.366600265340756,10
6,15,0.10974570002872497,q,41.2,Limited Time - 800ms,e,41.210095864244195,35.580116370123555,31.61639312895938,41.7775456072419,35.580116370123555,41.7775456072419,41.210095864244195,31.61639312895938,0,0,0,0,38,38,38,38,38,3.1622776601683795,6.324555320336759,8.366600265340756,10
6,16,0.3128100999747403,w,42.5,Limited Time - 800ms,e,41.638567096846764,42.49159813931394,58.20357766391553,34.5713336990366,42.49159813931394,34.5713336990366,41.638567096846764,58.20357766391553,0,0,0,0,38,38,38,38,38,3.1622776601683795,6.324555320336759,8.366600265340756,10
6,17,0.3725576000288129,p,39.2,Limited Time - 800ms,e,42.636414821071526,43.003384584406376,27.49061324146795,39.23480660222661,43.003384584406376,39.23480660222661,42.636414821071526,27.49061324146795,0,0,0,0,38,38,38,38,38,3.1622776601683795,6.324555320336759,8.366600265340756,10
6,18,0.4668587000342086,o,40.8,Limited Time - 800ms,e,42.36715676163213,37.542030773752096,40.752791624906955,36.6321799467732,37.542030773752096,36.6321799467732,42.36715676163213,40.752791624906955,0,0,0,0,38,38,38,38,38,3.1622776601683795,6.324555320336759,8.366600265340756,10
6,19,0.12307790003251284,w,33.3,Limited Time - 800ms,e,36.19508520417927,33.27610969824529,31.41104051054304,28.870649543612277,33.27610969824529,28.870649543612277,36.19508520417927,31.41104051054304,0,0,0,0,38,38,38,38,38,3.1622776601683795,6.324555320336759,8.366600265340756,10
6,20,0.36457690002862364,q,52.7,Limited Time - 800ms,e,52.741334902814025,37.08547073224754,48.738821435049005,43.114903349103784,37.08547073224754,43.114903349103784,52.741334902814025,48.738821435049005,0,0,0,0,38,38,38,38,38,3.1622776601683795,6.324555320336759,8.366600265340756,10
7,1,0.3729091999703087,w,27.9,Unlimited Time,e,30.13050741477567,27.923106160659575,45.64816484984379,39.884693030444375,30.13050741477567,27.923106160659575,39.884693030444375,45.64816484984379,0,0,0,0,38,38,38,38,38,3.1622776601683795,6.324555320336759,8.366600265340756,10
7,2,0.25150359998224303,o,44.4,Unlimited Time,e,34.17541405940899,33.479096008775805,44.417358181072686,39.821723554911166,34.17541405940899,33.479096008775805,39.821723554911166,44.417358181072686,0,0,0,0,38,38,38,38,38,3.1622776601683795,6.324555320336759,8.366600265340756,10
7,3,0.22321620001457632,p,21.4,Unlimited Time,e,34.33972976015008,37.538957532194225,47.546785363548615,21.43417969686317,34.33972976015008,37.538957532194225,21.43417969686317,47.546785363548615,0,0,0,0,38,38,38,38,38,3.1622776601683795,6.324555320336759,8.366600265340756,10
7,4,0.14950379997026175,q,37.7,Unlimited Time,e,37.68170531052134,41.69607631571172,9.388241959519938,42.13111900410388,37.68170531052134,41.69607631571172,42.13111900410388,9.388241959519938,0,0,0,0,38,38,38,38,38,3.1622776601683795,6.324555320336759,8.366600265340756,10
7,5,0.23053890001028776,o,49.9,Unlimited Time,e,39.75867386117138,33.920323422982534,49.873812245500304,39.91158941859581,39.75867386117138,33.920323422982534,39.91158941859581,49.873812245500304,0,0,0,0,38,38,38,38,38,3.1622776601683795,6.324555320336759,8.366600265340756,10
7,6,0.39614219998475164,o,40.6,Unlimited Time,e,38.385770134829826,32.85921134698815,40.596957949729855,48.51150306889987,38.385770134829826,32.85921134698815,48.51150306889987,40.596957949729855,0,0,0,0,38,38,38,38,38,3.1622776601683795,6.324555320336759,8.366600265340756,10
7,7,0.236349800019525,o,36.2,Unlimited Time,e,33.36915891942343,34.603847069207816,36.21413566150191,45.1316914895247,33.36915891942343,34.603847069207816,45.1316914895247,36.21413566150191,0,0,0,0,38,38,38,38,38,3.1622776601683795,6.324555320336759,8.366600265340756,10
7,8,0.21444569999584928,q,40.5,Unlimited Time,e,40.539710207355576,33.592778734886494,24.907993321960817,36.91604868435023,40.539710207355576,33.592778734886494,36.91604868435023,24.907993321960817,0,0,0,0,38,38,38,38,38,3.1622776601683795,6.324555320336759,8.366600265340756,10
7,9,0.11694279999937862,p,30.2,Unlimited Time,e,36.17078307647551,26.640794114462807,31.25448279037615,30.16575130064293,36.17078307647551,26.640794114462807,30.16575130064293,31.25448279037615,0,0,0,0,38,38,38,38,38,3.1622776601683795,6.324555320336759,8.366600265340756,10
7,10,0.08985359995858744,w,34.2,Unlimited Time,e,34.008956426624025,34.18354298514797,34.68147733327699,51.04960074011567,34.008956426624025,34.18354298514797,51.04960074011567,34.68147733327699,0,0,0,0,38,38,38,38,38,3.1622776601683795,6.324555320336759,8.366600265340756,10
7,11,0.6567850999999791,o,43.0,Unlimited Time,e,35.004677175809206,28.62996721863307,42.98852969472547,32.087307560820406,35.004677175809206,28.62996721863307,32.087307560820406,42.98852969472547,0,0,0,0,38,38,38,38,38,3.1622776601683795,6.324555320336759,8.366600265340756,10
7,12,0.04817170003661886,q,30.8,Unlimited Time,e,30.820014410026538,47.2050588014026,43.59794097342807,21.54409877383162,30.820014410026538,47.2050588014026,21.54409877383162,43.59794097342807,0,0,0,0,38,38,38,38,38,3.1622776601683795,6.324555320336759,8.366600265340756,10
7,13,0.002373300027102232,p,37.2,Unlimited Time,e,42.89715259664224,36.17129201609857,44.32161787115335,37.15941059832603,42.89715259664224,36.17129201609857,37.15941059832603,44.32161787115335,0,0,0,0,38,38,38,38,38,3.1622776601683795,6.324555320336759,8.366600265340756,10
7,14,0.05254780000541359,w,33.8,Unlimited Time,e,44.4369700837865,33.84975520285355,41.84120263955521,42.06728712234894,44.4369700837865,33.84975520285355,42.06728712234894,41.84120263955521,0,0,0,0,38,38,38,38,38,3.1622776601683795,6.324555320336759,8.366600265340756,10
7,15,0.5116563999908976,o,31.6,Unlimited Time,e,35.580116370123555,41.7775456072419,31.61639312895938,41.210095864244195,35.580116370123555,41.7775456072419,41.210095864244195,31.61639312895938,0,0,0,0,38,38,38,38,38,3.1622776601683795,6.324555320336759,8.366600265340756,10
7,16,0.19873220002045855,o,58.2,Unlimited Time,e,42.49159813931394,34.5713336990366,58.20357766391553,41.638567096846764,42.49159813931394,34.5713336990366,41.638567096846764,58.20357766391553,0,0,0,0,38,38,38,38,38,3.1622776601683795,6.324555320336759,8.366600265340756,10
7,17,0.5245449999929406,p,42.6,Unlimited Time,e,43.003384584406376,39.23480660222661,27.49061324146795,42.636414821071526,43.003384584406376,39.23480660222661,42.636414821071526,27.49061324146795,0,0,0,0,38,38,38,38,38,3.1622776601683795,6.324555320336759,8.366600265340756,10
7,18,0.34915969998110086,o,40.8,Unlimited Time,e,37.542030773752096,36.6321799467732,40.752791624906955,42.36715676163213,37.542030773752096,36.6321799467732,42.36715676163213,40.752791624906955,0,0,0,0,38,38,38,38,38,3.1622776601683795,6.324555320336759,8.366600265340756,10
7,19,0.3952648999984376,o,31.4,Unlimited Time,e,33.27610969824529,28.870649543612277,31.41104051054304,36.19508520417927,33.27610969824529,28.870649543612277,36.19508520417927,31.41104051054304,0,0,0,0,38,38,38,38,38,3.1622776601683795,6.324555320336759,8.366600265340756,10
7,20,0.3818767999764532,o,48.7,Unlimited Time,e,37.08547073224754,43.114903349103784,48.738821435049005,52.741334902814025,37.08547073224754,43.114903349103784,52.741334902814025,48.738821435049005,0,0,0,0,38,38,38,38,38,3.1622776601683795,6.324555320336759,8.366600265340756,10
8,1,,,0.0,Limited Time - 400ms,h,31.05842948759061,27.57504504025058,58.745790849111465,40.94927139222096,31.05842948759061,58.745790849111465,40.94927139222096,27.57504504025058,-10,-0.33,0.33,10,38,28,37.67,38.33,48,10,10,10,10
8,2,0.21656129998154938,p,57.7,Limited Time - 400ms,h,34.87537104213353,56.27990721487026,45.53581740625034,57.72465479614809,34.87537104213353,45.53581740625034,57.72465479614809,56.27990721487026,-10,-0.33,0.33,10,38,28,37.67,38.33,48,10,10,10,10
8,3,0.29906340001616627,q,28.7,Limited Time - 400ms,h,28.73449205649013,47.351485935657536,16.47061007798617,33.327424891218115,28.73449205649013,16.47061007798617,33.327424891218115,47.351485935657536,-10,-0.33,0.33,10,38,28,37.67,38.33,48,10,10,10,10
8,4,0.3018355999956839,p,39.1,Limited Time - 400ms,h,41.77866714077825,48.13854118136944,38.36720633533029,39.104736204892625,41.77866714077825,38.36720633533029,39.104736204892625,48.13854118136944,-10,-0.33,0.33,10,38,28,37.67,38.33,48,10,10,10,10
8,5,0.33233239996479824,o,58.7,Limited Time - 400ms,h,18.25945686884362,62.60937942473836,58.74260122216102,56.11993532591515,18.25945686884362,58.74260122216102,56.11993532591515,62.60937942473836,-10,-0.33,0.33,10,38,28,37.67,38.33,48,10,10,10,10
8,6,,,0.0,Limited Time - 400ms,h,32.90300978083355,54.578772805956554,49.66677540232753,40.093067907001,32.90300978083355,49.66677540232753,40.093067907001,54.578772805956554,-10,-0.33,0.33,10,38,28,37.67,38.33,48,10,10,10,10
8,7,,,0.0,Limited Time - 400ms,h,13.739335286696159,63.522125404636924,25.480464419906706,36.65489474398156,13.739335286696159,25.480464419906706,36.65489474398156,63.522125404636924,-10,-0.33,0.33,10,38,28,37.67,38.33,48,10,10,10,10
8,8,0.1110253999941051,o,31.8,Limited Time - 400ms,h,40.898548356984385,45.197364002237094,31.804025131582236,28.530301077973544,40.898548356984385,31.804025131582236,28.530301077973544,45.197364002237094,-10,-0.33,0.33,10,38,28,37.67,38.33,48,10,10,10,10
8,9,0.03531740000471473,w,48.5,Limited Time - 400ms,h,22.30684597189724,48.499151171070295,49.62165779476122,36.53895341521028,22.30684597189724,49.62165779476122,36.53895341521028,48.499151171070295,-10,-0.33,0.33,10,38,28,37.67,38.33,48,10,10,10,10
8,10,0.11222820001421496,p,43.7,Limited Time - 400ms,h,34.41312969033244,50.12945783703966,28.845285314842812,43.671358867830094,34.41312969033244,28.845285314842812,43.671358867830094,50.12945783703966,-10,-0.33,0.33,10,38,28,37.67,38.33,48,10,10,10,10
8,11,0.3106858999817632,p,49.6,Limited Time - 400ms,h,11.814613224634648,62.89000870192931,30.464909875010303,49.56770504786291,11.814613224634648,30.464909875010303,49.56770504786291,62.89000870192931,-10,-0.33,0.33,10,38,28,37.67,38.33,48,10,10,10,10
8,12,0.0663728000363335,w,51.7,Limited Time - 400ms,h,18.04845783292602,51.6631945967665,35.800035787538754,32.30649793014335,18.04845783292602,35.800035787538754,32.30649793014335,51.6631945967665,-10,-0.33,0.33,10,38,28,37.67,38.33,48,10,10,10,10
8,13,0.03136529994662851,p,19.4,Limited Time - 400ms,h,19.07348800800313,47.57108991408186,28.042055494120312,19.42711006119635,19.07348800800313,28.042055494120312,19.42711006119635,47.57108991408186,-10,-0.33,0.33,10,38,28,37.67,38.33,48,10,10,10,10
8,14,0.2742667999700643,p,56.6,Limited Time - 400ms,h,22.942105225889716,49.25650226868283,26.995477868223652,56.576195863329545,22.942105225889716,26.995477868223652,56.576195863329545,49.25650226868283,-10,-0.33,0.33,10,38,28,37.67,38.33,48,10,10,10,10
8,15,0.23536109999986365,p,56.7,Limited Time - 400ms,h,42.26204124630065,57.10032322043499,22.980234871053113,56.70174968663364,42.26204124630065,22.980234871053113,56.70174968663364,57.10032322043499,-10,-0.33,0.33,10,38,28,37.67,38.33,48,10,10,10,10
8,16,0.2478162000188604,p,28.5,Limited Time - 400ms,h,22.381867442757567,43.99020453368318,40.138173868457436,28.47913710879062,22.381867442757567,40.138173868457436,28.47913710879062,43.99020453368318,-10,-0.33,0.33,10,38,28,37.67,38.33,48,10,10,10,10
8,17,0.05852319998666644,w,48.0,Limited Time - 400ms,h,43.11836896140472,48.04680033007744,40.53825970764073,33.264353807784914,43.11836896140472,40.53825970764073,33.264353807784914,48.04680033007744,-10,-0.33,0.33,10,38,28,37.67,38.33,48,10,10,10,10
8,18,0.0806639000074938,p,43.2,Limited Time - 400ms,h,14.068734747868348,45.99096397254078,27.683020592782853,43.23939811591352,14.068734747868348,27.683020592782853,43.23939811591352,45.99096397254078,-10,-0.33,0.33,10,38,28,37.67,38.33,48,10,10,10,10
8,19,,,0.0,Limited Time - 400ms,h,24.833278415819553,50.69314913203996,52.37249833151995,39.300257865615286,24.833278415819553,52.37249833151995,39.300257865615286,50.69314913203996,-10,-0.33,0.33,10,38,28,37.67,38.33,48,10,10,10,10
8,20,,,0.0,Limited Time - 400ms,h,20.751177614051272,42.44910305648743,33.2269314233568,45.96033230216,20.751177614051272,33.2269314233568,45.96033230216,42.44910305648743,-10,-0.33,0.33,10,38,28,37.67,38.33,48,10,10,10,10
9,1,0.4635960999876261,o,39.9,Limited Time - 800ms,e,45.64816484984379,27.923106160659575,39.884693030444375,30.13050741477567,30.13050741477567,27.923106160659575,39.884693030444375,45.64816484984379,0,0,0,0,38,38,38,38,38,3.1622776601683795,6.324555320336759,8.366600265340756,10
9,2,0.06943640002282336,w,33.5,Limited Time - 800ms,e,44.417358181072686,33.479096008775805,39.821723554911166,34.17541405940899,34.17541405940899,33.479096008775805,39.821723554911166,44.417358181072686,0,0,0,0,38,38,38,38,38,3.1622776601683795,6.324555320336759,8.366600265340756,10
9,3,0.2203816000255756,p,34.3,Limited Time - 800ms,e,47.546785363548615,37.538957532194225,21.43417969686317,34.33972976015008,34.33972976015008,37.538957532194225,21.43417969686317,47.546785363548615,0,0,0,0,38,38,38,38,38,3.1622776601683795,6.324555320336759,8.366600265340756,10
9,4,0.08224929997231811,q,9.4,Limited Time - 800ms,e,9.388241959519938,41.69607631571172,42.13111900410388,37.68170531052134,37.68170531052134,41.69607631571172,42.13111900410388,9.388241959519938,0,0,0,0,38,38,38,38,38,3.1622776601683795,6.324555320336759,8.366600265340756,10
9,5,0.1246390999876894,o,39.9,Limited Time - 800ms,e,49.873812245500304,33.920323422982534,39.91158941859581,39.75867386117138,39.75867386117138,33.920323422982534,39.91158941859581,49.873812245500304,0,0,0,0,38,38,38,38,38,3.1622776601683795,6.324555320336759,8.366600265340756,10
9,6,0.6968401999911293,w,32.9,Limited Time - 800ms,e,40.596957949729855,32.85921134698815,48.51150306889987,38.385770134829826,38.385770134829826,32.85921134698815,48.51150306889987,40.596957949729855,0,0,0,0,38,38,38,38,38,3.1622776601683795,6.324555320336759,8.366600265340756,10
9,7,0.27067759999772534,w,34.6,Limited Time - 800ms,e,36.21413566150191,34.603847069207816,45.1316914895247,33.36915891942343,33.36915891942343,34.603847069207816,45.1316914895247,36.21413566150191,0,0,0,0,38,38,38,38,38,3.1622776601683795,6.324555320336759,8.366600265340756,10
9,8,0.7180623999447562,w,33.6,Limited Time - 800ms,e,24.907993321960817,33.592778734886494,36.91604868435023,40.539710207355576,40.539710207355576,33.592778734886494,36.91604868435023,24.907993321960817,0,0,0,0,38,38,38,38,38,3.1622776601683795,6.324555320336759,8.366600265340756,10
9,9,0.01722959999460727,p,36.2,Limited Time - 800ms,e,31.25448279037615,26.640794114462807,30.16575130064293,36.17078307647551,36.17078307647551,26.640794114462807,30.16575130064293,31.25448279037615,0,0,0,0,38,38,38,38,38,3.1622776601683795,6.324555320336759,8.366600265340756,10
9,10,0.39141009998274967,o,51.0,Limited Time - 800ms,e,34.68147733327699,34.18354298514797,51.04960074011567,34.008956426624025,34.008956426624025,34.18354298514797,51.04960074011567,34.68147733327699,0,0,0,0,38,38,38,38,38,3.1622776601683795,6.324555320336759,8.366600265340756,10
9,11,0.12784049997571856,w,28.6,Limited Time - 800ms,e,42.98852969472547,28.62996721863307,32.087307560820406,35.004677175809206,35.004677175809206,28.62996721863307,32.087307560820406,42.98852969472547,0,0,0,0,38,38,38,38,38,3.1622776601683795,6.324555320336759,8.366600265340756,10
9,12,0.44805549999000505,o,21.5,Limited Time - 800ms,e,43.59794097342807,47.2050588014026,21.54409877383162,30.820014410026538,30.820014410026538,47.2050588014026,21.54409877383162,43.59794097342807,0,0,0,0,38,38,38,38,38,3.1622776601683795,6.324555320336759,8.366600265340756,10
9,13,0.05915639997692779,o,37.2,Limited Time - 800ms,e,44.32161787115335,36.17129201609857,37.15941059832603,42.89715259664224,42.89715259664224,36.17129201609857,37.15941059832603,44.32161787115335,0,0,0,0,38,38,38,38,38,3.1622776601683795,6.324555320336759,8.366600265340756,10
9,14,0.1165243000141345,o,42.1,Limited Time - 800ms,e,41.84120263955521,33.84975520285355,42.06728712234894,44.4369700837865,44.4369700837865,33.84975520285355,42.06728712234894,41.84120263955521,0,0,0,0,38,38,38,38,38,3.1622776601683795,6.324555320336759,8.366600265340756,10
9,15,0.729342499980703,p,35.6,Limited Time - 800ms,e,31.61639312895938,41.7775456072419,41.210095864244195,35.580116370123555,35.580116370123555,41.7775456072419,41.210095864244195,31.61639312895938,0,0,0,0,38,38,38,38,38,3.1622776601683795,6.324555320336759,8.366600265340756,10
9,16,0.10568439995404333,w,34.6,Limited Time - 800ms,e,58.20357766391553,34.5713336990366,41.638567096846764,42.49159813931394,42.49159813931394,34.5713336990366,41.638567096846764,58.20357766391553,0,0,0,0,38,38,38,38,38,3.1622776601683795,6.324555320336759,8.366600265340756,10
9,17,0.1277997000142932,o,42.6,Limited Time - 800ms,e,27.49061324146795,39.23480660222661,42.636414821071526,43.003384584406376,43.003384584406376,39.23480660222661,42.636414821071526,27.49061324146795,0,0,0,0,38,38,38,38,38,3.1622776601683795,6.324555320336759,8.366600265340756,10
9,18,0.008555600012186915,o,42.4,Limited Time - 800ms,e,40.752791624906955,36.6321799467732,42.36715676163213,37.542030773752096,37.542030773752096,36.6321799467732,42.36715676163213,40.752791624906955,0,0,0,0,38,38,38,38,38,3.1622776601683795,6.324555320336759,8.366600265340756,10
9,19,0.4608944000210613,p,33.3,Limited Time - 800ms,e,31.41104051054304,28.870649543612277,36.19508520417927,33.27610969824529,33.27610969824529,28.870649543612277,36.19508520417927,31.41104051054304,0,0,0,0,38,38,38,38,38,3.1622776601683795,6.324555320336759,8.366600265340756,10
9,20,0.5931425999733619,w,43.1,Limited Time - 800ms,e,48.738821435049005,43.114903349103784,52.741334902814025,37.08547073224754,37.08547073224754,43.114903349103784,52.741334902814025,48.738821435049005,0,0,0,0,38,38,38,38,38,3.1622776601683795,6.324555320336759,8.366600265340756,10
10,1,0.4560260000289418,w,40.9,Unlimited Time,h,31.05842948759061,40.94927139222096,58.745790849111465,27.57504504025058,31.05842948759061,58.745790849111465,40.94927139222096,27.57504504025058,-10,-0.33,0.33,10,38,28,37.67,38.33,48,10,10,10,10
10,2,0.39948520000325516,o,45.5,Unlimited Time,h,34.87537104213353,57.72465479614809,45.53581740625034,56.27990721487026,34.87537104213353,45.53581740625034,57.72465479614809,56.27990721487026,-10,-0.33,0.33,10,38,28,37.67,38.33,48,10,10,10,10
10,3,0.36491449997993186,p,47.4,Unlimited Time,h,28.73449205649013,33.327424891218115,16.47061007798617,47.351485935657536,28.73449205649013,16.47061007798617,33.327424891218115,47.351485935657536,-10,-0.33,0.33,10,38,28,37.67,38.33,48,10,10,10,10
10,4,0.3494840000057593,q,41.8,Unlimited Time,h,41.77866714077825,39.104736204892625,38.36720633533029,48.13854118136944,41.77866714077825,38.36720633533029,39.104736204892625,48.13854118136944,-10,-0.33,0.33,10,38,28,37.67,38.33,48,10,10,10,10
10,5,0.2436775999958627,o,58.7,Unlimited Time,h,18.25945686884362,56.11993532591515,58.74260122216102,62.60937942473836,18.25945686884362,58.74260122216102,56.11993532591515,62.60937942473836,-10,-0.33,0.33,10,38,28,37.67,38.33,48,10,10,10,10
10,6,0.40642950002802536,p,54.6,Unlimited Time,h,32.90300978083355,40.093067907001,49.66677540232753,54.578772805956554,32.90300978083355,49.66677540232753,40.093067907001,54.578772805956554,-10,-0.33,0.33,10,38,28,37.67,38.33,48,10,10,10,10
10,7,0.3803563000401482,p,63.5,Unlimited Time,h,13.739335286696159,36.65489474398156,25.480464419906706,63.522125404636924,13.739335286696159,25.480464419906706,36.65489474398156,63.522125404636924,-10,-0.33,0.33,10,38,28,37.67,38.33,48,10,10,10,10
10,8,0.5159206999815069,o,31.8,Unlimited Time,h,40.898548356984385,28.530301077973544,31.804025131582236,45.197364002237094,40.898548356984385,31.804025131582236,28.530301077973544,45.197364002237094,-10,-0.33,0.33,10,38,28,37.67,38.33,48,10,10,10,10
10,9,0.29570400004740804,p,48.5,Unlimited Time,h,22.30684597189724,36.53895341521028,49.62165779476122,48.499151171070295,22.30684597189724,49.62165779476122,36.53895341521028,48.499151171070295,-10,-0.33,0.33,10,38,28,37.67,38.33,48,10,10,10,10
10,10,0.25013110000872985,p,50.1,Unlimited Time,h,34.41312969033244,43.671358867830094,28.845285314842812,50.12945783703966,34.41312969033244,28.845285314842812,43.671358867830094,50.12945783703966,-10,-0.33,0.33,10,38,28,37.67,38.33,48,10,10,10,10
10,11,0.42509450000943616,p,62.9,Unlimited Time,h,11.814613224634648,49.56770504786291,30.464909875010303,62.89000870192931,11.814613224634648,30.464909875010303,49.56770504786291,62.89000870192931,-10,-0.33,0.33,10,38,28,37.67,38.33,48,10,10,10,10
10,12,0.35304119996726513,p,51.7,Unlimited Time,h,18.04845783292602,32.30649793014335,35.800035787538754,51.6631945967665,18.04845783292602,35.800035787538754,32.30649793014335,51.6631945967665,-10,-0.33,0.33,10,38,28,37.67,38.33,48,10,10,10,10
10,13,0.2880322000128217,p,47.6,Unlimited Time,h,19.07348800800313,19.42711006119635,28.042055494120312,47.57108991408186,19.07348800800313,28.042055494120312,19.42711006119635,47.57108991408186,-10,-0.33,0.33,10,38,28,37.67,38.33,48,10,10,10,10
10,14,0.48397990001831204,p,49.3,Unlimited Time,h,22.942105225889716,56.576195863329545,26.995477868223652,49.25650226868283,22.942105225889716,26.995477868223652,56.576195863329545,49.25650226868283,-10,-0.33,0.33,10,38,28,37.67,38.33,48,10,10,10,10
10,15,0.37429080001311377,p,57.1,Unlimited Time,h,42.26204124630065,56.70174968663364,22.980234871053113,57.10032322043499,42.26204124630065,22.980234871053113,56.70174968663364,57.10032322043499,-10,-0.33,0.33,10,38,28,37.67,38.33,48,10,10,10,10
10,16,0.27375260001281276,p,44.0,Unlimited Time,h,22.381867442757567,28.47913710879062,40.138173868457436,43.99020453368318,22.381867442757567,40.138173868457436,28.47913710879062,43.99020453368318,-10,-0.33,0.33,10,38,28,37.67,38.33,48,10,10,10,10
10,17,0.29528429999481887,p,48.0,Unlimited Time,h,43.11836896140472,33.264353807784914,40.53825970764073,48.04680033007744,43.11836896140472,40.53825970764073,33.264353807784914,48.04680033007744,-10,-0.33,0.33,10,38,28,37.67,38.33,48,10,10,10,10
10,18,0.31999579997500405,p,46.0,Unlimited Time,h,14.068734747868348,43.23939811591352,27.683020592782853,45.99096397254078,14.068734747868348,27.683020592782853,43.23939811591352,45.99096397254078,-10,-0.33,0.33,10,38,28,37.67,38.33,48,10,10,10,10
10,19,0.2909001000225544,p,50.7,Unlimited Time,h,24.833278415819553,39.300257865615286,52.37249833151995,50.69314913203996,24.833278415819553,52.37249833151995,39.300257865615286,50.69314913203996,-10,-0.33,0.33,10,38,28,37.67,38.33,48,10,10,10,10
10,20,0.28315490001114085,o,33.2,Unlimited Time,h,20.751177614051272,45.96033230216,33.2269314233568,42.44910305648743,20.751177614051272,33.2269314233568,45.96033230216,42.44910305648743,-10,-0.33,0.33,10,38,28,37.67,38.33,48,10,10,10,10
11,1,0.2999773999908939,w,45.6,Limited Time - 400ms,e,30.13050741477567,45.64816484984379,27.923106160659575,39.884693030444375,30.13050741477567,27.923106160659575,39.884693030444375,45.64816484984379,0,0,0,0,38,38,38,38,38,3.1622776601683795,6.324555320336759,8.366600265340756,10
11,2,0.0662540000048466,o,33.5,Limited Time - 400ms,e,34.17541405940899,44.417358181072686,33.479096008775805,39.821723554911166,34.17541405940899,33.479096008775805,39.821723554911166,44.417358181072686,0,0,0,0,38,38,38,38,38,3.1622776601683795,6.324555320336759,8.366600265340756,10
11,3,,,0.0,Limited Time - 400ms,e,34.33972976015008,47.546785363548615,37.538957532194225,21.43417969686317,34.33972976015008,37.538957532194225,21.43417969686317,47.546785363548615,0,0,0,0,38,38,38,38,38,3.1622776601683795,6.324555320336759,8.366600265340756,10
11,4,,,0.0,Limited Time - 400ms,e,37.68170531052134,9.388241959519938,41.69607631571172,42.13111900410388,37.68170531052134,41.69607631571172,42.13111900410388,9.388241959519938,0,0,0,0,38,38,38,38,38,3.1622776601683795,6.324555320336759,8.366600265340756,10
11,5,0.184634700010065,o,33.9,Limited Time - 400ms,e,39.75867386117138,49.873812245500304,33.920323422982534,39.91158941859581,39.75867386117138,33.920323422982534,39.91158941859581,49.873812245500304,0,0,0,0,38,38,38,38,38,3.1622776601683795,6.324555320336759,8.366600265340756,10
11,6,,,0.0,Limited Time - 400ms,e,38.385770134829826,40.596957949729855,32.85921134698815,48.51150306889987,38.385770134829826,32.85921134698815,48.51150306889987,40.596957949729855,0,0,0,0,38,38,38,38,38,3.1622776601683795,6.324555320336759,8.366600265340756,10
11,7,0.20664170000236481,o,34.6,Limited Time - 400ms,e,33.36915891942343,36.21413566150191,34.603847069207816,45.1316914895247,33.36915891942343,34.603847069207816,45.1316914895247,36.21413566150191,0,0,0,0,38,38,38,38,38,3.1622776601683795,6.324555320336759,8.366600265340756,10
11,8,,,0.0,Limited Time - 400ms,e,40.539710207355576,24.907993321960817,33.592778734886494,36.91604868435023,40.539710207355576,33.592778734886494,36.91604868435023,24.907993321960817,0,0,0,0,38,38,38,38,38,3.1622776601683795,6.324555320336759,8.366600265340756,10
11,9,,,0.0,Limited Time - 400ms,e,36.17078307647551,31.25448279037615,26.640794114462807,30.16575130064293,36.17078307647551,26.640794114462807,30.16575130064293,31.25448279037615,0,0,0,0,38,38,38,38,38,3.1622776601683795,6.324555320336759,8.366600265340756,10
11,10,,,0.0,Limited Time - 400ms,e,34.008956426624025,34.68147733327699,34.18354298514797,51.04960074011567,34.008956426624025,34.18354298514797,51.04960074011567,34.68147733327699,0,0,0,0,38,38,38,38,38,3.1622776601683795,6.324555320336759,8.366600265340756,10
11,11,0.18765340000391006,w,43.0,Limited Time - 400ms,e,35.004677175809206,42.98852969472547,28.62996721863307,32.087307560820406,35.004677175809206,28.62996721863307,32.087307560820406,42.98852969472547,0,0,0,0,38,38,38,38,38,3.1622776601683795,6.324555320336759,8.366600265340756,10
11,12,0.16982889996143058,q,30.8,Limited Time - 400ms,e,30.820014410026538,43.59794097342807,47.2050588014026,21.54409877383162,30.820014410026538,47.2050588014026,21.54409877383162,43.59794097342807,0,0,0,0,38,38,38,38,38,3.1622776601683795,6.324555320336759,8.366600265340756,10
11,13,0.04257859999779612,q,42.9,Limited Time - 400ms,e,42.89715259664224,44.32161787115335,36.17129201609857,37.15941059832603,42.89715259664224,36.17129201609857,37.15941059832603,44.32161787115335,0,0,0,0,38,38,38,38,38,3.1622776601683795,6.324555320336759,8.366600265340756,10
11,14,,,0.0,Limited Time - 400ms,e,44.4369700837865,41.84120263955521,33.84975520285355,42.06728712234894,44.4369700837865,33.84975520285355,42.06728712234894,41.84120263955521,0,0,0,0,38,38,38,38,38,3.1622776601683795,6.324555320336759,8.366600265340756,10
11,15,0.003960500005632639,w,31.6,Limited Time - 400ms,e,35.580116370123555,31.61639312895938,41.7775456072419,41.210095864244195,35.580116370123555,41.7775456072419,41.210095864244195,31.61639312895938,0,0,0,0,38,38,38,38,38,3.1622776601683795,6.324555320336759,8.366600265340756,10
11,16,0.06128379999427125,w,58.2,Limited Time - 400ms,e,42.49159813931394,58.20357766391553,34.5713336990366,41.638567096846764,42.49159813931394,34.5713336990366,41.638567096846764,58.20357766391553,0,0,0,0,38,38,38,38,38,3.1622776601683795,6.324555320336759,8.366600265340756,10
11,17,,,0.0,Limited Time - 400ms,e,43.003384584406376,27.49061324146795,39.23480660222661,42.636414821071526,43.003384584406376,39.23480660222661,42.636414821071526,27.49061324146795,0,0,0,0,38,38,38,38,38,3.1622776601683795,6.324555320336759,8.366600265340756,10
11,18,0.14770860003773123,w,40.8,Limited Time - 400ms,e,37.542030773752096,40.752791624906955,36.6321799467732,42.36715676163213,37.542030773752096,36.6321799467732,42.36715676163213,40.752791624906955,0,0,0,0,38,38,38,38,38,3.1622776601683795,6.324555320336759,8.366600265340756,10
11,19,,,0.0,Limited Time - 400ms,e,33.27610969824529,31.41104051054304,28.870649543612277,36.19508520417927,33.27610969824529,28.870649543612277,36.19508520417927,31.41104051054304,0,0,0,0,38,38,38,38,38,3.1622776601683795,6.324555320336759,8.366600265340756,10
11,20,0.33752719999756664,w,48.7,Limited Time - 400ms,e,37.08547073224754,48.738821435049005,43.114903349103784,52.741334902814025,37.08547073224754,43.114903349103784,52.741334902814025,48.738821435049005,0,0,0,0,38,38,38,38,38,3.1622776601683795,6.324555320336759,8.366600265340756,10
12,1,0.5177144999615848,w,29.3,Limited Time - 800ms,i,43.59310203493124,29.3373968315882,47.57132009487501,12.235434769230512,29.3373968315882,12.235434769230512,47.57132009487501,43.59310203493124,-10,-10,10,10,38,28,28,48,48,3.1622776601683795,10,3.1622776601683795,10
12,2,0.40043239993974566,o,50.0,Limited Time - 800ms,i,58.825056166667245,26.71671509140925,50.04677370090349,39.83685909489663,26.71671509140925,39.83685909489663,50.04677370090349,58.825056166667245,-10,-10,10,10,38,28,28,48,48,3.1622776601683795,10,3.1622776601683795,10
12,3,0.44447659997968003,w,28.8,Limited Time - 800ms,i,40.53586724403469,28.819870484308442,51.80945864475601,30.949701194287265,28.819870484308442,30.949701194287265,51.80945864475601,40.53586724403469,-10,-10,10,10,38,28,28,48,48,3.1622776601683795,10,3.1622776601683795,10
12,4,0.09685650002211332,o,44.6,Limited Time - 800ms,i,26.03592794729019,26.882325123227094,44.60443803434937,41.66791424783835,26.882325123227094,41.66791424783835,44.60443803434937,26.03592794729019,-10,-10,10,10,38,28,28,48,48,3.1622776601683795,10,3.1622776601683795,10
12,5,0.2614410999813117,o,49.7,Limited Time - 800ms,i,32.83648181186026,33.00888393850412,49.73388008802045,10.847918722304907,33.00888393850412,10.847918722304907,49.73388008802045,32.83648181186026,-10,-10,10,10,38,28,28,48,48,3.1622776601683795,10,3.1622776601683795,10
12,6,0.2819036000291817,o,49.9,Limited Time - 800ms,i,44.75909766339943,27.511915763952302,49.876575985433746,53.182504162232355,27.511915763952302,53.182504162232355,49.876575985433746,44.75909766339943,-10,-10,10,10,38,28,28,48,48,3.1622776601683795,10,3.1622776601683795,10
12,7,0.3171662999666296,o,47.2,Limited Time - 800ms,i,52.62698531458362,29.666427502212485,47.16908908144646,34.201689868238375,29.666427502212485,34.201689868238375,47.16908908144646,52.62698531458362,-10,-10,10,10,38,28,28,48,48,3.1622776601683795,10,3.1622776601683795,10
12,8,0.08565289998659864,o,50.7,Limited Time - 800ms,i,37.120119819362124,24.596710039699673,50.746964304614536,30.654139119224702,24.596710039699673,30.654139119224702,50.746964304614536,37.120119819362124,-10,-10,10,10,38,28,28,48,48,3.1622776601683795,10,3.1622776601683795,10
12,9,0.08613559999503195,o,47.7,Limited Time - 800ms,i,61.319074355145844,24.80079769198453,47.74541728439188,34.3305764847169,24.80079769198453,34.3305764847169,47.74541728439188,61.319074355145844,-10,-10,10,10,38,28,28,48,48,3.1622776601683795,10,3.1622776601683795,10
12,10,0.034922300023026764,o,53.1,Limited Time - 800ms,i,52.196151410245456,26.903368993396903,53.13132152877917,4.473951158851143,26.903368993396903,4.473951158851143,53.13132152877917,52.196151410245456,-10,-10,10,10,38,28,28,48,48,3.1622776601683795,10,3.1622776601683795,10
12,11,0.4887882000184618,o,49.2,Limited Time - 800ms,i,29.066636037485075,28.059846378056903,49.1829097024455,29.801312212938242,28.059846378056903,29.801312212938242,49.1829097024455,29.066636037485075,-10,-10,10,10,38,28,28,48,48,3.1622776601683795,10,3.1622776601683795,10
12,12,0.25395729998126626,o,48.3,Limited Time - 800ms,i,53.13855094274077,33.20416382772084,48.30439149888593,38.81222357884846,33.20416382772084,38.81222357884846,48.30439149888593,53.13855094274077,-10,-10,10,10,38,28,28,48,48,3.1622776601683795,10,3.1622776601683795,10
12,13,0.2546777999959886,o,46.3,Limited Time - 800ms,i,47.09613252250637,27.19704246109718,46.265770230799355,35.344795177039735,27.19704246109718,35.344795177039735,46.265770230799355,47.09613252250637,-10,-10,10,10,38,28,28,48,48,3.1622776601683795,10,3.1622776601683795,10
12,14,0.18691640003817156,o,53.0,Limited Time - 800ms,i,60.367362799012426,30.183307814114443,53.00569136649447,23.29573759160803,30.183307814114443,23.29573759160803,53.00569136649447,60.367362799012426,-10,-10,10,10,38,28,28,48,48,3.1622776601683795,10,3.1622776601683795,10
12,15,0.25835750001715496,o,44.1,Limited Time - 800ms,i,34.410731617672546,25.05926481991999,44.115371026809626,24.89711605745269,25.05926481991999,24.89711605745269,44.115371026809626,34.410731617672546,-10,-10,10,10,38,28,28,48,48,3.1622776601683795,10,3.1622776601683795,10
12,16,0.2886762000271119,o,43.2,Limited Time - 800ms,i,44.33729659410621,24.74113016296616,43.22636525564167,16.288632815795925,24.74113016296616,16.288632815795925,43.22636525564167,44.33729659410621,-10,-10,10,10,38,28,28,48,48,3.1622776601683795,10,3.1622776601683795,10
12,17,0.31856709998100996,o,48.0,Limited Time - 800ms,i,35.527434636341376,31.95127363845829,47.97853730195898,18.94622433946698,31.95127363845829,18.94622433946698,47.97853730195898,35.527434636341376,-10,-10,10,10,38,28,28,48,48,3.1622776601683795,10,3.1622776601683795,10
12,18,0.39794589998200536,w,29.0,Limited Time - 800ms,i,39.66045670919624,29.044802971243296,50.6507502504436,30.085250472300785,29.044802971243296,30.085250472300785,50.6507502504436,39.66045670919624,-10,-10,10,10,38,28,28,48,48,3.1622776601683795,10,3.1622776601683795,10
12,19,0.061467899999115616,q,43.7,Limited Time - 800ms,i,43.74364978007931,27.317456950188546,50.95284239531639,35.35867894053777,27.317456950188546,35.35867894053777,50.95284239531639,43.74364978007931,-10,-10,10,10,38,28,28,48,48,3.1622776601683795,10,3.1622776601683795,10
12,20,0.6768199999933131,p,41.1,Limited Time - 800ms,i,55.702874017485705,30.66253855977803,41.24370858370338,41.140070463645316,30.66253855977803,41.140070463645316,41.24370858370338,55.702874017485705,-10,-10,10,10,38,28,28,48,48,3.1622776601683795,10,3.1622776601683795,10
13,1,0.5406552000204101,o,32.5,Unlimited Time,l,37.156675519270365,31.135548093389364,32.48685503567944,48.83130953277062,31.135548093389364,37.156675519270365,32.48685503567944,48.83130953277062,-10,-0.33,0.33,10,38,28,37.67,38.33,48,3.1622776601683795,3.1622776601683795,3.1622776601683795,3.1622776601683795
13,2,0.2668185999500565,q,36.8,Unlimited Time,l,36.81933201786938,27.377367164062818,35.640427810840734,42.9343410004794,27.377367164062818,36.81933201786938,35.640427810840734,42.9343410004794,-10,-0.33,0.33,10,38,28,37.67,38.33,48,3.1622776601683795,3.1622776601683795,3.1622776601683795,3.1622776601683795
13,3,0.26541579997865483,w,26.5,Unlimited Time,l,39.73153301375933,26.46277769919944,39.13923138217929,51.167400742716076,26.46277769919944,39.73153301375933,39.13923138217929,51.167400742716076,-10,-0.33,0.33,10,38,28,37.67,38.33,48,3.1622776601683795,3.1622776601683795,3.1622776601683795,3.1622776601683795
13,4,0.26745099999243394,p,43.0,Unlimited Time,l,44.07528269715625,28.47784171556439,38.25547434903298,42.96878622321668,28.47784171556439,44.07528269715625,38.25547434903298,42.96878622321668,-10,-0.33,0.33,10,38,28,37.67,38.33,48,3.1622776601683795,3.1622776601683795,3.1622776601683795,3.1622776601683795
13,5,0.35087189998012036,p,49.4,Unlimited Time,l,38.013865262246185,25.591131797184723,37.33262109237775,49.36915589846536,25.591131797184723,38.013865262246185,37.33262109237775,49.36915589846536,-10,-0.33,0.33,10,38,28,37.67,38.33,48,3.1622776601683795,3.1622776601683795,3.1622776601683795,3.1622776601683795
13,6,0.3306523999781348,p,49.6,Unlimited Time,l,38.45902414169193,26.936067603247526,32.7291918989185,49.58087523910396,26.936067603247526,38.45902414169193,32.7291918989185,49.58087523910396,-10,-0.33,0.33,10,38,28,37.67,38.33,48,3.1622776601683795,3.1622776601683795,3.1622776601683795,3.1622776601683795
13,7,0.3141769000212662,p,47.7,Unlimited Time,l,31.45669013416584,29.226002811011185,34.346824325428074,47.660032625314194,29.226002811011185,31.45669013416584,34.346824325428074,47.660032625314194,-10,-0.33,0.33,10,38,28,37.67,38.33,48,3.1622776601683795,3.1622776601683795,3.1622776601683795,3.1622776601683795
13,8,0.360790700011421,p,45.0,Unlimited Time,l,39.22445600104613,25.26974713423214,36.49722067586132,45.03096572013826,25.26974713423214,39.22445600104613,36.49722067586132,45.03096572013826,-10,-0.33,0.33,10,38,28,37.67,38.33,48,3.1622776601683795,3.1622776601683795,3.1622776601683795,3.1622776601683795
13,9,0.4159539999673143,p,47.7,Unlimited Time,l,39.66518536306837,29.32722233706709,37.952065088806364,47.73192004848486,29.32722233706709,39.66518536306837,37.952065088806364,47.73192004848486,-10,-0.33,0.33,10,38,28,37.67,38.33,48,3.1622776601683795,3.1622776601683795,3.1622776601683795,3.1622776601683795
13,10,0.13409759994829074,q,37.4,Unlimited Time,l,37.36347477917596,26.387529868794736,33.2839308892854,48.137846773539074,26.387529868794736,37.36347477917596,33.2839308892854,48.137846773539074,-10,-0.33,0.33,10,38,28,37.67,38.33,48,3.1622776601683795,3.1622776601683795,3.1622776601683795,3.1622776601683795
13,11,0.17100329999811947,p,47.0,Unlimited Time,l,40.45628464366889,25.906078471921187,33.86011017308841,47.00276487843317,25.906078471921187,40.45628464366889,33.86011017308841,47.00276487843317,-10,-0.33,0.33,10,38,28,37.67,38.33,48,3.1622776601683795,3.1622776601683795,3.1622776601683795,3.1622776601683795
13,12,0.724331000004895,p,44.9,Unlimited Time,l,41.77510222883588,27.04008150793364,36.21537762543704,44.875843839607526,27.04008150793364,41.77510222883588,36.21537762543704,44.875843839607526,-10,-0.33,0.33,10,38,28,37.67,38.33,48,3.1622776601683795,3.1622776601683795,3.1622776601683795,3.1622776601683795
13,13,0.397216200013645,p,52.2,Unlimited Time,l,35.578177146828324,28.567296729832634,36.99107843529276,52.21631678584785,28.567296729832634,35.578177146828324,36.99107843529276,52.21631678584785,-10,-0.33,0.33,10,38,28,37.67,38.33,48,3.1622776601683795,3.1622776601683795,3.1622776601683795,3.1622776601683795
13,14,0.3801513999933377,p,49.9,Unlimited Time,l,35.25067360292832,32.36518222753479,39.48085582167133,49.889105926877306,32.36518222753479,35.25067360292832,39.48085582167133,49.889105926877306,-10,-0.33,0.33,10,38,28,37.67,38.33,48,3.1622776601683795,3.1622776601683795,3.1622776601683795,3.1622776601683795
13,15,0.5455021999659948,p,43.0,Unlimited Time,l,39.262994852985706,24.532178533587384,34.566224781157985,43.04077956608392,24.532178533587384,39.262994852985706,34.566224781157985,43.04077956608392,-10,-0.33,0.33,10,38,28,37.67,38.33,48,3.1622776601683795,3.1622776601683795,3.1622776601683795,3.1622776601683795
13,16,0.41070370003581047,p,52.8,Unlimited Time,l,29.325053033413447,29.50595193851659,42.52706530592162,52.76724069802954,29.50595193851659,29.325053033413447,42.52706530592162,52.76724069802954,-10,-0.33,0.33,10,38,28,37.67,38.33,48,3.1622776601683795,3.1622776601683795,3.1622776601683795,3.1622776601683795
13,17,0.3628047999809496,p,45.5,Unlimited Time,l,39.16893172967011,30.39331319962058,37.050588979977526,45.46775474162316,30.39331319962058,39.16893172967011,37.050588979977526,45.46775474162316,-10,-0.33,0.33,10,38,28,37.67,38.33,48,3.1622776601683795,3.1622776601683795,3.1622776601683795,3.1622776601683795
13,18,0.30716010002652183,p,50.7,Unlimited Time,l,42.96343970859738,29.311291128264827,38.37212805814863,50.73001979482792,29.311291128264827,42.96343970859738,38.37212805814863,50.73001979482792,-10,-0.33,0.33,10,38,28,37.67,38.33,48,3.1622776601683795,3.1622776601683795,3.1622776601683795,3.1622776601683795
13,19,0.3535670999553986,p,52.4,Unlimited Time,l,38.17728696022125,26.114419994476904,40.81325237899797,52.41662710790145,26.114419994476904,38.17728696022125,40.81325237899797,52.41662710790145,-10,-0.33,0.33,10,38,28,37.67,38.33,48,3.1622776601683795,3.1622776601683795,3.1622776601683795,3.1622776601683795
13,20,0.2933422999922186,p,48.7,Unlimited Time,l,37.35647052206179,30.255961063880697,40.38757891771013,48.695154743975344,30.255961063880697,37.35647052206179,40.38757891771013,48.695154743975344,-10,-0.33,0.33,10,38,28,37.67,38.33,48,3.1622776601683795,3.1622776601683795,3.1622776601683795,3.1622776601683795
14,1,0.26557089999550954,p,32.5,Limited Time - 400ms,l,31.135548093389364,48.83130953277062,37.156675519270365,32.48685503567944,31.135548093389364,37.156675519270365,32.48685503567944,48.83130953277062,-10,-0.33,0.33,10,38,28,37.67,38.33,48,3.1622776601683795,3.1622776601683795,3.1622776601683795,3.1622776601683795
14,2,,,0.0,Limited Time - 400ms,l,27.377367164062818,42.9343410004794,36.81933201786938,35.640427810840734,27.377367164062818,36.81933201786938,35.640427810840734,42.9343410004794,-10,-0.33,0.33,10,38,28,37.67,38.33,48,3.1622776601683795,3.1622776601683795,3.1622776601683795,3.1622776601683795
14,3,,,0.0,Limited Time - 400ms,l,26.46277769919944,51.167400742716076,39.73153301375933,39.13923138217929,26.46277769919944,39.73153301375933,39.13923138217929,51.167400742716076,-10,-0.33,0.33,10,38,28,37.67,38.33,48,3.1622776601683795,3.1622776601683795,3.1622776601683795,3.1622776601683795
14,4,,,0.0,Limited Time - 400ms,l,28.47784171556439,42.96878622321668,44.07528269715625,38.25547434903298,28.47784171556439,44.07528269715625,38.25547434903298,42.96878622321668,-10,-0.33,0.33,10,38,28,37.67,38.33,48,3.1622776601683795,3.1622776601683795,3.1622776601683795,3.1622776601683795
14,5,0.350323099992238,q,25.6,Limited Time - 400ms,l,25.591131797184723,49.36915589846536,38.013865262246185,37.33262109237775,25.591131797184723,38.013865262246185,37.33262109237775,49.36915589846536,-10,-0.33,0.33,10,38,28,37.67,38.33,48,3.1622776601683795,3.1622776601683795,3.1622776601683795,3.1622776601683795
14,6,0.17350570001872256,q,26.9,Limited Time - 400ms,l,26.936067603247526,49.58087523910396,38.45902414169193,32.7291918989185,26.936067603247526,38.45902414169193,32.7291918989185,49.58087523910396,-10,-0.33,0.33,10,38,28,37.67,38.33,48,3.1622776601683795,3.1622776601683795,3.1622776601683795,3.1622776601683795
14,7,,,0.0,Limited Time - 400ms,l,29.226002811011185,47.660032625314194,31.45669013416584,34.346824325428074,29.226002811011185,31.45669013416584,34.346824325428074,47.660032625314194,-10,-0.33,0.33,10,38,28,37.67,38.33,48,3.1622776601683795,3.1622776601683795,3.1622776601683795,3.1622776601683795
14,8,0.2543942999909632,q,25.3,Limited Time - 400ms,l,25.26974713423214,45.03096572013826,39.22445600104613,36.49722067586132,25.26974713423214,39.22445600104613,36.49722067586132,45.03096572013826,-10,-0.33,0.33,10,38,28,37.67,38.33,48,3.1622776601683795,3.1622776601683795,3.1622776601683795,3.1622776601683795
14,9,0.13005750003503636,q,29.3,Limited Time - 400ms,l,29.32722233706709,47.73192004848486,39.66518536306837,37.952065088806364,29.32722233706709,39.66518536306837,37.952065088806364,47.73192004848486,-10,-0.33,0.33,10,38,28,37.67,38.33,48,3.1622776601683795,3.1622776601683795,3.1622776601683795,3.1622776601683795
14,10,0.044719900004565716,q,26.4,Limited Time - 400ms,l,26.387529868794736,48.137846773539074,37.36347477917596,33.2839308892854,26.387529868794736,37.36347477917596,33.2839308892854,48.137846773539074,-10,-0.33,0.33,10,38,28,37.67,38.33,48,3.1622776601683795,3.1622776601683795,3.1622776601683795,3.1622776601683795
14,11,0.3369711000123061,q,25.9,Limited Time - 400ms,l,25.906078471921187,47.00276487843317,40.45628464366889,33.86011017308841,25.906078471921187,40.45628464366889,33.86011017308841,47.00276487843317,-10,-0.33,0.33,10,38,28,37.67,38.33,48,3.1622776601683795,3.1622776601683795,3.1622776601683795,3.1622776601683795
14,12,0.0275580000015907,q,27.0,Limited Time - 400ms,l,27.04008150793364,44.875843839607526,41.77510222883588,36.21537762543704,27.04008150793364,41.77510222883588,36.21537762543704,44.875843839607526,-10,-0.33,0.33,10,38,28,37.67,38.33,48,3.1622776601683795,3.1622776601683795,3.1622776601683795,3.1622776601683795
14,13,0.32277369999792427,w,52.2,Limited Time - 400ms,l,28.567296729832634,52.21631678584785,35.578177146828324,36.99107843529276,28.567296729832634,35.578177146828324,36.99107843529276,52.21631678584785,-10,-0.33,0.33,10,38,28,37.67,38.33,48,3.1622776601683795,3.1622776601683795,3.1622776601683795,3.1622776601683795
14,14,0.13808889995561913,w,49.9,Limited Time - 400ms,l,32.36518222753479,49.889105926877306,35.25067360292832,39.48085582167133,32.36518222753479,35.25067360292832,39.48085582167133,49.889105926877306,-10,-0.33,0.33,10,38,28,37.67,38.33,48,3.1622776601683795,3.1622776601683795,3.1622776601683795,3.1622776601683795
14,15,0.09508950001327321,w,43.0,Limited Time - 400ms,l,24.532178533587384,43.04077956608392,39.262994852985706,34.566224781157985,24.532178533587384,39.262994852985706,34.566224781157985,43.04077956608392,-10,-0.33,0.33,10,38,28,37.67,38.33,48,3.1622776601683795,3.1622776601683795,3.1622776601683795,3.1622776601683795
14,16,0.35430409997934476,w,52.8,Limited Time - 400ms,l,29.50595193851659,52.76724069802954,29.325053033413447,42.52706530592162,29.50595193851659,29.325053033413447,42.52706530592162,52.76724069802954,-10,-0.33,0.33,10,38,28,37.67,38.33,48,3.1622776601683795,3.1622776601683795,3.1622776601683795,3.1622776601683795
14,17,0.18908540002303198,w,45.5,Limited Time - 400ms,l,30.39331319962058,45.46775474162316,39.16893172967011,37.050588979977526,30.39331319962058,39.16893172967011,37.050588979977526,45.46775474162316,-10,-0.33,0.33,10,38,28,37.67,38.33,48,3.1622776601683795,3.1622776601683795,3.1622776601683795,3.1622776601683795
14,18,0.058688500022981316,w,50.7,Limited Time - 400ms,l,29.311291128264827,50.73001979482792,42.96343970859738,38.37212805814863,29.311291128264827,42.96343970859738,38.37212805814863,50.73001979482792,-10,-0.33,0.33,10,38,28,37.67,38.33,48,3.1622776601683795,3.1622776601683795,3.1622776601683795,3.1622776601683795
14,19,0.2961250999942422,w,52.4,Limited Time - 400ms,l,26.114419994476904,52.41662710790145,38.17728696022125,40.81325237899797,26.114419994476904,38.17728696022125,40.81325237899797,52.41662710790145,-10,-0.33,0.33,10,38,28,37.67,38.33,48,3.1622776601683795,3.1622776601683795,3.1622776601683795,3.1622776601683795
14,20,0.25351720000617206,w,48.7,Limited Time - 400ms,l,30.255961063880697,48.695154743975344,37.35647052206179,40.38757891771013,30.255961063880697,37.35647052206179,40.38757891771013,48.695154743975344,-10,-0.33,0.33,10,38,28,37.67,38.33,48,3.1622776601683795,3.1622776601683795,3.1622776601683795,3.1622776601683795
15,1,0.3897020000149496,w,47.6,Limited Time - 800ms,i,12.235434769230512,47.57132009487501,29.3373968315882,43.59310203493124,29.3373968315882,12.235434769230512,47.57132009487501,43.59310203493124,-10,-10,10,10,38,28,28,48,48,3.1622776601683795,10,3.1622776601683795,10
15,2,0.47951109998393804,o,26.7,Limited Time - 800ms,i,39.83685909489663,50.04677370090349,26.71671509140925,58.825056166667245,26.71671509140925,39.83685909489663,50.04677370090349,58.825056166667245,-10,-10,10,10,38,28,28,48,48,3.1622776601683795,10,3.1622776601683795,10
15,3,0.2719758999883197,p,40.5,Limited Time - 800ms,i,30.949701194287265,51.80945864475601,28.819870484308442,40.53586724403469,28.819870484308442,30.949701194287265,51.80945864475601,40.53586724403469,-10,-10,10,10,38,28,28,48,48,3.1622776601683795,10,3.1622776601683795,10
15,4,0.20139529998414218,q,41.7,Limited Time - 800ms,i,41.66791424783835,44.60443803434937,26.882325123227094,26.03592794729019,26.882325123227094,41.66791424783835,44.60443803434937,26.03592794729019,-10,-10,10,10,38,28,28,48,48,3.1622776601683795,10,3.1622776601683795,10
15,5,0.3182423999533057,q,10.8,Limited Time - 800ms,i,10.847918722304907,49.73388008802045,33.00888393850412,32.83648181186026,33.00888393850412,10.847918722304907,49.73388008802045,32.83648181186026,-10,-10,10,10,38,28,28,48,48,3.1622776601683795,10,3.1622776601683795,10
15,6,0.30332699994323775,w,49.9,Limited Time - 800ms,i,53.182504162232355,49.876575985433746,27.511915763952302,44.75909766339943,27.511915763952302,53.182504162232355,49.876575985433746,44.75909766339943,-10,-10,10,10,38,28,28,48,48,3.1622776601683795,10,3.1622776601683795,10
15,7,0.26204439997673035,w,47.2,Limited Time - 800ms,i,34.201689868238375,47.16908908144646,29.666427502212485,52.62698531458362,29.666427502212485,34.201689868238375,47.16908908144646,52.62698531458362,-10,-10,10,10,38,28,28,48,48,3.1622776601683795,10,3.1622776601683795,10
15,8,,,0.0,Limited Time - 800ms,i,30.654139119224702,50.746964304614536,24.596710039699673,37.120119819362124,24.596710039699673,30.654139119224702,50.746964304614536,37.120119819362124,-10,-10,10,10,38,28,28,48,48,3.1622776601683795,10,3.1622776601683795,10
15,9,0.306700200017076,w,47.7,Limited Time - 800ms,i,34.3305764847169,47.74541728439188,24.80079769198453,61.319074355145844,24.80079769198453,34.3305764847169,47.74541728439188,61.319074355145844,-10,-10,10,10,38,28,28,48,48,3.1622776601683795,10,3.1622776601683795,10
15,10,0.23828260001027957,w,53.1,Limited Time - 800ms,i,4.473951158851143,53.13132152877917,26.903368993396903,52.196151410245456,26.903368993396903,4.473951158851143,53.13132152877917,52.196151410245456,-10,-10,10,10,38,28,28,48,48,3.1622776601683795,10,3.1622776601683795,10
15,11,0.3800215999945067,w,49.2,Limited Time - 800ms,i,29.801312212938242,49.1829097024455,28.059846378056903,29.066636037485075,28.059846378056903,29.801312212938242,49.1829097024455,29.066636037485075,-10,-10,10,10,38,28,28,48,48,3.1622776601683795,10,3.1622776601683795,10
15,12,0.2556133000180125,w,48.3,Limited Time - 800ms,i,38.81222357884846,48.30439149888593,33.20416382772084,53.13855094274077,33.20416382772084,38.81222357884846,48.30439149888593,53.13855094274077,-10,-10,10,10,38,28,28,48,48,3.1622776601683795,10,3.1622776601683795,10
15,13,0.13173329998971894,w,46.3,Limited Time - 800ms,i,35.344795177039735,46.265770230799355,27.19704246109718,47.09613252250637,27.19704246109718,35.344795177039735,46.265770230799355,47.09613252250637,-10,-10,10,10,38,28,28,48,48,3.1622776601683795,10,3.1622776601683795,10
15,14,0.25822850002441555,w,53.0,Limited Time - 800ms,i,23.29573759160803,53.00569136649447,30.183307814114443,60.367362799012426,30.183307814114443,23.29573759160803,53.00569136649447,60.367362799012426,-10,-10,10,10,38,28,28,48,48,3.1622776601683795,10,3.1622776601683795,10
15,15,0.1129188000340946,w,44.1,Limited Time - 800ms,i,24.89711605745269,44.115371026809626,25.05926481991999,34.410731617672546,25.05926481991999,24.89711605745269,44.115371026809626,34.410731617672546,-10,-10,10,10,38,28,28,48,48,3.1622776601683795,10,3.1622776601683795,10
15,16,0.22092769999289885,w,43.2,Limited Time - 800ms,i,16.288632815795925,43.22636525564167,24.74113016296616,44.33729659410621,24.74113016296616,16.288632815795925,43.22636525564167,44.33729659410621,-10,-10,10,10,38,28,28,48,48,3.1622776601683795,10,3.1622776601683795,10
15,17,0.2517537000239827,w,48.0,Limited Time - 800ms,i,18.94622433946698,47.97853730195898,31.95127363845829,35.527434636341376,31.95127363845829,18.94622433946698,47.97853730195898,35.527434636341376,-10,-10,10,10,38,28,28,48,48,3.1622776601683795,10,3.1622776601683795,10
15,18,0.1724574000108987,w,50.7,Limited Time - 800ms,i,30.085250472300785,50.6507502504436,29.044802971243296,39.66045670919624,29.044802971243296,30.085250472300785,50.6507502504436,39.66045670919624,-10,-10,10,10,38,28,28,48,48,3.1622776601683795,10,3.1622776601683795,10
15,19,0.21201219997601584,w,51.0,Limited Time - 800ms,i,35.35867894053777,50.95284239531639,27.317456950188546,43.74364978007931,27.317456950188546,35.35867894053777,50.95284239531639,43.74364978007931,-10,-10,10,10,38,28,28,48,48,3.1622776601683795,10,3.1622776601683795,10
15,20,0.2699760999530554,w,41.2,Limited Time - 800ms,i,41.140070463645316,41.24370858370338,30.66253855977803,55.702874017485705,30.66253855977803,41.140070463645316,41.24370858370338,55.702874017485705,-10,-10,10,10,38,28,28,48,48,3.1622776601683795,10,3.1622776601683795,10
16,1,0.41891729994677007,w,37.2,Unlimited Time,l,31.135548093389364,37.156675519270365,32.48685503567944,48.83130953277062,31.135548093389364,37.156675519270365,32.48685503567944,48.83130953277062,-10,-0.33,0.33,10,38,28,37.67,38.33,48,3.1622776601683795,3.1622776601683795,3.1622776601683795,3.1622776601683795
16,2,0.38385569996898994,q,27.4,Unlimited Time,l,27.377367164062818,36.81933201786938,35.640427810840734,42.9343410004794,27.377367164062818,36.81933201786938,35.640427810840734,42.9343410004794,-10,-0.33,0.33,10,38,28,37.67,38.33,48,3.1622776601683795,3.1622776601683795,3.1622776601683795,3.1622776601683795
16,3,0.41764950001379475,o,39.1,Unlimited Time,l,26.46277769919944,39.73153301375933,39.13923138217929,51.167400742716076,26.46277769919944,39.73153301375933,39.13923138217929,51.167400742716076,-10,-0.33,0.33,10,38,28,37.67,38.33,48,3.1622776601683795,3.1622776601683795,3.1622776601683795,3.1622776601683795
16,4,0.4348273999639787,p,43.0,Unlimited Time,l,28.47784171556439,44.07528269715625,38.25547434903298,42.96878622321668,28.47784171556439,44.07528269715625,38.25547434903298,42.96878622321668,-10,-0.33,0.33,10,38,28,37.67,38.33,48,3.1622776601683795,3.1622776601683795,3.1622776601683795,3.1622776601683795
16,5,0.41649899998446926,p,49.4,Unlimited Time,l,25.591131797184723,38.013865262246185,37.33262109237775,49.36915589846536,25.591131797184723,38.013865262246185,37.33262109237775,49.36915589846536,-10,-0.33,0.33,10,38,28,37.67,38.33,48,3.1622776601683795,3.1622776601683795,3.1622776601683795,3.1622776601683795
16,6,0.31419219996314496,p,49.6,Unlimited Time,l,26.936067603247526,38.45902414169193,32.7291918989185,49.58087523910396,26.936067603247526,38.45902414169193,32.7291918989185,49.58087523910396,-10,-0.33,0.33,10,38,28,37.67,38.33,48,3.1622776601683795,3.1622776601683795,3.1622776601683795,3.1622776601683795
16,7,0.43197909998707473,p,47.7,Unlimited Time,l,29.226002811011185,31.45669013416584,34.346824325428074,47.660032625314194,29.226002811011185,31.45669013416584,34.346824325428074,47.660032625314194,-10,-0.33,0.33,10,38,28,37.67,38.33,48,3.1622776601683795,3.1622776601683795,3.1622776601683795,3.1622776601683795
16,8,0.5757139999768697,p,45.0,Unlimited Time,l,25.26974713423214,39.22445600104613,36.49722067586132,45.03096572013826,25.26974713423214,39.22445600104613,36.49722067586132,45.03096572013826,-10,-0.33,0.33,10,38,28,37.67,38.33,48,3.1622776601683795,3.1622776601683795,3.1622776601683795,3.1622776601683795
16,9,0.39765260001877323,p,47.7,Unlimited Time,l,29.32722233706709,39.66518536306837,37.952065088806364,47.73192004848486,29.32722233706709,39.66518536306837,37.952065088806364,47.73192004848486,-10,-0.33,0.33,10,38,28,37.67,38.33,48,3.1622776601683795,3.1622776601683795,3.1622776601683795,3.1622776601683795
16,10,0.38497849996201694,p,48.1,Unlimited Time,l,26.387529868794736,37.36347477917596,33.2839308892854,48.137846773539074,26.387529868794736,37.36347477917596,33.2839308892854,48.137846773539074,-10,-0.33,0.33,10,38,28,37.67,38.33,48,3.1622776601683795,3.1622776601683795,3.1622776601683795,3.1622776601683795
16,11,0.46199969999725,p,47.0,Unlimited Time,l,25.906078471921187,40.45628464366889,33.86011017308841,47.00276487843317,25.906078471921187,40.45628464366889,33.86011017308841,47.00276487843317,-10,-0.33,0.33,10,38,28,37.67,38.33,48,3.1622776601683795,3.1622776601683795,3.1622776601683795,3.1622776601683795
16,12,0.6704792999662459,p,44.9,Unlimited Time,l,27.04008150793364,41.77510222883588,36.21537762543704,44.875843839607526,27.04008150793364,41.77510222883588,36.21537762543704,44.875843839607526,-10,-0.33,0.33,10,38,28,37.67,38.33,48,3.1622776601683795,3.1622776601683795,3.1622776601683795,3.1622776601683795
16,13,0.4145474000251852,p,52.2,Unlimited Time,l,28.567296729832634,35.578177146828324,36.99107843529276,52.21631678584785,28.567296729832634,35.578177146828324,36.99107843529276,52.21631678584785,-10,-0.33,0.33,10,38,28,37.67,38.33,48,3.1622776601683795,3.1622776601683795,3.1622776601683795,3.1622776601683795
16,14,0.4862708000000566,o,39.5,Unlimited Time,l,32.36518222753479,35.25067360292832,39.48085582167133,49.889105926877306,32.36518222753479,35.25067360292832,39.48085582167133,49.889105926877306,-10,-0.33,0.33,10,38,28,37.67,38.33,48,3.1622776601683795,3.1622776601683795,3.1622776601683795,3.1622776601683795
16,15,0.4005168000003323,p,43.0,Unlimited Time,l,24.532178533587384,39.262994852985706,34.566224781157985,43.04077956608392,24.532178533587384,39.262994852985706,34.566224781157985,43.04077956608392,-10,-0.33,0.33,10,38,28,37.67,38.33,48,3.1622776601683795,3.1622776601683795,3.1622776601683795,3.1622776601683795
16,16,0.37214180000592023,q,29.5,Unlimited Time,l,29.50595193851659,29.325053033413447,42.52706530592162,52.76724069802954,29.50595193851659,29.325053033413447,42.52706530592162,52.76724069802954,-10,-0.33,0.33,10,38,28,37.67,38.33,48,3.1622776601683795,3.1622776601683795,3.1622776601683795,3.1622776601683795
16,17,0.43932979996316135,o,37.1,Unlimited Time,l,30.39331319962058,39.16893172967011,37.050588979977526,45.46775474162316,30.39331319962058,39.16893172967011,37.050588979977526,45.46775474162316,-10,-0.33,0.33,10,38,28,37.67,38.33,48,3.1622776601683795,3.1622776601683795,3.1622776601683795,3.1622776601683795
16,18,0.22493639995809644,p,50.7,Unlimited Time,l,29.311291128264827,42.96343970859738,38.37212805814863,50.73001979482792,29.311291128264827,42.96343970859738,38.37212805814863,50.73001979482792,-10,-0.33,0.33,10,38,28,37.67,38.33,48,3.1622776601683795,3.1622776601683795,3.1622776601683795,3.1622776601683795
16,19,0.63858040003106,p,52.4,Unlimited Time,l,26.114419994476904,38.17728696022125,40.81325237899797,52.41662710790145,26.114419994476904,38.17728696022125,40.81325237899797,52.41662710790145,-10,-0.33,0.33,10,38,28,37.67,38.33,48,3.1622776601683795,3.1622776601683795,3.1622776601683795,3.1622776601683795
16,20,0.46529339998960495,o,40.4,Unlimited Time,l,30.255961063880697,37.35647052206179,40.38757891771013,48.695154743975344,30.255961063880697,37.35647052206179,40.38757891771013,48.695154743975344,-10,-0.33,0.33,10,38,28,37.67,38.33,48,3.1622776601683795,3.1622776601683795,3.1622776601683795,3.1622776601683795
17,1,0.3229269999428652,w,47.6,Limited Time - 400ms,i,12.235434769230512,47.57132009487501,29.3373968315882,43.59310203493124,29.3373968315882,12.235434769230512,47.57132009487501,43.59310203493124,-10,-10,10,10,38,28,28,48,48,3.1622776601683795,10,3.1622776601683795,10
17,2,0.21586369996657595,o,26.7,Limited Time - 400ms,i,39.83685909489663,50.04677370090349,26.71671509140925,58.825056166667245,26.71671509140925,39.83685909489663,50.04677370090349,58.825056166667245,-10,-10,10,10,38,28,28,48,48,3.1622776601683795,10,3.1622776601683795,10
17,3,0.11658620001981035,q,30.9,Limited Time - 400ms,i,30.949701194287265,51.80945864475601,28.819870484308442,40.53586724403469,28.819870484308442,30.949701194287265,51.80945864475601,40.53586724403469,-10,-10,10,10,38,28,28,48,48,3.1622776601683795,10,3.1622776601683795,10
17,4,0.13029010000173002,w,44.6,Limited Time - 400ms,i,41.66791424783835,44.60443803434937,26.882325123227094,26.03592794729019,26.882325123227094,41.66791424783835,44.60443803434937,26.03592794729019,-10,-10,10,10,38,28,28,48,48,3.1622776601683795,10,3.1622776601683795,10
17,5,0.20435459999134764,w,49.7,Limited Time - 400ms,i,10.847918722304907,49.73388008802045,33.00888393850412,32.83648181186026,33.00888393850412,10.847918722304907,49.73388008802045,32.83648181186026,-10,-10,10,10,38,28,28,48,48,3.1622776601683795,10,3.1622776601683795,10
17,6,0.24597170000197366,w,49.9,Limited Time - 400ms,i,53.182504162232355,49.876575985433746,27.511915763952302,44.75909766339943,27.511915763952302,53.182504162232355,49.876575985433746,44.75909766339943,-10,-10,10,10,38,28,28,48,48,3.1622776601683795,10,3.1622776601683795,10
17,7,0.2282812000485137,w,47.2,Limited Time - 400ms,i,34.201689868238375,47.16908908144646,29.666427502212485,52.62698531458362,29.666427502212485,34.201689868238375,47.16908908144646,52.62698531458362,-10,-10,10,10,38,28,28,48,48,3.1622776601683795,10,3.1622776601683795,10
17,8,0.28284030000213534,w,50.7,Limited Time - 400ms,i,30.654139119224702,50.746964304614536,24.596710039699673,37.120119819362124,24.596710039699673,30.654139119224702,50.746964304614536,37.120119819362124,-10,-10,10,10,38,28,28,48,48,3.1622776601683795,10,3.1622776601683795,10
17,9,,,0.0,Limited Time - 400ms,i,34.3305764847169,47.74541728439188,24.80079769198453,61.319074355145844,24.80079769198453,34.3305764847169,47.74541728439188,61.319074355145844,-10,-10,10,10,38,28,28,48,48,3.1622776601683795,10,3.1622776601683795,10
17,10,0.3623022999963723,w,53.1,Limited Time - 400ms,i,4.473951158851143,53.13132152877917,26.903368993396903,52.196151410245456,26.903368993396903,4.473951158851143,53.13132152877917,52.196151410245456,-10,-10,10,10,38,28,28,48,48,3.1622776601683795,10,3.1622776601683795,10
17,11,0.2502791999722831,w,49.2,Limited Time - 400ms,i,29.801312212938242,49.1829097024455,28.059846378056903,29.066636037485075,28.059846378056903,29.801312212938242,49.1829097024455,29.066636037485075,-10,-10,10,10,38,28,28,48,48,3.1622776601683795,10,3.1622776601683795,10
17,12,0.2935480999876745,w,48.3,Limited Time - 400ms,i,38.81222357884846,48.30439149888593,33.20416382772084,53.13855094274077,33.20416382772084,38.81222357884846,48.30439149888593,53.13855094274077,-10,-10,10,10,38,28,28,48,48,3.1622776601683795,10,3.1622776601683795,10
17,13,0.06535200000507757,w,46.3,Limited Time - 400ms,i,35.344795177039735,46.265770230799355,27.19704246109718,47.09613252250637,27.19704246109718,35.344795177039735,46.265770230799355,47.09613252250637,-10,-10,10,10,38,28,28,48,48,3.1622776601683795,10,3.1622776601683795,10
17,14,0.060340800031553954,w,53.0,Limited Time - 400ms,i,23.29573759160803,53.00569136649447,30.183307814114443,60.367362799012426,30.183307814114443,23.29573759160803,53.00569136649447,60.367362799012426,-10,-10,10,10,38,28,28,48,48,3.1622776601683795,10,3.1622776601683795,10
17,15,,,0.0,Limited Time - 400ms,i,24.89711605745269,44.115371026809626,25.05926481991999,34.410731617672546,25.05926481991999,24.89711605745269,44.115371026809626,34.410731617672546,-10,-10,10,10,38,28,28,48,48,3.1622776601683795,10,3.1622776601683795,10
17,16,0.27222640003310516,w,43.2,Limited Time - 400ms,i,16.288632815795925,43.22636525564167,24.74113016296616,44.33729659410621,24.74113016296616,16.288632815795925,43.22636525564167,44.33729659410621,-10,-10,10,10,38,28,28,48,48,3.1622776601683795,10,3.1622776601683795,10
17,17,0.035141500004101545,w,48.0,Limited Time - 400ms,i,18.94622433946698,47.97853730195898,31.95127363845829,35.527434636341376,31.95127363845829,18.94622433946698,47.97853730195898,35.527434636341376,-10,-10,10,10,38,28,28,48,48,3.1622776601683795,10,3.1622776601683795,10
17,18,0.22423219995107502,w,50.7,Limited Time - 400ms,i,30.085250472300785,50.6507502504436,29.044802971243296,39.66045670919624,29.044802971243296,30.085250472300785,50.6507502504436,39.66045670919624,-10,-10,10,10,38,28,28,48,48,3.1622776601683795,10,3.1622776601683795,10
17,19,0.30851280002389103,w,51.0,Limited Time - 400ms,i,35.35867894053777,50.95284239531639,27.317456950188546,43.74364978007931,27.317456950188546,35.35867894053777,50.95284239531639,43.74364978007931,-10,-10,10,10,38,28,28,48,48,3.1622776601683795,10,3.1622776601683795,10
17,20,0.020821399986743927,w,41.2,Limited Time - 400ms,i,41.140070463645316,41.24370858370338,30.66253855977803,55.702874017485705,30.66253855977803,41.140070463645316,41.24370858370338,55.702874017485705,-10,-10,10,10,38,28,28,48,48,3.1622776601683795,10,3.1622776601683795,10
18,1,0.5980546000064351,w,27.6,Limited Time - 800ms,h,31.05842948759061,27.57504504025058,40.94927139222096,58.745790849111465,31.05842948759061,58.745790849111465,40.94927139222096,27.57504504025058,-10,-0.33,0.33,10,38,28,37.67,38.33,48,10,10,10,10
18,2,0.14664660004200414,q,34.9,Limited Time - 800ms,h,34.87537104213353,56.27990721487026,57.72465479614809,45.53581740625034,34.87537104213353,45.53581740625034,57.72465479614809,56.27990721487026,-10,-0.33,0.33,10,38,28,37.67,38.33,48,10,10,10,10
18,3,0.1626292999717407,o,33.3,Limited Time - 800ms,h,28.73449205649013,47.351485935657536,33.327424891218115,16.47061007798617,28.73449205649013,16.47061007798617,33.327424891218115,47.351485935657536,-10,-0.33,0.33,10,38,28,37.67,38.33,48,10,10,10,10
18,4,0.04059039999265224,p,38.4,Limited Time - 800ms,h,41.77866714077825,48.13854118136944,39.104736204892625,38.36720633533029,41.77866714077825,38.36720633533029,39.104736204892625,48.13854118136944,-10,-0.33,0.33,10,38,28,37.67,38.33,48,10,10,10,10
18,5,0.6753689000033773,w,62.6,Limited Time - 800ms,h,18.25945686884362,62.60937942473836,56.11993532591515,58.74260122216102,18.25945686884362,58.74260122216102,56.11993532591515,62.60937942473836,-10,-0.33,0.33,10,38,28,37.67,38.33,48,10,10,10,10
18,6,0.2010532999993302,q,32.9,Limited Time - 800ms,h,32.90300978083355,54.578772805956554,40.093067907001,49.66677540232753,32.90300978083355,49.66677540232753,40.093067907001,54.578772805956554,-10,-0.33,0.33,10,38,28,37.67,38.33,48,10,10,10,10
18,7,0.7175719999941066,w,63.5,Limited Time - 800ms,h,13.739335286696159,63.522125404636924,36.65489474398156,25.480464419906706,13.739335286696159,25.480464419906706,36.65489474398156,63.522125404636924,-10,-0.33,0.33,10,38,28,37.67,38.33,48,10,10,10,10
18,8,0.09548129996983334,w,45.2,Limited Time - 800ms,h,40.898548356984385,45.197364002237094,28.530301077973544,31.804025131582236,40.898548356984385,31.804025131582236,28.530301077973544,45.197364002237094,-10,-0.33,0.33,10,38,28,37.67,38.33,48,10,10,10,10
18,9,,,0.0,Limited Time - 800ms,h,22.30684597189724,48.499151171070295,36.53895341521028,49.62165779476122,22.30684597189724,49.62165779476122,36.53895341521028,48.499151171070295,-10,-0.33,0.33,10,38,28,37.67,38.33,48,10,10,10,10
18,10,0.026946800004225224,o,43.7,Limited Time - 800ms,h,34.41312969033244,50.12945783703966,43.671358867830094,28.845285314842812,34.41312969033244,28.845285314842812,43.671358867830094,50.12945783703966,-10,-0.33,0.33,10,38,28,37.67,38.33,48,10,10,10,10
18,11,0.43080589995952323,o,49.6,Limited Time - 800ms,h,11.814613224634648,62.89000870192931,49.56770504786291,30.464909875010303,11.814613224634648,30.464909875010303,49.56770504786291,62.89000870192931,-10,-0.33,0.33,10,38,28,37.67,38.33,48,10,10,10,10
18,12,0.39153930003521964,o,32.3,Limited Time - 800ms,h,18.04845783292602,51.6631945967665,32.30649793014335,35.800035787538754,18.04845783292602,35.800035787538754,32.30649793014335,51.6631945967665,-10,-0.33,0.33,10,38,28,37.67,38.33,48,10,10,10,10
18,13,0.22108369995839894,o,19.4,Limited Time - 800ms,h,19.07348800800313,47.57108991408186,19.42711006119635,28.042055494120312,19.07348800800313,28.042055494120312,19.42711006119635,47.57108991408186,-10,-0.33,0.33,10,38,28,37.67,38.33,48,10,10,10,10
18,14,0.39616079995175824,w,49.3,Limited Time - 800ms,h,22.942105225889716,49.25650226868283,56.576195863329545,26.995477868223652,22.942105225889716,26.995477868223652,56.576195863329545,49.25650226868283,-10,-0.33,0.33,10,38,28,37.67,38.33,48,10,10,10,10
18,15,0.5709290000377223,w,57.1,Limited Time - 800ms,h,42.26204124630065,57.10032322043499,56.70174968663364,22.980234871053113,42.26204124630065,22.980234871053113,56.70174968663364,57.10032322043499,-10,-0.33,0.33,10,38,28,37.67,38.33,48,10,10,10,10
