Round Number,Trial Number,Reaction Time,Choice,Reward (Health Points),Time Condition,Payoff Condition,Q mapped,W mapped,O mapped,P mapped,One value,Two value,Three value,Four value,One mean,Two mean,Three mean,Four mean,Mean Shift,One shifted mean,Two shifted mean,Three shifted mean,Four shifted mean,One SD,Two SD,Three SD,Four SD
1,1,2.7713507000007667,p,31.4,Unlimited Time,h,44.14410023905547,33.68564418256859,26.22055701113338,31.360063299124562,33.68564418256859,26.22055701113338,31.360063299124562,44.14410023905547,-10,-0.33,0.33,10,35,25,34.67,35.33,45,10,10,10,10
1,2,1.6018050999991829,p,25.0,Unlimited Time,h,49.266509042333546,16.65648694782417,46.20594288583726,25.01086773686652,16.65648694782417,46.20594288583726,25.01086773686652,49.266509042333546,-10,-0.33,0.33,10,35,25,34.67,35.33,45,10,10,10,10
1,3,0.17183279999881051,p,40.9,Unlimited Time,h,51.3444370103361,53.442003757237885,47.55203653752739,40.90058189036732,53.442003757237885,47.55203653752739,40.90058189036732,51.3444370103361,-10,-0.33,0.33,10,35,25,34.67,35.33,45,10,10,10,10
1,4,0.1581142000068212,p,30.3,Unlimited Time,h,30.09891239541177,6.446527253279424,38.516738068778395,30.33749856397543,6.446527253279424,38.516738068778395,30.33749856397543,30.09891239541177,-10,-0.33,0.33,10,35,25,34.67,35.33,45,10,10,10,10
1,5,0.4957825000019511,o,13.4,Unlimited Time,h,52.12607212613416,17.55830260703301,13.368410625976601,50.097972170552694,17.55830260703301,13.368410625976601,50.097972170552694,52.12607212613416,-10,-0.33,0.33,10,35,25,34.67,35.33,45,10,10,10,10
1,6,0.2680309999996098,q,52.4,Unlimited Time,h,52.38208573193539,18.558508145396395,30.822397819269266,44.33884355498871,18.558508145396395,30.822397819269266,44.33884355498871,52.38208573193539,-10,-0.33,0.33,10,35,25,34.67,35.33,45,10,10,10,10
1,7,0.13989320000109728,q,59.2,Unlimited Time,h,59.19063233301609,29.556320840827098,22.38872496389619,28.60145902485309,29.556320840827098,22.38872496389619,28.60145902485309,59.19063233301609,-10,-0.33,0.33,10,35,25,34.67,35.33,45,10,10,10,10
1,8,0.16305309999734163,q,41.0,Unlimited Time,h,41.02534088630304,30.429922063177962,17.985430101832755,49.54983867181779,30.429922063177962,17.985430101832755,49.54983867181779,41.02534088630304,-10,-0.33,0.33,10,35,25,34.67,35.33,45,10,10,10,10
1,9,0.5447550999961095,q,45.9,Unlimited Time,h,45.862492620940415,14.165209505114982,41.552014789016425,37.576109383525704,14.165209505114982,41.552014789016425,37.576109383525704,45.862492620940415,-10,-0.33,0.33,10,35,25,34.67,35.33,45,10,10,10,10
1,10,0.22304280000389554,q,33.9,Unlimited Time,h,33.91470032504421,19.11972971966266,29.422792517355756,49.13573099008867,19.11972971966266,29.422792517355756,49.13573099008867,33.91470032504421,-10,-0.33,0.33,10,35,25,34.67,35.33,45,10,10,10,10
1,11,0.28277479999815114,p,64.0,Unlimited Time,h,55.55563720343882,20.0253670747703,27.20422700156362,63.99267794217875,20.0253670747703,27.20422700156362,63.99267794217875,55.55563720343882,-10,-0.33,0.33,10,35,25,34.67,35.33,45,10,10,10,10
1,12,0.529702299987548,p,27.9,Unlimited Time,h,45.522047180280445,21.62706779548656,22.41845828658782,27.916860821267818,21.62706779548656,22.41845828658782,27.916860821267818,45.522047180280445,-10,-0.33,0.33,10,35,25,34.67,35.33,45,10,10,10,10
1,13,0.25985439999203663,p,44.7,Unlimited Time,h,48.979720077036085,6.212376983377254,51.58511098395218,44.72210826557172,6.212376983377254,51.58511098395218,44.72210826557172,48.979720077036085,-10,-0.33,0.33,10,35,25,34.67,35.33,45,10,10,10,10
1,14,0.3421624999900814,p,19.9,Unlimited Time,h,57.45719552859981,29.61923959821879,25.149012563427533,19.865834849442273,29.61923959821879,25.149012563427533,19.865834849442273,57.45719552859981,-10,-0.33,0.33,10,35,25,34.67,35.33,45,10,10,10,10
1,15,0.2954939000046579,p,34.4,Unlimited Time,h,46.59659389983434,32.825342147653195,40.91776143336942,34.41888369423531,32.825342147653195,40.91776143336942,34.41888369423531,46.59659389983434,-10,-0.33,0.33,10,35,25,34.67,35.33,45,10,10,10,10
1,16,0.6747270000050776,q,38.7,Unlimited Time,h,38.67514833797911,32.89696808544659,41.46392199993809,43.24892445548777,32.89696808544659,41.46392199993809,43.24892445548777,38.67514833797911,-10,-0.33,0.33,10,35,25,34.67,35.33,45,10,10,10,10
1,17,0.8218340999883367,q,56.4,Unlimited Time,h,56.380049734385246,22.33179409406631,35.095068677724356,37.00500878256428,22.33179409406631,35.095068677724356,37.00500878256428,56.380049734385246,-10,-0.33,0.33,10,35,25,34.67,35.33,45,10,10,10,10
1,18,0.6791812000010395,q,50.3,Unlimited Time,h,50.30746966562098,48.57889579541434,30.388465730159147,24.107769292343107,48.57889579541434,30.388465730159147,24.107769292343107,50.30746966562098,-10,-0.33,0.33,10,35,25,34.67,35.33,45,10,10,10,10
1,19,0.47602199998800643,q,66.4,Unlimited Time,h,66.35040308788406,17.75656285895088,26.538390558052157,21.47302749622446,17.75656285895088,26.538390558052157,21.47302749622446,66.35040308788406,-10,-0.33,0.33,10,35,25,34.67,35.33,45,10,10,10,10
1,20,0.34442009999474976,q,39.6,Unlimited Time,h,39.609348371888714,19.182040492512396,29.288814539035542,34.37676336635719,19.182040492512396,29.288814539035542,34.37676336635719,39.609348371888714,-10,-0.33,0.33,10,35,25,34.67,35.33,45,10,10,10,10
2,1,0.023213299995404668,q,33.7,Limited Time - 400ms,h,33.68564418256859,31.360063299124562,44.14410023905547,26.22055701113338,33.68564418256859,26.22055701113338,31.360063299124562,44.14410023905547,-10,-0.33,0.33,10,35,25,34.67,35.33,45,10,10,10,10
2,2,,,0.0,Limited Time - 400ms,h,16.65648694782417,25.01086773686652,49.266509042333546,46.20594288583726,16.65648694782417,46.20594288583726,25.01086773686652,49.266509042333546,-10,-0.33,0.33,10,35,25,34.67,35.33,45,10,10,10,10
2,3,0.09631750000698958,q,53.4,Limited Time - 400ms,h,53.442003757237885,40.90058189036732,51.3444370103361,47.55203653752739,53.442003757237885,47.55203653752739,40.90058189036732,51.3444370103361,-10,-0.33,0.33,10,35,25,34.67,35.33,45,10,10,10,10
2,4,,,0.0,Limited Time - 400ms,h,6.446527253279424,30.33749856397543,30.09891239541177,38.516738068778395,6.446527253279424,38.516738068778395,30.33749856397543,30.09891239541177,-10,-0.33,0.33,10,35,25,34.67,35.33,45,10,10,10,10
2,5,,,0.0,Limited Time - 400ms,h,17.55830260703301,50.097972170552694,52.12607212613416,13.368410625976601,17.55830260703301,13.368410625976601,50.097972170552694,52.12607212613416,-10,-0.33,0.33,10,35,25,34.67,35.33,45,10,10,10,10
2,6,,,0.0,Limited Time - 400ms,h,18.558508145396395,44.33884355498871,52.38208573193539,30.822397819269266,18.558508145396395,30.822397819269266,44.33884355498871,52.38208573193539,-10,-0.33,0.33,10,35,25,34.67,35.33,45,10,10,10,10
2,7,0.016990300006000325,w,28.6,Limited Time - 400ms,h,29.556320840827098,28.60145902485309,59.19063233301609,22.38872496389619,29.556320840827098,22.38872496389619,28.60145902485309,59.19063233301609,-10,-0.33,0.33,10,35,25,34.67,35.33,45,10,10,10,10
2,8,0.0046820999996270984,w,49.5,Limited Time - 400ms,h,30.429922063177962,49.54983867181779,41.02534088630304,17.985430101832755,30.429922063177962,17.985430101832755,49.54983867181779,41.02534088630304,-10,-0.33,0.33,10,35,25,34.67,35.33,45,10,10,10,10
2,9,0.0981844999914756,q,14.2,Limited Time - 400ms,h,14.165209505114982,37.576109383525704,45.862492620940415,41.552014789016425,14.165209505114982,41.552014789016425,37.576109383525704,45.862492620940415,-10,-0.33,0.33,10,35,25,34.67,35.33,45,10,10,10,10
2,10,0.03990800000610761,q,19.1,Limited Time - 400ms,h,19.11972971966266,49.13573099008867,33.91470032504421,29.422792517355756,19.11972971966266,29.422792517355756,49.13573099008867,33.91470032504421,-10,-0.33,0.33,10,35,25,34.67,35.33,45,10,10,10,10
2,11,0.023668900001212023,q,20.0,Limited Time - 400ms,h,20.0253670747703,63.99267794217875,55.55563720343882,27.20422700156362,20.0253670747703,27.20422700156362,63.99267794217875,55.55563720343882,-10,-0.33,0.33,10,35,25,34.67,35.33,45,10,10,10,10
2,12,0.0718576000072062,q,21.6,Limited Time - 400ms,h,21.62706779548656,27.916860821267818,45.522047180280445,22.41845828658782,21.62706779548656,22.41845828658782,27.916860821267818,45.522047180280445,-10,-0.33,0.33,10,35,25,34.67,35.33,45,10,10,10,10
2,13,0.09685109999554697,q,6.2,Limited Time - 400ms,h,6.212376983377254,44.72210826557172,48.979720077036085,51.58511098395218,6.212376983377254,51.58511098395218,44.72210826557172,48.979720077036085,-10,-0.33,0.33,10,35,25,34.67,35.33,45,10,10,10,10
2,14,0.19109709998883773,q,29.6,Limited Time - 400ms,h,29.61923959821879,19.865834849442273,57.45719552859981,25.149012563427533,29.61923959821879,25.149012563427533,19.865834849442273,57.45719552859981,-10,-0.33,0.33,10,35,25,34.67,35.33,45,10,10,10,10
2,15,,,0.0,Limited Time - 400ms,h,32.825342147653195,34.41888369423531,46.59659389983434,40.91776143336942,32.825342147653195,40.91776143336942,34.41888369423531,46.59659389983434,-10,-0.33,0.33,10,35,25,34.67,35.33,45,10,10,10,10
2,16,0.0534819000022253,q,32.9,Limited Time - 400ms,h,32.89696808544659,43.24892445548777,38.67514833797911,41.46392199993809,32.89696808544659,41.46392199993809,43.24892445548777,38.67514833797911,-10,-0.33,0.33,10,35,25,34.67,35.33,45,10,10,10,10
2,17,0.05539380000845995,q,22.3,Limited Time - 400ms,h,22.33179409406631,37.00500878256428,56.380049734385246,35.095068677724356,22.33179409406631,35.095068677724356,37.00500878256428,56.380049734385246,-10,-0.33,0.33,10,35,25,34.67,35.33,45,10,10,10,10
2,18,0.32736989999830257,q,48.6,Limited Time - 400ms,h,48.57889579541434,24.107769292343107,50.30746966562098,30.388465730159147,48.57889579541434,30.388465730159147,24.107769292343107,50.30746966562098,-10,-0.33,0.33,10,35,25,34.67,35.33,45,10,10,10,10
2,19,0.0964036999939708,q,17.8,Limited Time - 400ms,h,17.75656285895088,21.47302749622446,66.35040308788406,26.538390558052157,17.75656285895088,26.538390558052157,21.47302749622446,66.35040308788406,-10,-0.33,0.33,10,35,25,34.67,35.33,45,10,10,10,10
2,20,0.23165770000196062,p,29.3,Limited Time - 400ms,h,19.182040492512396,34.37676336635719,39.609348371888714,29.288814539035542,19.182040492512396,29.288814539035542,34.37676336635719,39.609348371888714,-10,-0.33,0.33,10,35,25,34.67,35.33,45,10,10,10,10
3,1,0.19237649999558926,q,49.3,Limited Time - 800ms,e,49.31226487586743,39.0899839878,32.32748828837861,26.86290346638578,39.0899839878,49.31226487586743,26.86290346638578,32.32748828837861,0,0,0,0,35,35,35,35,35,3.1622776601683795,6.324555320336759,8.366600265340756,10
3,2,0.05406159999256488,o,47.8,Limited Time - 800ms,e,28.611944828555874,36.52811673128544,47.792667249521855,27.365077820682462,36.52811673128544,28.611944828555874,27.365077820682462,47.792667249521855,0,0,0,0,35,35,35,35,35,3.1622776601683795,6.324555320336759,8.366600265340756,10
3,3,0.02461409999523312,p,40.8,Limited Time - 800ms,e,25.55429220884455,35.430791050460485,33.16432895567531,40.78697486877918,35.430791050460485,25.55429220884455,40.78697486877918,33.16432895567531,0,0,0,0,35,35,35,35,35,3.1622776601683795,6.324555320336759,8.366600265340756,10
3,4,0.04104529999312945,q,39.2,Limited Time - 800ms,e,39.2300710639323,31.668867145141153,39.047649308484694,36.53066552970527,31.668867145141153,39.2300710639323,36.53066552970527,39.047649308484694,0,0,0,0,35,35,35,35,35,3.1622776601683795,6.324555320336759,8.366600265340756,10
3,5,0.012735000011161901,o,60.1,Limited Time - 800ms,e,35.45614909177285,34.95738473568181,60.11830080226248,23.821912328887883,34.95738473568181,35.45614909177285,23.821912328887883,60.11830080226248,0,0,0,0,35,35,35,35,35,3.1622776601683795,6.324555320336759,8.366600265340756,10
3,6,0.05077859999437351,p,20.7,Limited Time - 800ms,e,42.50311664752735,37.255896750799636,46.29217426592683,20.670819354417052,37.255896750799636,42.50311664752735,20.670819354417052,46.29217426592683,0,0,0,0,35,35,35,35,35,3.1622776601683795,6.324555320336759,8.366600265340756,10
3,7,0.04495510000560898,w,38.5,Limited Time - 800ms,e,30.88120477325711,38.52623284364549,20.714116485396982,37.318518554078466,38.52623284364549,30.88120477325711,37.318518554078466,20.714116485396982,0,0,0,0,35,35,35,35,35,3.1622776601683795,6.324555320336759,8.366600265340756,10
3,8,0.04071010000188835,p,27.7,Limited Time - 800ms,e,16.784623850062623,39.58540868764439,42.54762741641427,27.73969575095785,39.58540868764439,16.784623850062623,27.73969575095785,42.54762741641427,0,0,0,0,35,35,35,35,35,3.1622776601683795,6.324555320336759,8.366600265340756,10
3,9,0.014911799997207709,q,38.0,Limited Time - 800ms,e,37.96672901135511,30.88561486713268,47.212166783770826,21.137235058400506,30.88561486713268,37.96672901135511,21.137235058400506,47.212166783770826,0,0,0,0,35,35,35,35,35,3.1622776601683795,6.324555320336759,8.366600265340756,10
3,10,0.03294370000367053,w,39.8,Limited Time - 800ms,e,32.960779846462614,39.81000202825213,24.917760212504913,14.85218204950278,39.81000202825213,32.960779846462614,14.85218204950278,24.917760212504913,0,0,0,0,35,35,35,35,35,3.1622776601683795,6.324555320336759,8.366600265340756,10
3,11,0.0019145000114804134,w,33.4,Limited Time - 800ms,e,25.81963982058666,33.44396413817164,41.89837946046078,28.95560599215526,33.44396413817164,25.81963982058666,28.95560599215526,41.89837946046078,0,0,0,0,35,35,35,35,35,3.1622776601683795,6.324555320336759,8.366600265340756,10
3,12,0.0022902000055182725,p,37.0,Limited Time - 800ms,e,33.833407807022944,37.03450832773625,24.113369853798886,37.02345535804887,37.03450832773625,33.833407807022944,37.02345535804887,24.113369853798886,0,0,0,0,35,35,35,35,35,3.1622776601683795,6.324555320336759,8.366600265340756,10
3,13,0.11709270000574179,q,43.9,Limited Time - 800ms,e,43.945372860950854,33.16169617979919,50.747242432593836,42.0300275334946,33.16169617979919,43.945372860950854,42.0300275334946,50.747242432593836,0,0,0,0,35,35,35,35,35,3.1622776601683795,6.324555320336759,8.366600265340756,10
3,14,0.0752208000048995,q,34.9,Limited Time - 800ms,e,34.911453138877896,40.058408181456066,30.96080178869841,40.158041739187894,40.058408181456066,34.911453138877896,40.158041739187894,30.96080178869841,0,0,0,0,35,35,35,35,35,3.1622776601683795,6.324555320336759,8.366600265340756,10
3,15,0.035792800001217984,q,34.1,Limited Time - 800ms,e,34.06548121963358,30.03073163466117,51.35968702805743,43.840701631949,30.03073163466117,34.06548121963358,43.840701631949,51.35968702805743,0,0,0,0,35,35,35,35,35,3.1622776601683795,6.324555320336759,8.366600265340756,10
3,16,0.018060799993691035,o,46.3,Limited Time - 800ms,e,39.668526339376626,33.69144670281565,46.252014431455116,37.65621193782098,33.69144670281565,39.668526339376626,37.65621193782098,46.252014431455116,0,0,0,0,35,35,35,35,35,3.1622776601683795,6.324555320336759,8.366600265340756,10
3,17,0.019022799999220297,o,33.2,Limited Time - 800ms,e,29.308916221167284,34.607023261785805,33.17430132186543,32.82589940749471,34.607023261785805,29.308916221167284,32.82589940749471,33.17430132186543,0,0,0,0,35,35,35,35,35,3.1622776601683795,6.324555320336759,8.366600265340756,10
3,18,0.014166199995088391,w,37.3,Limited Time - 800ms,e,38.88952948026304,37.34922600328872,27.66380274702943,27.069947049331695,37.34922600328872,38.88952948026304,27.069947049331695,27.66380274702943,0,0,0,0,35,35,35,35,35,3.1622776601683795,6.324555320336759,8.366600265340756,10
3,19,0.0754672000039136,p,31.9,Limited Time - 800ms,e,41.27869080353284,33.00871112636004,38.4737185413269,31.897441962005995,33.00871112636004,41.27869080353284,31.897441962005995,38.4737185413269,0,0,0,0,35,35,35,35,35,3.1622776601683795,6.324555320336759,8.366600265340756,10
3,20,0.01892230000521522,w,35.3,Limited Time - 800ms,e,35.974834529633526,35.318626992341486,32.62154333643993,38.623325026581405,35.318626992341486,35.974834529633526,38.623325026581405,32.62154333643993,0,0,0,0,35,35,35,35,35,3.1622776601683795,6.324555320336759,8.366600265340756,10
4,1,1.2066450999991503,o,33.7,Unlimited Time,h,26.22055701113338,44.14410023905547,33.68564418256859,31.360063299124562,33.68564418256859,26.22055701113338,31.360063299124562,44.14410023905547,-10,-0.33,0.33,10,35,25,34.67,35.33,45,10,10,10,10
4,2,0.16795359998650383,q,46.2,Unlimited Time,h,46.20594288583726,49.266509042333546,16.65648694782417,25.01086773686652,16.65648694782417,46.20594288583726,25.01086773686652,49.266509042333546,-10,-0.33,0.33,10,35,25,34.67,35.33,45,10,10,10,10
4,3,0.10989569999219384,w,51.3,Unlimited Time,h,47.55203653752739,51.3444370103361,53.442003757237885,40.90058189036732,53.442003757237885,47.55203653752739,40.90058189036732,51.3444370103361,-10,-0.33,0.33,10,35,25,34.67,35.33,45,10,10,10,10
4,4,0.12406050000572577,q,38.5,Unlimited Time,h,38.516738068778395,30.09891239541177,6.446527253279424,30.33749856397543,6.446527253279424,38.516738068778395,30.33749856397543,30.09891239541177,-10,-0.33,0.33,10,35,25,34.67,35.33,45,10,10,10,10
4,5,0.06272450000687968,o,17.6,Unlimited Time,h,13.368410625976601,52.12607212613416,17.55830260703301,50.097972170552694,17.55830260703301,13.368410625976601,50.097972170552694,52.12607212613416,-10,-0.33,0.33,10,35,25,34.67,35.33,45,10,10,10,10
4,6,0.03300709999166429,p,44.3,Unlimited Time,h,30.822397819269266,52.38208573193539,18.558508145396395,44.33884355498871,18.558508145396395,30.822397819269266,44.33884355498871,52.38208573193539,-10,-0.33,0.33,10,35,25,34.67,35.33,45,10,10,10,10
4,7,0.07525340000574943,o,29.6,Unlimited Time,h,22.38872496389619,59.19063233301609,29.556320840827098,28.60145902485309,29.556320840827098,22.38872496389619,28.60145902485309,59.19063233301609,-10,-0.33,0.33,10,35,25,34.67,35.33,45,10,10,10,10
4,8,0.034984899990377016,o,30.4,Unlimited Time,h,17.985430101832755,41.02534088630304,30.429922063177962,49.54983867181779,30.429922063177962,17.985430101832755,49.54983867181779,41.02534088630304,-10,-0.33,0.33,10,35,25,34.67,35.33,45,10,10,10,10
4,9,0.028422600007615983,p,37.6,Unlimited Time,h,41.552014789016425,45.862492620940415,14.165209505114982,37.576109383525704,14.165209505114982,41.552014789016425,37.576109383525704,45.862492620940415,-10,-0.33,0.33,10,35,25,34.67,35.33,45,10,10,10,10
4,10,0.14280839999264572,w,33.9,Unlimited Time,h,29.422792517355756,33.91470032504421,19.11972971966266,49.13573099008867,19.11972971966266,29.422792517355756,49.13573099008867,33.91470032504421,-10,-0.33,0.33,10,35,25,34.67,35.33,45,10,10,10,10
4,11,1.2433120999921812,o,20.0,Unlimited Time,h,27.20422700156362,55.55563720343882,20.0253670747703,63.99267794217875,20.0253670747703,27.20422700156362,63.99267794217875,55.55563720343882,-10,-0.33,0.33,10,35,25,34.67,35.33,45,10,10,10,10
4,12,0.46346539999649394,p,27.9,Unlimited Time,h,22.41845828658782,45.522047180280445,21.62706779548656,27.916860821267818,21.62706779548656,22.41845828658782,27.916860821267818,45.522047180280445,-10,-0.33,0.33,10,35,25,34.67,35.33,45,10,10,10,10
4,13,1.1548769999935757,q,51.6,Unlimited Time,h,51.58511098395218,48.979720077036085,6.212376983377254,44.72210826557172,6.212376983377254,51.58511098395218,44.72210826557172,48.979720077036085,-10,-0.33,0.33,10,35,25,34.67,35.33,45,10,10,10,10
4,14,0.23238399998808745,w,57.5,Unlimited Time,h,25.149012563427533,57.45719552859981,29.61923959821879,19.865834849442273,29.61923959821879,25.149012563427533,19.865834849442273,57.45719552859981,-10,-0.33,0.33,10,35,25,34.67,35.33,45,10,10,10,10
4,15,0.3973127000062959,w,46.6,Unlimited Time,h,40.91776143336942,46.59659389983434,32.825342147653195,34.41888369423531,32.825342147653195,40.91776143336942,34.41888369423531,46.59659389983434,-10,-0.33,0.33,10,35,25,34.67,35.33,45,10,10,10,10
4,16,0.3110496000008425,q,41.5,Unlimited Time,h,41.46392199993809,38.67514833797911,32.89696808544659,43.24892445548777,32.89696808544659,41.46392199993809,43.24892445548777,38.67514833797911,-10,-0.33,0.33,10,35,25,34.67,35.33,45,10,10,10,10
4,17,0.05753530000220053,w,56.4,Unlimited Time,h,35.095068677724356,56.380049734385246,22.33179409406631,37.00500878256428,22.33179409406631,35.095068677724356,37.00500878256428,56.380049734385246,-10,-0.33,0.33,10,35,25,34.67,35.33,45,10,10,10,10
4,18,0.08039289999578614,w,50.3,Unlimited Time,h,30.388465730159147,50.30746966562098,48.57889579541434,24.107769292343107,48.57889579541434,30.388465730159147,24.107769292343107,50.30746966562098,-10,-0.33,0.33,10,35,25,34.67,35.33,45,10,10,10,10
4,19,0.18101190000015777,w,66.4,Unlimited Time,h,26.538390558052157,66.35040308788406,17.75656285895088,21.47302749622446,17.75656285895088,26.538390558052157,21.47302749622446,66.35040308788406,-10,-0.33,0.33,10,35,25,34.67,35.33,45,10,10,10,10
4,20,0.015512500001932494,q,29.3,Unlimited Time,h,29.288814539035542,39.609348371888714,19.182040492512396,34.37676336635719,19.182040492512396,29.288814539035542,34.37676336635719,39.609348371888714,-10,-0.33,0.33,10,35,25,34.67,35.33,45,10,10,10,10
5,1,0.2944662000081735,o,42.8,Limited Time - 400ms,l,37.37766339543997,19.993050223662863,42.8093605674091,31.77129373644508,19.993050223662863,31.77129373644508,37.37766339543997,42.8093605674091,-10,-0.33,0.33,10,35,25,34.67,35.33,45,3.1622776601683795,3.1622776601683795,3.1622776601683795,3.1622776601683795
5,2,0.010361200009356253,p,34.9,Limited Time - 400ms,l,37.6993751238373,19.838877305966406,45.57457596579351,34.87284183886786,19.838877305966406,34.87284183886786,37.6993751238373,45.57457596579351,-10,-0.33,0.33,10,35,25,34.67,35.33,45,3.1622776601683795,3.1622776601683795,3.1622776601683795,3.1622776601683795
5,3,0.13562570000067353,o,44.5,Limited Time - 400ms,l,30.046843195738518,25.52898627933699,44.511193269120945,36.71403695401947,25.52898627933699,36.71403695401947,30.046843195738518,44.511193269120945,-10,-0.33,0.33,10,35,25,34.67,35.33,45,3.1622776601683795,3.1622776601683795,3.1622776601683795,3.1622776601683795
5,4,0.054077099994174205,o,40.9,Limited Time - 400ms,l,34.438467249739574,20.010535129997354,40.87731668110825,34.96229486160114,20.010535129997354,34.96229486160114,34.438467249739574,40.87731668110825,-10,-0.33,0.33,10,35,25,34.67,35.33,45,3.1622776601683795,3.1622776601683795,3.1622776601683795,3.1622776601683795
5,5,0.013665799997397698,o,37.9,Limited Time - 400ms,l,31.014064678417952,21.977271374157322,37.91674323471243,36.40204287231966,21.977271374157322,36.40204287231966,31.014064678417952,37.91674323471243,-10,-0.33,0.33,10,35,25,34.67,35.33,45,3.1622776601683795,3.1622776601683795,3.1622776601683795,3.1622776601683795
5,6,0.022865799997816794,p,33.2,Limited Time - 400ms,l,35.85714807837417,18.603691965030233,47.25004727026228,33.1717176467045,18.603691965030233,33.1717176467045,35.85714807837417,47.25004727026228,-10,-0.33,0.33,10,35,25,34.67,35.33,45,3.1622776601683795,3.1622776601683795,3.1622776601683795,3.1622776601683795
5,7,0.09469749999698251,o,43.4,Limited Time - 400ms,l,36.551595691588794,22.455780755763538,43.42369482542478,34.626211843803965,22.455780755763538,34.626211843803965,36.551595691588794,43.42369482542478,-10,-0.33,0.33,10,35,25,34.67,35.33,45,3.1622776601683795,3.1622776601683795,3.1622776601683795,3.1622776601683795
5,8,0.06613469999865629,o,47.1,Limited Time - 400ms,l,38.13546786693016,16.932974055580594,47.05546767032031,33.175020122575845,16.932974055580594,33.175020122575845,38.13546786693016,47.05546767032031,-10,-0.33,0.33,10,35,25,34.67,35.33,45,3.1622776601683795,3.1622776601683795,3.1622776601683795,3.1622776601683795
5,9,0.038882599998032674,p,30.1,Limited Time - 400ms,l,43.319204390995324,23.671551880983582,47.371523020863954,30.13327372377267,23.671551880983582,30.13327372377267,43.319204390995324,47.371523020863954,-10,-0.33,0.33,10,35,25,34.67,35.33,45,3.1622776601683795,3.1622776601683795,3.1622776601683795,3.1622776601683795
5,10,0.03871829999843612,p,36.8,Limited Time - 400ms,l,34.08660414610205,25.661056742685357,44.272507913165214,36.83087379529397,25.661056742685357,36.83087379529397,34.08660414610205,44.272507913165214,-10,-0.33,0.33,10,35,25,34.67,35.33,45,3.1622776601683795,3.1622776601683795,3.1622776601683795,3.1622776601683795
5,11,0.094673799991142,w,20.4,Limited Time - 400ms,l,34.63581831940331,20.447097440589612,51.30684261868472,33.00590219211623,20.447097440589612,33.00590219211623,34.63581831940331,51.30684261868472,-10,-0.33,0.33,10,35,25,34.67,35.33,45,3.1622776601683795,3.1622776601683795,3.1622776601683795,3.1622776601683795
5,12,0.04075050000392366,o,44.4,Limited Time - 400ms,l,34.984896051479,27.05917990174444,44.42495445086859,35.122476319014076,27.05917990174444,35.122476319014076,34.984896051479,44.42495445086859,-10,-0.33,0.33,10,35,25,34.67,35.33,45,3.1622776601683795,3.1622776601683795,3.1622776601683795,3.1622776601683795
5,13,0.04368590000376571,w,25.5,Limited Time - 400ms,l,32.717738027883726,25.47224477150098,48.58096919260094,33.18439776128613,25.47224477150098,33.18439776128613,32.717738027883726,48.58096919260094,-10,-0.33,0.33,10,35,25,34.67,35.33,45,3.1622776601683795,3.1622776601683795,3.1622776601683795,3.1622776601683795
5,14,0.0469059000024572,w,23.8,Limited Time - 400ms,l,29.84620672137335,23.795911448582135,50.826406528331006,36.953476549880975,23.795911448582135,36.953476549880975,29.84620672137335,50.826406528331006,-10,-0.33,0.33,10,35,25,34.67,35.33,45,3.1622776601683795,3.1622776601683795,3.1622776601683795,3.1622776601683795
5,15,0.019761599993216805,q,36.2,Limited Time - 400ms,l,36.179333095260965,23.975239187230496,40.062827587273105,36.82529585666783,23.975239187230496,36.82529585666783,36.179333095260965,40.062827587273105,-10,-0.33,0.33,10,35,25,34.67,35.33,45,3.1622776601683795,3.1622776601683795,3.1622776601683795,3.1622776601683795
5,16,0.034916100004920736,p,41.4,Limited Time - 400ms,l,37.944191968054554,22.70466954504096,46.11031129977527,41.38342595952511,22.70466954504096,41.38342595952511,37.944191968054554,46.11031129977527,-10,-0.33,0.33,10,35,25,34.67,35.33,45,3.1622776601683795,3.1622776601683795,3.1622776601683795,3.1622776601683795
5,17,0.05243500000506174,w,28.5,Limited Time - 400ms,l,34.64519752005116,28.516358886766096,47.51860145148918,37.45545158225673,28.516358886766096,37.45545158225673,34.64519752005116,47.51860145148918,-10,-0.33,0.33,10,35,25,34.67,35.33,45,3.1622776601683795,3.1622776601683795,3.1622776601683795,3.1622776601683795
5,18,0.12866709999798331,q,33.6,Limited Time - 400ms,l,33.62533563860212,25.003274760752547,43.74256260709739,34.896323065017256,25.003274760752547,34.896323065017256,33.62533563860212,43.74256260709739,-10,-0.33,0.33,10,35,25,34.67,35.33,45,3.1622776601683795,3.1622776601683795,3.1622776601683795,3.1622776601683795
5,19,0.01065060000109952,w,30.1,Limited Time - 400ms,l,29.806350203801927,30.07124419008224,41.70567360033144,35.466814329583414,30.07124419008224,35.466814329583414,29.806350203801927,41.70567360033144,-10,-0.33,0.33,10,35,25,34.67,35.33,45,3.1622776601683795,3.1622776601683795,3.1622776601683795,3.1622776601683795
5,20,0.00199350000184495,w,21.0,Limited Time - 400ms,l,41.09635234569859,20.96763609818578,45.42055649735958,33.902737953685005,20.96763609818578,33.902737953685005,41.09635234569859,45.42055649735958,-10,-0.33,0.33,10,35,25,34.67,35.33,45,3.1622776601683795,3.1622776601683795,3.1622776601683795,3.1622776601683795
6,1,0.5437509000039427,q,37.4,Limited Time - 800ms,l,37.37766339543997,31.77129373644508,19.993050223662863,42.8093605674091,19.993050223662863,31.77129373644508,37.37766339543997,42.8093605674091,-10,-0.33,0.33,10,35,25,34.67,35.33,45,3.1622776601683795,3.1622776601683795,3.1622776601683795,3.1622776601683795
6,2,0.004800299997441471,o,19.8,Limited Time - 800ms,l,37.6993751238373,34.87284183886786,19.838877305966406,45.57457596579351,19.838877305966406,34.87284183886786,37.6993751238373,45.57457596579351,-10,-0.33,0.33,10,35,25,34.67,35.33,45,3.1622776601683795,3.1622776601683795,3.1622776601683795,3.1622776601683795
6,3,0.12663059998885728,q,30.0,Limited Time - 800ms,l,30.046843195738518,36.71403695401947,25.52898627933699,44.511193269120945,25.52898627933699,36.71403695401947,30.046843195738518,44.511193269120945,-10,-0.33,0.33,10,35,25,34.67,35.33,45,3.1622776601683795,3.1622776601683795,3.1622776601683795,3.1622776601683795
6,4,0.0952638000017032,q,34.4,Limited Time - 800ms,l,34.438467249739574,34.96229486160114,20.010535129997354,40.87731668110825,20.010535129997354,34.96229486160114,34.438467249739574,40.87731668110825,-10,-0.33,0.33,10,35,25,34.67,35.33,45,3.1622776601683795,3.1622776601683795,3.1622776601683795,3.1622776601683795
6,5,0.07683079999696929,q,31.0,Limited Time - 800ms,l,31.014064678417952,36.40204287231966,21.977271374157322,37.91674323471243,21.977271374157322,36.40204287231966,31.014064678417952,37.91674323471243,-10,-0.33,0.33,10,35,25,34.67,35.33,45,3.1622776601683795,3.1622776601683795,3.1622776601683795,3.1622776601683795
6,6,0.04544129999703728,q,35.9,Limited Time - 800ms,l,35.85714807837417,33.1717176467045,18.603691965030233,47.25004727026228,18.603691965030233,33.1717176467045,35.85714807837417,47.25004727026228,-10,-0.33,0.33,10,35,25,34.67,35.33,45,3.1622776601683795,3.1622776601683795,3.1622776601683795,3.1622776601683795
6,7,0.01252780000504572,q,36.6,Limited Time - 800ms,l,36.551595691588794,34.626211843803965,22.455780755763538,43.42369482542478,22.455780755763538,34.626211843803965,36.551595691588794,43.42369482542478,-10,-0.33,0.33,10,35,25,34.67,35.33,45,3.1622776601683795,3.1622776601683795,3.1622776601683795,3.1622776601683795
6,8,0.046813599998131394,q,38.1,Limited Time - 800ms,l,38.13546786693016,33.175020122575845,16.932974055580594,47.05546767032031,16.932974055580594,33.175020122575845,38.13546786693016,47.05546767032031,-10,-0.33,0.33,10,35,25,34.67,35.33,45,3.1622776601683795,3.1622776601683795,3.1622776601683795,3.1622776601683795
6,9,0.17775740000070073,w,30.1,Limited Time - 800ms,l,43.319204390995324,30.13327372377267,23.671551880983582,47.371523020863954,23.671551880983582,30.13327372377267,43.319204390995324,47.371523020863954,-10,-0.33,0.33,10,35,25,34.67,35.33,45,3.1622776601683795,3.1622776601683795,3.1622776601683795,3.1622776601683795
6,10,0.1770752000011271,w,36.8,Limited Time - 800ms,l,34.08660414610205,36.83087379529397,25.661056742685357,44.272507913165214,25.661056742685357,36.83087379529397,34.08660414610205,44.272507913165214,-10,-0.33,0.33,10,35,25,34.67,35.33,45,3.1622776601683795,3.1622776601683795,3.1622776601683795,3.1622776601683795
6,11,0.10531579999951646,w,33.0,Limited Time - 800ms,l,34.63581831940331,33.00590219211623,20.447097440589612,51.30684261868472,20.447097440589612,33.00590219211623,34.63581831940331,51.30684261868472,-10,-0.33,0.33,10,35,25,34.67,35.33,45,3.1622776601683795,3.1622776601683795,3.1622776601683795,3.1622776601683795
6,12,0.06586770000285469,w,35.1,Limited Time - 800ms,l,34.984896051479,35.122476319014076,27.05917990174444,44.42495445086859,27.05917990174444,35.122476319014076,34.984896051479,44.42495445086859,-10,-0.33,0.33,10,35,25,34.67,35.33,45,3.1622776601683795,3.1622776601683795,3.1622776601683795,3.1622776601683795
6,13,0.05027190000691917,w,33.2,Limited Time - 800ms,l,32.717738027883726,33.18439776128613,25.47224477150098,48.58096919260094,25.47224477150098,33.18439776128613,32.717738027883726,48.58096919260094,-10,-0.33,0.33,10,35,25,34.67,35.33,45,3.1622776601683795,3.1622776601683795,3.1622776601683795,3.1622776601683795
6,14,0.07051510000019334,w,37.0,Limited Time - 800ms,l,29.84620672137335,36.953476549880975,23.795911448582135,50.826406528331006,23.795911448582135,36.953476549880975,29.84620672137335,50.826406528331006,-10,-0.33,0.33,10,35,25,34.67,35.33,45,3.1622776601683795,3.1622776601683795,3.1622776601683795,3.1622776601683795
6,15,0.03352770001220051,w,36.8,Limited Time - 800ms,l,36.179333095260965,36.82529585666783,23.975239187230496,40.062827587273105,23.975239187230496,36.82529585666783,36.179333095260965,40.062827587273105,-10,-0.33,0.33,10,35,25,34.67,35.33,45,3.1622776601683795,3.1622776601683795,3.1622776601683795,3.1622776601683795
6,16,0.04097560000082012,w,41.4,Limited Time - 800ms,l,37.944191968054554,41.38342595952511,22.70466954504096,46.11031129977527,22.70466954504096,41.38342595952511,37.944191968054554,46.11031129977527,-10,-0.33,0.33,10,35,25,34.67,35.33,45,3.1622776601683795,3.1622776601683795,3.1622776601683795,3.1622776601683795
6,17,0.022631799991359003,q,34.6,Limited Time - 800ms,l,34.64519752005116,37.45545158225673,28.516358886766096,47.51860145148918,28.516358886766096,37.45545158225673,34.64519752005116,47.51860145148918,-10,-0.33,0.33,10,35,25,34.67,35.33,45,3.1622776601683795,3.1622776601683795,3.1622776601683795,3.1622776601683795
6,18,0.022016100003384054,w,34.9,Limited Time - 800ms,l,33.62533563860212,34.896323065017256,25.003274760752547,43.74256260709739,25.003274760752547,34.896323065017256,33.62533563860212,43.74256260709739,-10,-0.33,0.33,10,35,25,34.67,35.33,45,3.1622776601683795,3.1622776601683795,3.1622776601683795,3.1622776601683795
6,19,0.1071838000061689,q,29.8,Limited Time - 800ms,l,29.806350203801927,35.466814329583414,30.07124419008224,41.70567360033144,30.07124419008224,35.466814329583414,29.806350203801927,41.70567360033144,-10,-0.33,0.33,10,35,25,34.67,35.33,45,3.1622776601683795,3.1622776601683795,3.1622776601683795,3.1622776601683795
6,20,0.014892099992721342,w,33.9,Limited Time - 800ms,l,41.09635234569859,33.902737953685005,20.96763609818578,45.42055649735958,20.96763609818578,33.902737953685005,41.09635234569859,45.42055649735958,-10,-0.33,0.33,10,35,25,34.67,35.33,45,3.1622776601683795,3.1622776601683795,3.1622776601683795,3.1622776601683795
7,1,0.23369420001108665,q,20.0,Unlimited Time,l,19.993050223662863,42.8093605674091,37.37766339543997,31.77129373644508,19.993050223662863,31.77129373644508,37.37766339543997,42.8093605674091,-10,-0.33,0.33,10,35,25,34.67,35.33,45,3.1622776601683795,3.1622776601683795,3.1622776601683795,3.1622776601683795
7,2,0.009049799991771579,p,34.9,Unlimited Time,l,19.838877305966406,45.57457596579351,37.6993751238373,34.87284183886786,19.838877305966406,34.87284183886786,37.6993751238373,45.57457596579351,-10,-0.33,0.33,10,35,25,34.67,35.33,45,3.1622776601683795,3.1622776601683795,3.1622776601683795,3.1622776601683795
7,3,0.008360199994058348,w,44.5,Unlimited Time,l,25.52898627933699,44.511193269120945,30.046843195738518,36.71403695401947,25.52898627933699,36.71403695401947,30.046843195738518,44.511193269120945,-10,-0.33,0.33,10,35,25,34.67,35.33,45,3.1622776601683795,3.1622776601683795,3.1622776601683795,3.1622776601683795
7,4,0.07351389998802915,q,20.0,Unlimited Time,l,20.010535129997354,40.87731668110825,34.438467249739574,34.96229486160114,20.010535129997354,34.96229486160114,34.438467249739574,40.87731668110825,-10,-0.33,0.33,10,35,25,34.67,35.33,45,3.1622776601683795,3.1622776601683795,3.1622776601683795,3.1622776601683795
7,5,0.07532410000567324,q,22.0,Unlimited Time,l,21.977271374157322,37.91674323471243,31.014064678417952,36.40204287231966,21.977271374157322,36.40204287231966,31.014064678417952,37.91674323471243,-10,-0.33,0.33,10,35,25,34.67,35.33,45,3.1622776601683795,3.1622776601683795,3.1622776601683795,3.1622776601683795
7,6,0.026836399993044324,o,35.9,Unlimited Time,l,18.603691965030233,47.25004727026228,35.85714807837417,33.1717176467045,18.603691965030233,33.1717176467045,35.85714807837417,47.25004727026228,-10,-0.33,0.33,10,35,25,34.67,35.33,45,3.1622776601683795,3.1622776601683795,3.1622776601683795,3.1622776601683795
7,7,0.1465304000012111,w,43.4,Unlimited Time,l,22.455780755763538,43.42369482542478,36.551595691588794,34.626211843803965,22.455780755763538,34.626211843803965,36.551595691588794,43.42369482542478,-10,-0.33,0.33,10,35,25,34.67,35.33,45,3.1622776601683795,3.1622776601683795,3.1622776601683795,3.1622776601683795
7,8,0.10009590000845492,p,33.2,Unlimited Time,l,16.932974055580594,47.05546767032031,38.13546786693016,33.175020122575845,16.932974055580594,33.175020122575845,38.13546786693016,47.05546767032031,-10,-0.33,0.33,10,35,25,34.67,35.33,45,3.1622776601683795,3.1622776601683795,3.1622776601683795,3.1622776601683795
7,9,0.14248130000487436,q,23.7,Unlimited Time,l,23.671551880983582,47.371523020863954,43.319204390995324,30.13327372377267,23.671551880983582,30.13327372377267,43.319204390995324,47.371523020863954,-10,-0.33,0.33,10,35,25,34.67,35.33,45,3.1622776601683795,3.1622776601683795,3.1622776601683795,3.1622776601683795
7,10,0.02389759999641683,q,25.7,Unlimited Time,l,25.661056742685357,44.272507913165214,34.08660414610205,36.83087379529397,25.661056742685357,36.83087379529397,34.08660414610205,44.272507913165214,-10,-0.33,0.33,10,35,25,34.67,35.33,45,3.1622776601683795,3.1622776601683795,3.1622776601683795,3.1622776601683795
7,11,0.07804770000802819,w,51.3,Unlimited Time,l,20.447097440589612,51.30684261868472,34.63581831940331,33.00590219211623,20.447097440589612,33.00590219211623,34.63581831940331,51.30684261868472,-10,-0.33,0.33,10,35,25,34.67,35.33,45,3.1622776601683795,3.1622776601683795,3.1622776601683795,3.1622776601683795
7,12,0.07931539999844972,w,44.4,Unlimited Time,l,27.05917990174444,44.42495445086859,34.984896051479,35.122476319014076,27.05917990174444,35.122476319014076,34.984896051479,44.42495445086859,-10,-0.33,0.33,10,35,25,34.67,35.33,45,3.1622776601683795,3.1622776601683795,3.1622776601683795,3.1622776601683795
7,13,0.14250199998787139,q,25.5,Unlimited Time,l,25.47224477150098,48.58096919260094,32.717738027883726,33.18439776128613,25.47224477150098,33.18439776128613,32.717738027883726,48.58096919260094,-10,-0.33,0.33,10,35,25,34.67,35.33,45,3.1622776601683795,3.1622776601683795,3.1622776601683795,3.1622776601683795
7,14,0.1624701999971876,o,29.8,Unlimited Time,l,23.795911448582135,50.826406528331006,29.84620672137335,36.953476549880975,23.795911448582135,36.953476549880975,29.84620672137335,50.826406528331006,-10,-0.33,0.33,10,35,25,34.67,35.33,45,3.1622776601683795,3.1622776601683795,3.1622776601683795,3.1622776601683795
7,15,0.003569799999240786,o,36.2,Unlimited Time,l,23.975239187230496,40.062827587273105,36.179333095260965,36.82529585666783,23.975239187230496,36.82529585666783,36.179333095260965,40.062827587273105,-10,-0.33,0.33,10,35,25,34.67,35.33,45,3.1622776601683795,3.1622776601683795,3.1622776601683795,3.1622776601683795
7,16,0.051291800002218224,o,37.9,Unlimited Time,l,22.70466954504096,46.11031129977527,37.944191968054554,41.38342595952511,22.70466954504096,41.38342595952511,37.944191968054554,46.11031129977527,-10,-0.33,0.33,10,35,25,34.67,35.33,45,3.1622776601683795,3.1622776601683795,3.1622776601683795,3.1622776601683795
7,17,0.15816599999379832,q,28.5,Unlimited Time,l,28.516358886766096,47.51860145148918,34.64519752005116,37.45545158225673,28.516358886766096,37.45545158225673,34.64519752005116,47.51860145148918,-10,-0.33,0.33,10,35,25,34.67,35.33,45,3.1622776601683795,3.1622776601683795,3.1622776601683795,3.1622776601683795
7,18,0.019210699989343993,q,25.0,Unlimited Time,l,25.003274760752547,43.74256260709739,33.62533563860212,34.896323065017256,25.003274760752547,34.896323065017256,33.62533563860212,43.74256260709739,-10,-0.33,0.33,10,35,25,34.67,35.33,45,3.1622776601683795,3.1622776601683795,3.1622776601683795,3.1622776601683795
7,19,0.03081660000316333,w,41.7,Unlimited Time,l,30.07124419008224,41.70567360033144,29.806350203801927,35.466814329583414,30.07124419008224,35.466814329583414,29.806350203801927,41.70567360033144,-10,-0.33,0.33,10,35,25,34.67,35.33,45,3.1622776601683795,3.1622776601683795,3.1622776601683795,3.1622776601683795
7,20,0.04572389999520965,w,45.4,Unlimited Time,l,20.96763609818578,45.42055649735958,41.09635234569859,33.902737953685005,20.96763609818578,33.902737953685005,41.09635234569859,45.42055649735958,-10,-0.33,0.33,10,35,25,34.67,35.33,45,3.1622776601683795,3.1622776601683795,3.1622776601683795,3.1622776601683795
8,1,0.3510727999964729,q,39.1,Limited Time - 400ms,e,39.0899839878,49.31226487586743,26.86290346638578,32.32748828837861,39.0899839878,49.31226487586743,26.86290346638578,32.32748828837861,0,0,0,0,35,35,35,35,35,3.1622776601683795,6.324555320336759,8.366600265340756,10
8,2,0.01767469999322202,q,36.5,Limited Time - 400ms,e,36.52811673128544,28.611944828555874,27.365077820682462,47.792667249521855,36.52811673128544,28.611944828555874,27.365077820682462,47.792667249521855,0,0,0,0,35,35,35,35,35,3.1622776601683795,6.324555320336759,8.366600265340756,10
8,3,0.08019989999593236,q,35.4,Limited Time - 400ms,e,35.430791050460485,25.55429220884455,40.78697486877918,33.16432895567531,35.430791050460485,25.55429220884455,40.78697486877918,33.16432895567531,0,0,0,0,35,35,35,35,35,3.1622776601683795,6.324555320336759,8.366600265340756,10
8,4,0.023298999993130565,w,39.2,Limited Time - 400ms,e,31.668867145141153,39.2300710639323,36.53066552970527,39.047649308484694,31.668867145141153,39.2300710639323,36.53066552970527,39.047649308484694,0,0,0,0,35,35,35,35,35,3.1622776601683795,6.324555320336759,8.366600265340756,10
8,5,0.10867029998917133,w,35.5,Limited Time - 400ms,e,34.95738473568181,35.45614909177285,23.821912328887883,60.11830080226248,34.95738473568181,35.45614909177285,23.821912328887883,60.11830080226248,0,0,0,0,35,35,35,35,35,3.1622776601683795,6.324555320336759,8.366600265340756,10
8,6,0.06551700001000427,q,37.3,Limited Time - 400ms,e,37.255896750799636,42.50311664752735,20.670819354417052,46.29217426592683,37.255896750799636,42.50311664752735,20.670819354417052,46.29217426592683,0,0,0,0,35,35,35,35,35,3.1622776601683795,6.324555320336759,8.366600265340756,10
8,7,0.06318949999695178,w,30.9,Limited Time - 400ms,e,38.52623284364549,30.88120477325711,37.318518554078466,20.714116485396982,38.52623284364549,30.88120477325711,37.318518554078466,20.714116485396982,0,0,0,0,35,35,35,35,35,3.1622776601683795,6.324555320336759,8.366600265340756,10
8,8,0.03423109999857843,w,16.8,Limited Time - 400ms,e,39.58540868764439,16.784623850062623,27.73969575095785,42.54762741641427,39.58540868764439,16.784623850062623,27.73969575095785,42.54762741641427,0,0,0,0,35,35,35,35,35,3.1622776601683795,6.324555320336759,8.366600265340756,10
8,9,0.005829200003063306,o,21.1,Limited Time - 400ms,e,30.88561486713268,37.96672901135511,21.137235058400506,47.212166783770826,30.88561486713268,37.96672901135511,21.137235058400506,47.212166783770826,0,0,0,0,35,35,35,35,35,3.1622776601683795,6.324555320336759,8.366600265340756,10
8,10,0.05978690000483766,q,39.8,Limited Time - 400ms,e,39.81000202825213,32.960779846462614,14.85218204950278,24.917760212504913,39.81000202825213,32.960779846462614,14.85218204950278,24.917760212504913,0,0,0,0,35,35,35,35,35,3.1622776601683795,6.324555320336759,8.366600265340756,10
8,11,0.1458923999889521,w,25.8,Limited Time - 400ms,e,33.44396413817164,25.81963982058666,28.95560599215526,41.89837946046078,33.44396413817164,25.81963982058666,28.95560599215526,41.89837946046078,0,0,0,0,35,35,35,35,35,3.1622776601683795,6.324555320336759,8.366600265340756,10
8,12,0.04560539999511093,w,33.8,Limited Time - 400ms,e,37.03450832773625,33.833407807022944,37.02345535804887,24.113369853798886,37.03450832773625,33.833407807022944,37.02345535804887,24.113369853798886,0,0,0,0,35,35,35,35,35,3.1622776601683795,6.324555320336759,8.366600265340756,10
8,13,0.001203199994051829,q,33.2,Limited Time - 400ms,e,33.16169617979919,43.945372860950854,42.0300275334946,50.747242432593836,33.16169617979919,43.945372860950854,42.0300275334946,50.747242432593836,0,0,0,0,35,35,35,35,35,3.1622776601683795,6.324555320336759,8.366600265340756,10
8,14,0.012631999998120591,p,31.0,Limited Time - 400ms,e,40.058408181456066,34.911453138877896,40.158041739187894,30.96080178869841,40.058408181456066,34.911453138877896,40.158041739187894,30.96080178869841,0,0,0,0,35,35,35,35,35,3.1622776601683795,6.324555320336759,8.366600265340756,10
8,15,0.027545900011318736,w,34.1,Limited Time - 400ms,e,30.03073163466117,34.06548121963358,43.840701631949,51.35968702805743,30.03073163466117,34.06548121963358,43.840701631949,51.35968702805743,0,0,0,0,35,35,35,35,35,3.1622776601683795,6.324555320336759,8.366600265340756,10
8,16,0.04090380000707228,q,33.7,Limited Time - 400ms,e,33.69144670281565,39.668526339376626,37.65621193782098,46.252014431455116,33.69144670281565,39.668526339376626,37.65621193782098,46.252014431455116,0,0,0,0,35,35,35,35,35,3.1622776601683795,6.324555320336759,8.366600265340756,10
8,17,0.08503940000082366,p,33.2,Limited Time - 400ms,e,34.607023261785805,29.308916221167284,32.82589940749471,33.17430132186543,34.607023261785805,29.308916221167284,32.82589940749471,33.17430132186543,0,0,0,0,35,35,35,35,35,3.1622776601683795,6.324555320336759,8.366600265340756,10
8,18,0.07895939999434631,q,37.3,Limited Time - 400ms,e,37.34922600328872,38.88952948026304,27.069947049331695,27.66380274702943,37.34922600328872,38.88952948026304,27.069947049331695,27.66380274702943,0,0,0,0,35,35,35,35,35,3.1622776601683795,6.324555320336759,8.366600265340756,10
8,19,0.053002300002845004,q,33.0,Limited Time - 400ms,e,33.00871112636004,41.27869080353284,31.897441962005995,38.4737185413269,33.00871112636004,41.27869080353284,31.897441962005995,38.4737185413269,0,0,0,0,35,35,35,35,35,3.1622776601683795,6.324555320336759,8.366600265340756,10
8,20,0.06406390000483952,w,36.0,Limited Time - 400ms,e,35.318626992341486,35.974834529633526,38.623325026581405,32.62154333643993,35.318626992341486,35.974834529633526,38.623325026581405,32.62154333643993,0,0,0,0,35,35,35,35,35,3.1622776601683795,6.324555320336759,8.366600265340756,10
9,1,0.05836690000433009,o,42.8,Limited Time - 800ms,l,37.37766339543997,31.77129373644508,42.8093605674091,19.993050223662863,19.993050223662863,31.77129373644508,37.37766339543997,42.8093605674091,-10,-0.33,0.33,10,35,25,34.67,35.33,45,3.1622776601683795,3.1622776601683795,3.1622776601683795,3.1622776601683795
9,2,0.02321660000598058,q,37.7,Limited Time - 800ms,l,37.6993751238373,34.87284183886786,45.57457596579351,19.838877305966406,19.838877305966406,34.87284183886786,37.6993751238373,45.57457596579351,-10,-0.33,0.33,10,35,25,34.67,35.33,45,3.1622776601683795,3.1622776601683795,3.1622776601683795,3.1622776601683795
9,3,0.01695389999076724,o,44.5,Limited Time - 800ms,l,30.046843195738518,36.71403695401947,44.511193269120945,25.52898627933699,25.52898627933699,36.71403695401947,30.046843195738518,44.511193269120945,-10,-0.33,0.33,10,35,25,34.67,35.33,45,3.1622776601683795,3.1622776601683795,3.1622776601683795,3.1622776601683795
9,4,0.030364399994141422,w,35.0,Limited Time - 800ms,l,34.438467249739574,34.96229486160114,40.87731668110825,20.010535129997354,20.010535129997354,34.96229486160114,34.438467249739574,40.87731668110825,-10,-0.33,0.33,10,35,25,34.67,35.33,45,3.1622776601683795,3.1622776601683795,3.1622776601683795,3.1622776601683795
9,5,0.062263700005132705,w,36.4,Limited Time - 800ms,l,31.014064678417952,36.40204287231966,37.91674323471243,21.977271374157322,21.977271374157322,36.40204287231966,31.014064678417952,37.91674323471243,-10,-0.33,0.33,10,35,25,34.67,35.33,45,3.1622776601683795,3.1622776601683795,3.1622776601683795,3.1622776601683795
9,6,0.03821460000472143,q,35.9,Limited Time - 800ms,l,35.85714807837417,33.1717176467045,47.25004727026228,18.603691965030233,18.603691965030233,33.1717176467045,35.85714807837417,47.25004727026228,-10,-0.33,0.33,10,35,25,34.67,35.33,45,3.1622776601683795,3.1622776601683795,3.1622776601683795,3.1622776601683795
9,7,0.012257499998668209,q,36.6,Limited Time - 800ms,l,36.551595691588794,34.626211843803965,43.42369482542478,22.455780755763538,22.455780755763538,34.626211843803965,36.551595691588794,43.42369482542478,-10,-0.33,0.33,10,35,25,34.67,35.33,45,3.1622776601683795,3.1622776601683795,3.1622776601683795,3.1622776601683795
9,8,0.051909699992393143,w,33.2,Limited Time - 800ms,l,38.13546786693016,33.175020122575845,47.05546767032031,16.932974055580594,16.932974055580594,33.175020122575845,38.13546786693016,47.05546767032031,-10,-0.33,0.33,10,35,25,34.67,35.33,45,3.1622776601683795,3.1622776601683795,3.1622776601683795,3.1622776601683795
9,9,0.035313400003360584,w,30.1,Limited Time - 800ms,l,43.319204390995324,30.13327372377267,47.371523020863954,23.671551880983582,23.671551880983582,30.13327372377267,43.319204390995324,47.371523020863954,-10,-0.33,0.33,10,35,25,34.67,35.33,45,3.1622776601683795,3.1622776601683795,3.1622776601683795,3.1622776601683795
9,10,0.04022560000885278,w,36.8,Limited Time - 800ms,l,34.08660414610205,36.83087379529397,44.272507913165214,25.661056742685357,25.661056742685357,36.83087379529397,34.08660414610205,44.272507913165214,-10,-0.33,0.33,10,35,25,34.67,35.33,45,3.1622776601683795,3.1622776601683795,3.1622776601683795,3.1622776601683795
9,11,0.002412299989373423,o,51.3,Limited Time - 800ms,l,34.63581831940331,33.00590219211623,51.30684261868472,20.447097440589612,20.447097440589612,33.00590219211623,34.63581831940331,51.30684261868472,-10,-0.33,0.33,10,35,25,34.67,35.33,45,3.1622776601683795,3.1622776601683795,3.1622776601683795,3.1622776601683795
9,12,0.09826509999402333,o,44.4,Limited Time - 800ms,l,34.984896051479,35.122476319014076,44.42495445086859,27.05917990174444,27.05917990174444,35.122476319014076,34.984896051479,44.42495445086859,-10,-0.33,0.33,10,35,25,34.67,35.33,45,3.1622776601683795,3.1622776601683795,3.1622776601683795,3.1622776601683795
9,13,0.15983209999103565,o,48.6,Limited Time - 800ms,l,32.717738027883726,33.18439776128613,48.58096919260094,25.47224477150098,25.47224477150098,33.18439776128613,32.717738027883726,48.58096919260094,-10,-0.33,0.33,10,35,25,34.67,35.33,45,3.1622776601683795,3.1622776601683795,3.1622776601683795,3.1622776601683795
9,14,0.03615820000413805,p,23.8,Limited Time - 800ms,l,29.84620672137335,36.953476549880975,50.826406528331006,23.795911448582135,23.795911448582135,36.953476549880975,29.84620672137335,50.826406528331006,-10,-0.33,0.33,10,35,25,34.67,35.33,45,3.1622776601683795,3.1622776601683795,3.1622776601683795,3.1622776601683795
9,15,0.04659499999252148,q,36.2,Limited Time - 800ms,l,36.179333095260965,36.82529585666783,40.062827587273105,23.975239187230496,23.975239187230496,36.82529585666783,36.179333095260965,40.062827587273105,-10,-0.33,0.33,10,35,25,34.67,35.33,45,3.1622776601683795,3.1622776601683795,3.1622776601683795,3.1622776601683795
9,16,0.04139650000433903,q,37.9,Limited Time - 800ms,l,37.944191968054554,41.38342595952511,46.11031129977527,22.70466954504096,22.70466954504096,41.38342595952511,37.944191968054554,46.11031129977527,-10,-0.33,0.33,10,35,25,34.67,35.33,45,3.1622776601683795,3.1622776601683795,3.1622776601683795,3.1622776601683795
9,17,0.0030218000028980896,o,47.5,Limited Time - 800ms,l,34.64519752005116,37.45545158225673,47.51860145148918,28.516358886766096,28.516358886766096,37.45545158225673,34.64519752005116,47.51860145148918,-10,-0.33,0.33,10,35,25,34.67,35.33,45,3.1622776601683795,3.1622776601683795,3.1622776601683795,3.1622776601683795
9,18,0.0290406999993138,w,34.9,Limited Time - 800ms,l,33.62533563860212,34.896323065017256,43.74256260709739,25.003274760752547,25.003274760752547,34.896323065017256,33.62533563860212,43.74256260709739,-10,-0.33,0.33,10,35,25,34.67,35.33,45,3.1622776601683795,3.1622776601683795,3.1622776601683795,3.1622776601683795
9,19,0.07831159999477677,o,41.7,Limited Time - 800ms,l,29.806350203801927,35.466814329583414,41.70567360033144,30.07124419008224,30.07124419008224,35.466814329583414,29.806350203801927,41.70567360033144,-10,-0.33,0.33,10,35,25,34.67,35.33,45,3.1622776601683795,3.1622776601683795,3.1622776601683795,3.1622776601683795
9,20,0.031043700000736862,p,21.0,Limited Time - 800ms,l,41.09635234569859,33.902737953685005,45.42055649735958,20.96763609818578,20.96763609818578,33.902737953685005,41.09635234569859,45.42055649735958,-10,-0.33,0.33,10,35,25,34.67,35.33,45,3.1622776601683795,3.1622776601683795,3.1622776601683795,3.1622776601683795
10,1,0.09597760000906419,p,32.3,Unlimited Time,e,39.0899839878,49.31226487586743,26.86290346638578,32.32748828837861,39.0899839878,49.31226487586743,26.86290346638578,32.32748828837861,0,0,0,0,35,35,35,35,35,3.1622776601683795,6.324555320336759,8.366600265340756,10
10,2,0.025877300009597093,o,27.4,Unlimited Time,e,36.52811673128544,28.611944828555874,27.365077820682462,47.792667249521855,36.52811673128544,28.611944828555874,27.365077820682462,47.792667249521855,0,0,0,0,35,35,35,35,35,3.1622776601683795,6.324555320336759,8.366600265340756,10
10,3,0.012915400002384558,p,33.2,Unlimited Time,e,35.430791050460485,25.55429220884455,40.78697486877918,33.16432895567531,35.430791050460485,25.55429220884455,40.78697486877918,33.16432895567531,0,0,0,0,35,35,35,35,35,3.1622776601683795,6.324555320336759,8.366600265340756,10
10,4,0.0943464000010863,q,31.7,Unlimited Time,e,31.668867145141153,39.2300710639323,36.53066552970527,39.047649308484694,31.668867145141153,39.2300710639323,36.53066552970527,39.047649308484694,0,0,0,0,35,35,35,35,35,3.1622776601683795,6.324555320336759,8.366600265340756,10
10,5,0.02681999999913387,w,35.5,Unlimited Time,e,34.95738473568181,35.45614909177285,23.821912328887883,60.11830080226248,34.95738473568181,35.45614909177285,23.821912328887883,60.11830080226248,0,0,0,0,35,35,35,35,35,3.1622776601683795,6.324555320336759,8.366600265340756,10
10,6,0.02218499999435153,q,37.3,Unlimited Time,e,37.255896750799636,42.50311664752735,20.670819354417052,46.29217426592683,37.255896750799636,42.50311664752735,20.670819354417052,46.29217426592683,0,0,0,0,35,35,35,35,35,3.1622776601683795,6.324555320336759,8.366600265340756,10
10,7,0.013947400002507493,q,38.5,Unlimited Time,e,38.52623284364549,30.88120477325711,37.318518554078466,20.714116485396982,38.52623284364549,30.88120477325711,37.318518554078466,20.714116485396982,0,0,0,0,35,35,35,35,35,3.1622776601683795,6.324555320336759,8.366600265340756,10
10,8,0.002968700006022118,q,39.6,Unlimited Time,e,39.58540868764439,16.784623850062623,27.73969575095785,42.54762741641427,39.58540868764439,16.784623850062623,27.73969575095785,42.54762741641427,0,0,0,0,35,35,35,35,35,3.1622776601683795,6.324555320336759,8.366600265340756,10
10,9,0.046566100005293265,w,38.0,Unlimited Time,e,30.88561486713268,37.96672901135511,21.137235058400506,47.212166783770826,30.88561486713268,37.96672901135511,21.137235058400506,47.212166783770826,0,0,0,0,35,35,35,35,35,3.1622776601683795,6.324555320336759,8.366600265340756,10
10,10,0.11913409999397118,q,39.8,Unlimited Time,e,39.81000202825213,32.960779846462614,14.85218204950278,24.917760212504913,39.81000202825213,32.960779846462614,14.85218204950278,24.917760212504913,0,0,0,0,35,35,35,35,35,3.1622776601683795,6.324555320336759,8.366600265340756,10
10,11,0.0016688999894540757,q,33.4,Unlimited Time,e,33.44396413817164,25.81963982058666,28.95560599215526,41.89837946046078,33.44396413817164,25.81963982058666,28.95560599215526,41.89837946046078,0,0,0,0,35,35,35,35,35,3.1622776601683795,6.324555320336759,8.366600265340756,10
10,12,0.0832174999959534,p,24.1,Unlimited Time,e,37.03450832773625,33.833407807022944,37.02345535804887,24.113369853798886,37.03450832773625,33.833407807022944,37.02345535804887,24.113369853798886,0,0,0,0,35,35,35,35,35,3.1622776601683795,6.324555320336759,8.366600265340756,10
10,13,0.13732139999046922,p,50.7,Unlimited Time,e,33.16169617979919,43.945372860950854,42.0300275334946,50.747242432593836,33.16169617979919,43.945372860950854,42.0300275334946,50.747242432593836,0,0,0,0,35,35,35,35,35,3.1622776601683795,6.324555320336759,8.366600265340756,10
10,14,0.03729560000647325,q,40.1,Unlimited Time,e,40.058408181456066,34.911453138877896,40.158041739187894,30.96080178869841,40.058408181456066,34.911453138877896,40.158041739187894,30.96080178869841,0,0,0,0,35,35,35,35,35,3.1622776601683795,6.324555320336759,8.366600265340756,10
10,15,0.0128514000098221,o,43.8,Unlimited Time,e,30.03073163466117,34.06548121963358,43.840701631949,51.35968702805743,30.03073163466117,34.06548121963358,43.840701631949,51.35968702805743,0,0,0,0,35,35,35,35,35,3.1622776601683795,6.324555320336759,8.366600265340756,10
10,16,0.07539279999036808,w,39.7,Unlimited Time,e,33.69144670281565,39.668526339376626,37.65621193782098,46.252014431455116,33.69144670281565,39.668526339376626,37.65621193782098,46.252014431455116,0,0,0,0,35,35,35,35,35,3.1622776601683795,6.324555320336759,8.366600265340756,10
10,17,0.17857200000435114,q,34.6,Unlimited Time,e,34.607023261785805,29.308916221167284,32.82589940749471,33.17430132186543,34.607023261785805,29.308916221167284,32.82589940749471,33.17430132186543,0,0,0,0,35,35,35,35,35,3.1622776601683795,6.324555320336759,8.366600265340756,10
10,18,0.054664399998728186,w,38.9,Unlimited Time,e,37.34922600328872,38.88952948026304,27.069947049331695,27.66380274702943,37.34922600328872,38.88952948026304,27.069947049331695,27.66380274702943,0,0,0,0,35,35,35,35,35,3.1622776601683795,6.324555320336759,8.366600265340756,10
10,19,0.039128600008552894,q,33.0,Unlimited Time,e,33.00871112636004,41.27869080353284,31.897441962005995,38.4737185413269,33.00871112636004,41.27869080353284,31.897441962005995,38.4737185413269,0,0,0,0,35,35,35,35,35,3.1622776601683795,6.324555320336759,8.366600265340756,10
10,20,0.04876819999481086,q,35.3,Unlimited Time,e,35.318626992341486,35.974834529633526,38.623325026581405,32.62154333643993,35.318626992341486,35.974834529633526,38.623325026581405,32.62154333643993,0,0,0,0,35,35,35,35,35,3.1622776601683795,6.324555320336759,8.366600265340756,10
11,1,,,0.0,Limited Time - 400ms,e,39.0899839878,49.31226487586743,26.86290346638578,32.32748828837861,39.0899839878,49.31226487586743,26.86290346638578,32.32748828837861,0,0,0,0,35,35,35,35,35,3.1622776601683795,6.324555320336759,8.366600265340756,10
11,2,0.043203499997616746,q,36.5,Limited Time - 400ms,e,36.52811673128544,28.611944828555874,27.365077820682462,47.792667249521855,36.52811673128544,28.611944828555874,27.365077820682462,47.792667249521855,0,0,0,0,35,35,35,35,35,3.1622776601683795,6.324555320336759,8.366600265340756,10
11,3,0.1059287999960361,q,35.4,Limited Time - 400ms,e,35.430791050460485,25.55429220884455,40.78697486877918,33.16432895567531,35.430791050460485,25.55429220884455,40.78697486877918,33.16432895567531,0,0,0,0,35,35,35,35,35,3.1622776601683795,6.324555320336759,8.366600265340756,10
11,4,0.07059899999876507,w,39.2,Limited Time - 400ms,e,31.668867145141153,39.2300710639323,36.53066552970527,39.047649308484694,31.668867145141153,39.2300710639323,36.53066552970527,39.047649308484694,0,0,0,0,35,35,35,35,35,3.1622776601683795,6.324555320336759,8.366600265340756,10
11,5,0.03673229999549221,q,35.0,Limited Time - 400ms,e,34.95738473568181,35.45614909177285,23.821912328887883,60.11830080226248,34.95738473568181,35.45614909177285,23.821912328887883,60.11830080226248,0,0,0,0,35,35,35,35,35,3.1622776601683795,6.324555320336759,8.366600265340756,10
11,6,0.04557760000170674,q,37.3,Limited Time - 400ms,e,37.255896750799636,42.50311664752735,20.670819354417052,46.29217426592683,37.255896750799636,42.50311664752735,20.670819354417052,46.29217426592683,0,0,0,0,35,35,35,35,35,3.1622776601683795,6.324555320336759,8.366600265340756,10
11,7,0.16751279999152757,w,30.9,Limited Time - 400ms,e,38.52623284364549,30.88120477325711,37.318518554078466,20.714116485396982,38.52623284364549,30.88120477325711,37.318518554078466,20.714116485396982,0,0,0,0,35,35,35,35,35,3.1622776601683795,6.324555320336759,8.366600265340756,10
11,8,0.06388349999906495,q,39.6,Limited Time - 400ms,e,39.58540868764439,16.784623850062623,27.73969575095785,42.54762741641427,39.58540868764439,16.784623850062623,27.73969575095785,42.54762741641427,0,0,0,0,35,35,35,35,35,3.1622776601683795,6.324555320336759,8.366600265340756,10
11,9,0.051397400005953386,q,30.9,Limited Time - 400ms,e,30.88561486713268,37.96672901135511,21.137235058400506,47.212166783770826,30.88561486713268,37.96672901135511,21.137235058400506,47.212166783770826,0,0,0,0,35,35,35,35,35,3.1622776601683795,6.324555320336759,8.366600265340756,10
11,10,0.014808000007178634,q,39.8,Limited Time - 400ms,e,39.81000202825213,32.960779846462614,14.85218204950278,24.917760212504913,39.81000202825213,32.960779846462614,14.85218204950278,24.917760212504913,0,0,0,0,35,35,35,35,35,3.1622776601683795,6.324555320336759,8.366600265340756,10
11,11,0.060705700001562946,w,25.8,Limited Time - 400ms,e,33.44396413817164,25.81963982058666,28.95560599215526,41.89837946046078,33.44396413817164,25.81963982058666,28.95560599215526,41.89837946046078,0,0,0,0,35,35,35,35,35,3.1622776601683795,6.324555320336759,8.366600265340756,10
11,12,0.07889950000389945,q,37.0,Limited Time - 400ms,e,37.03450832773625,33.833407807022944,37.02345535804887,24.113369853798886,37.03450832773625,33.833407807022944,37.02345535804887,24.113369853798886,0,0,0,0,35,35,35,35,35,3.1622776601683795,6.324555320336759,8.366600265340756,10
11,13,0.06275230000028387,w,43.9,Limited Time - 400ms,e,33.16169617979919,43.945372860950854,42.0300275334946,50.747242432593836,33.16169617979919,43.945372860950854,42.0300275334946,50.747242432593836,0,0,0,0,35,35,35,35,35,3.1622776601683795,6.324555320336759,8.366600265340756,10
11,14,0.00955420000536833,p,31.0,Limited Time - 400ms,e,40.058408181456066,34.911453138877896,40.158041739187894,30.96080178869841,40.058408181456066,34.911453138877896,40.158041739187894,30.96080178869841,0,0,0,0,35,35,35,35,35,3.1622776601683795,6.324555320336759,8.366600265340756,10
11,15,0.0016452999989269301,w,34.1,Limited Time - 400ms,e,30.03073163466117,34.06548121963358,43.840701631949,51.35968702805743,30.03073163466117,34.06548121963358,43.840701631949,51.35968702805743,0,0,0,0,35,35,35,35,35,3.1622776601683795,6.324555320336759,8.366600265340756,10
11,16,0.013564400011091493,w,39.7,Limited Time - 400ms,e,33.69144670281565,39.668526339376626,37.65621193782098,46.252014431455116,33.69144670281565,39.668526339376626,37.65621193782098,46.252014431455116,0,0,0,0,35,35,35,35,35,3.1622776601683795,6.324555320336759,8.366600265340756,10
11,17,0.10309220000635833,q,34.6,Limited Time - 400ms,e,34.607023261785805,29.308916221167284,32.82589940749471,33.17430132186543,34.607023261785805,29.308916221167284,32.82589940749471,33.17430132186543,0,0,0,0,35,35,35,35,35,3.1622776601683795,6.324555320336759,8.366600265340756,10
11,18,0.15989209999679588,w,38.9,Limited Time - 400ms,e,37.34922600328872,38.88952948026304,27.069947049331695,27.66380274702943,37.34922600328872,38.88952948026304,27.069947049331695,27.66380274702943,0,0,0,0,35,35,35,35,35,3.1622776601683795,6.324555320336759,8.366600265340756,10
11,19,0.029488699990906753,q,33.0,Limited Time - 400ms,e,33.00871112636004,41.27869080353284,31.897441962005995,38.4737185413269,33.00871112636004,41.27869080353284,31.897441962005995,38.4737185413269,0,0,0,0,35,35,35,35,35,3.1622776601683795,6.324555320336759,8.366600265340756,10
11,20,0.18207579999580048,o,38.6,Limited Time - 400ms,e,35.318626992341486,35.974834529633526,38.623325026581405,32.62154333643993,35.318626992341486,35.974834529633526,38.623325026581405,32.62154333643993,0,0,0,0,35,35,35,35,35,3.1622776601683795,6.324555320336759,8.366600265340756,10
12,1,0.47091430000727996,q,44.1,Limited Time - 800ms,h,44.14410023905547,33.68564418256859,26.22055701113338,31.360063299124562,33.68564418256859,26.22055701113338,31.360063299124562,44.14410023905547,-10,-0.33,0.33,10,35,25,34.67,35.33,45,10,10,10,10
12,2,0.4159397000039462,w,16.7,Limited Time - 800ms,h,49.266509042333546,16.65648694782417,46.20594288583726,25.01086773686652,16.65648694782417,46.20594288583726,25.01086773686652,49.266509042333546,-10,-0.33,0.33,10,35,25,34.67,35.33,45,10,10,10,10
12,3,0.15059150000161026,p,40.9,Limited Time - 800ms,h,51.3444370103361,53.442003757237885,47.55203653752739,40.90058189036732,53.442003757237885,47.55203653752739,40.90058189036732,51.3444370103361,-10,-0.33,0.33,10,35,25,34.67,35.33,45,10,10,10,10
12,4,0.07834320000256412,q,30.1,Limited Time - 800ms,h,30.09891239541177,6.446527253279424,38.516738068778395,30.33749856397543,6.446527253279424,38.516738068778395,30.33749856397543,30.09891239541177,-10,-0.33,0.33,10,35,25,34.67,35.33,45,10,10,10,10
12,5,0.06328440000652336,p,50.1,Limited Time - 800ms,h,52.12607212613416,17.55830260703301,13.368410625976601,50.097972170552694,17.55830260703301,13.368410625976601,50.097972170552694,52.12607212613416,-10,-0.33,0.33,10,35,25,34.67,35.33,45,10,10,10,10
12,6,0.07889090001117438,w,18.6,Limited Time - 800ms,h,52.38208573193539,18.558508145396395,30.822397819269266,44.33884355498871,18.558508145396395,30.822397819269266,44.33884355498871,52.38208573193539,-10,-0.33,0.33,10,35,25,34.67,35.33,45,10,10,10,10
12,7,0.051271700009237975,o,22.4,Limited Time - 800ms,h,59.19063233301609,29.556320840827098,22.38872496389619,28.60145902485309,29.556320840827098,22.38872496389619,28.60145902485309,59.19063233301609,-10,-0.33,0.33,10,35,25,34.67,35.33,45,10,10,10,10
12,8,0.037520899990340695,p,49.5,Limited Time - 800ms,h,41.02534088630304,30.429922063177962,17.985430101832755,49.54983867181779,30.429922063177962,17.985430101832755,49.54983867181779,41.02534088630304,-10,-0.33,0.33,10,35,25,34.67,35.33,45,10,10,10,10
12,9,0.06589479999092873,o,41.6,Limited Time - 800ms,h,45.862492620940415,14.165209505114982,41.552014789016425,37.576109383525704,14.165209505114982,41.552014789016425,37.576109383525704,45.862492620940415,-10,-0.33,0.33,10,35,25,34.67,35.33,45,10,10,10,10
12,10,0.014300099996034987,o,29.4,Limited Time - 800ms,h,33.91470032504421,19.11972971966266,29.422792517355756,49.13573099008867,19.11972971966266,29.422792517355756,49.13573099008867,33.91470032504421,-10,-0.33,0.33,10,35,25,34.67,35.33,45,10,10,10,10
12,11,0.03117729999939911,o,27.2,Limited Time - 800ms,h,55.55563720343882,20.0253670747703,27.20422700156362,63.99267794217875,20.0253670747703,27.20422700156362,63.99267794217875,55.55563720343882,-10,-0.33,0.33,10,35,25,34.67,35.33,45,10,10,10,10
12,12,0.008839499991154298,p,27.9,Limited Time - 800ms,h,45.522047180280445,21.62706779548656,22.41845828658782,27.916860821267818,21.62706779548656,22.41845828658782,27.916860821267818,45.522047180280445,-10,-0.33,0.33,10,35,25,34.67,35.33,45,10,10,10,10
12,13,0.03497069999866653,o,51.6,Limited Time - 800ms,h,48.979720077036085,6.212376983377254,51.58511098395218,44.72210826557172,6.212376983377254,51.58511098395218,44.72210826557172,48.979720077036085,-10,-0.33,0.33,10,35,25,34.67,35.33,45,10,10,10,10
12,14,0.0466308999893954,o,25.1,Limited Time - 800ms,h,57.45719552859981,29.61923959821879,25.149012563427533,19.865834849442273,29.61923959821879,25.149012563427533,19.865834849442273,57.45719552859981,-10,-0.33,0.33,10,35,25,34.67,35.33,45,10,10,10,10
12,15,0.04545970000617672,o,40.9,Limited Time - 800ms,h,46.59659389983434,32.825342147653195,40.91776143336942,34.41888369423531,32.825342147653195,40.91776143336942,34.41888369423531,46.59659389983434,-10,-0.33,0.33,10,35,25,34.67,35.33,45,10,10,10,10
12,16,0.04346830000577029,o,41.5,Limited Time - 800ms,h,38.67514833797911,32.89696808544659,41.46392199993809,43.24892445548777,32.89696808544659,41.46392199993809,43.24892445548777,38.67514833797911,-10,-0.33,0.33,10,35,25,34.67,35.33,45,10,10,10,10
12,17,0.0336546000035014,p,37.0,Limited Time - 800ms,h,56.380049734385246,22.33179409406631,35.095068677724356,37.00500878256428,22.33179409406631,35.095068677724356,37.00500878256428,56.380049734385246,-10,-0.33,0.33,10,35,25,34.67,35.33,45,10,10,10,10
12,18,0.02832739999576006,p,24.1,Limited Time - 800ms,h,50.30746966562098,48.57889579541434,30.388465730159147,24.107769292343107,48.57889579541434,30.388465730159147,24.107769292343107,50.30746966562098,-10,-0.33,0.33,10,35,25,34.67,35.33,45,10,10,10,10
12,19,0.014240000004065223,w,17.8,Limited Time - 800ms,h,66.35040308788406,17.75656285895088,26.538390558052157,21.47302749622446,17.75656285895088,26.538390558052157,21.47302749622446,66.35040308788406,-10,-0.33,0.33,10,35,25,34.67,35.33,45,10,10,10,10
12,20,0.009388299993588589,w,19.2,Limited Time - 800ms,h,39.609348371888714,19.182040492512396,29.288814539035542,34.37676336635719,19.182040492512396,29.288814539035542,34.37676336635719,39.609348371888714,-10,-0.33,0.33,10,35,25,34.67,35.33,45,10,10,10,10
13,1,0.9044305999996141,w,31.8,Unlimited Time,l,19.993050223662863,31.77129373644508,42.8093605674091,37.37766339543997,19.993050223662863,31.77129373644508,37.37766339543997,42.8093605674091,-10,-0.33,0.33,10,35,25,34.67,35.33,45,3.1622776601683795,3.1622776601683795,3.1622776601683795,3.1622776601683795
13,2,0.0007313999958569184,w,34.9,Unlimited Time,l,19.838877305966406,34.87284183886786,45.57457596579351,37.6993751238373,19.838877305966406,34.87284183886786,37.6993751238373,45.57457596579351,-10,-0.33,0.33,10,35,25,34.67,35.33,45,3.1622776601683795,3.1622776601683795,3.1622776601683795,3.1622776601683795
13,3,0.12565980000363197,w,36.7,Unlimited Time,l,25.52898627933699,36.71403695401947,44.511193269120945,30.046843195738518,25.52898627933699,36.71403695401947,30.046843195738518,44.511193269120945,-10,-0.33,0.33,10,35,25,34.67,35.33,45,3.1622776601683795,3.1622776601683795,3.1622776601683795,3.1622776601683795
13,4,0.10108189999300521,w,35.0,Unlimited Time,l,20.010535129997354,34.96229486160114,40.87731668110825,34.438467249739574,20.010535129997354,34.96229486160114,34.438467249739574,40.87731668110825,-10,-0.33,0.33,10,35,25,34.67,35.33,45,3.1622776601683795,3.1622776601683795,3.1622776601683795,3.1622776601683795
13,5,0.008178799995221198,q,22.0,Unlimited Time,l,21.977271374157322,36.40204287231966,37.91674323471243,31.014064678417952,21.977271374157322,36.40204287231966,31.014064678417952,37.91674323471243,-10,-0.33,0.33,10,35,25,34.67,35.33,45,3.1622776601683795,3.1622776601683795,3.1622776601683795,3.1622776601683795
13,6,0.035705200003576465,p,35.9,Unlimited Time,l,18.603691965030233,33.1717176467045,47.25004727026228,35.85714807837417,18.603691965030233,33.1717176467045,35.85714807837417,47.25004727026228,-10,-0.33,0.33,10,35,25,34.67,35.33,45,3.1622776601683795,3.1622776601683795,3.1622776601683795,3.1622776601683795
13,7,0.061262799994437955,q,22.5,Unlimited Time,l,22.455780755763538,34.626211843803965,43.42369482542478,36.551595691588794,22.455780755763538,34.626211843803965,36.551595691588794,43.42369482542478,-10,-0.33,0.33,10,35,25,34.67,35.33,45,3.1622776601683795,3.1622776601683795,3.1622776601683795,3.1622776601683795
13,8,0.022722599998814985,q,16.9,Unlimited Time,l,16.932974055580594,33.175020122575845,47.05546767032031,38.13546786693016,16.932974055580594,33.175020122575845,38.13546786693016,47.05546767032031,-10,-0.33,0.33,10,35,25,34.67,35.33,45,3.1622776601683795,3.1622776601683795,3.1622776601683795,3.1622776601683795
13,9,0.008912400007830001,o,47.4,Unlimited Time,l,23.671551880983582,30.13327372377267,47.371523020863954,43.319204390995324,23.671551880983582,30.13327372377267,43.319204390995324,47.371523020863954,-10,-0.33,0.33,10,35,25,34.67,35.33,45,3.1622776601683795,3.1622776601683795,3.1622776601683795,3.1622776601683795
13,10,0.0016684000001987442,p,34.1,Unlimited Time,l,25.661056742685357,36.83087379529397,44.272507913165214,34.08660414610205,25.661056742685357,36.83087379529397,34.08660414610205,44.272507913165214,-10,-0.33,0.33,10,35,25,34.67,35.33,45,3.1622776601683795,3.1622776601683795,3.1622776601683795,3.1622776601683795
13,11,0.015071299989358522,w,33.0,Unlimited Time,l,20.447097440589612,33.00590219211623,51.30684261868472,34.63581831940331,20.447097440589612,33.00590219211623,34.63581831940331,51.30684261868472,-10,-0.33,0.33,10,35,25,34.67,35.33,45,3.1622776601683795,3.1622776601683795,3.1622776601683795,3.1622776601683795
13,12,0.018728499999269843,o,44.4,Unlimited Time,l,27.05917990174444,35.122476319014076,44.42495445086859,34.984896051479,27.05917990174444,35.122476319014076,34.984896051479,44.42495445086859,-10,-0.33,0.33,10,35,25,34.67,35.33,45,3.1622776601683795,3.1622776601683795,3.1622776601683795,3.1622776601683795
13,13,0.008985099993878976,p,32.7,Unlimited Time,l,25.47224477150098,33.18439776128613,48.58096919260094,32.717738027883726,25.47224477150098,33.18439776128613,32.717738027883726,48.58096919260094,-10,-0.33,0.33,10,35,25,34.67,35.33,45,3.1622776601683795,3.1622776601683795,3.1622776601683795,3.1622776601683795
13,14,0.04626099999586586,w,37.0,Unlimited Time,l,23.795911448582135,36.953476549880975,50.826406528331006,29.84620672137335,23.795911448582135,36.953476549880975,29.84620672137335,50.826406528331006,-10,-0.33,0.33,10,35,25,34.67,35.33,45,3.1622776601683795,3.1622776601683795,3.1622776601683795,3.1622776601683795
13,15,0.012255800000275485,o,40.1,Unlimited Time,l,23.975239187230496,36.82529585666783,40.062827587273105,36.179333095260965,23.975239187230496,36.82529585666783,36.179333095260965,40.062827587273105,-10,-0.33,0.33,10,35,25,34.67,35.33,45,3.1622776601683795,3.1622776601683795,3.1622776601683795,3.1622776601683795
13,16,0.05745149998983834,p,37.9,Unlimited Time,l,22.70466954504096,41.38342595952511,46.11031129977527,37.944191968054554,22.70466954504096,41.38342595952511,37.944191968054554,46.11031129977527,-10,-0.33,0.33,10,35,25,34.67,35.33,45,3.1622776601683795,3.1622776601683795,3.1622776601683795,3.1622776601683795
13,17,0.009650099993450567,p,34.6,Unlimited Time,l,28.516358886766096,37.45545158225673,47.51860145148918,34.64519752005116,28.516358886766096,37.45545158225673,34.64519752005116,47.51860145148918,-10,-0.33,0.33,10,35,25,34.67,35.33,45,3.1622776601683795,3.1622776601683795,3.1622776601683795,3.1622776601683795
13,18,0.03074159999960102,o,43.7,Unlimited Time,l,25.003274760752547,34.896323065017256,43.74256260709739,33.62533563860212,25.003274760752547,34.896323065017256,33.62533563860212,43.74256260709739,-10,-0.33,0.33,10,35,25,34.67,35.33,45,3.1622776601683795,3.1622776601683795,3.1622776601683795,3.1622776601683795
13,19,0.06603060000634287,p,29.8,Unlimited Time,l,30.07124419008224,35.466814329583414,41.70567360033144,29.806350203801927,30.07124419008224,35.466814329583414,29.806350203801927,41.70567360033144,-10,-0.33,0.33,10,35,25,34.67,35.33,45,3.1622776601683795,3.1622776601683795,3.1622776601683795,3.1622776601683795
13,20,0.040126499996404164,q,21.0,Unlimited Time,l,20.96763609818578,33.902737953685005,45.42055649735958,41.09635234569859,20.96763609818578,33.902737953685005,41.09635234569859,45.42055649735958,-10,-0.33,0.33,10,35,25,34.67,35.33,45,3.1622776601683795,3.1622776601683795,3.1622776601683795,3.1622776601683795
14,1,0.09684460000426043,q,44.7,Limited Time - 400ms,i,44.70060934244,27.918357616601053,51.37583969120292,22.634088205984852,22.634088205984852,27.918357616601053,44.70060934244,51.37583969120292,-10,-10,10,10,35,25,25,45,45,3.1622776601683795,10,3.1622776601683795,10
14,2,0.18219289999979082,q,48.3,Limited Time - 400ms,i,48.317898643126384,18.301960938219075,47.350171256687254,21.927308604588436,21.927308604588436,18.301960938219075,48.317898643126384,47.350171256687254,-10,-10,10,10,35,25,25,45,45,3.1622776601683795,10,3.1622776601683795,10
14,3,0.009746199997607619,w,28.9,Limited Time - 400ms,i,46.03284552543775,28.914489421429995,45.433662567826225,26.517654072103156,26.517654072103156,28.914489421429995,46.03284552543775,45.433662567826225,-10,-10,10,10,35,25,25,45,45,3.1622776601683795,10,3.1622776601683795,10
14,4,0.058350600011181086,q,46.8,Limited Time - 400ms,i,46.84927246353268,38.83427749462131,35.44543296189971,20.010792439143728,20.010792439143728,38.83427749462131,46.84927246353268,35.44543296189971,-10,-10,10,10,35,25,25,45,45,3.1622776601683795,10,3.1622776601683795,10
14,5,0.10279289999743924,q,47.5,Limited Time - 400ms,i,47.52738210088893,32.71984093327942,33.5125168834833,26.96123045620441,26.96123045620441,32.71984093327942,47.52738210088893,33.5125168834833,-10,-10,10,10,35,25,25,45,45,3.1622776601683795,10,3.1622776601683795,10
14,6,0.06797790000564419,q,44.3,Limited Time - 400ms,i,44.29421115975166,43.65119076182732,27.552867301335706,22.690160821293055,22.690160821293055,43.65119076182732,44.29421115975166,27.552867301335706,-10,-10,10,10,35,25,25,45,45,3.1622776601683795,10,3.1622776601683795,10
14,7,0.049687899998389184,w,32.5,Limited Time - 400ms,i,39.319787368885954,32.502419730611685,30.63679511418796,28.949205342594862,28.949205342594862,32.502419730611685,39.319787368885954,30.63679511418796,-10,-10,10,10,35,25,25,45,45,3.1622776601683795,10,3.1622776601683795,10
14,8,0.08180469999206252,q,45.5,Limited Time - 400ms,i,45.454436767145616,24.22137761021565,32.908426232636245,27.405440256518865,27.405440256518865,24.22137761021565,45.454436767145616,32.908426232636245,-10,-10,10,10,35,25,25,45,45,3.1622776601683795,10,3.1622776601683795,10
14,9,0.07063879999623168,w,14.5,Limited Time - 400ms,i,45.31302827530939,14.538041143235885,44.37619537375425,24.782532814136097,24.782532814136097,14.538041143235885,45.31302827530939,44.37619537375425,-10,-10,10,10,35,25,25,45,45,3.1622776601683795,10,3.1622776601683795,10
14,10,0.013794200000120327,q,37.9,Limited Time - 400ms,i,37.89629380790455,26.30354696524008,47.6647750990514,26.476752519515458,26.476752519515458,26.30354696524008,37.89629380790455,47.6647750990514,-10,-10,10,10,35,25,25,45,45,3.1622776601683795,10,3.1622776601683795,10
14,11,0.11267960000259336,q,40.9,Limited Time - 400ms,i,40.871610181717465,35.53988769327608,44.170700247333215,24.343742999588052,24.343742999588052,35.53988769327608,40.871610181717465,44.170700247333215,-10,-10,10,10,35,25,25,45,45,3.1622776601683795,10,3.1622776601683795,10
14,12,0.09995069999422412,q,50.6,Limited Time - 400ms,i,50.61055743105499,22.10457610615234,49.96112782366274,26.238333007446727,26.238333007446727,22.10457610615234,50.61055743105499,49.96112782366274,-10,-10,10,10,35,25,25,45,45,3.1622776601683795,10,3.1622776601683795,10
14,13,0.0829989000048954,q,42.5,Limited Time - 400ms,i,42.51790624006387,16.99798979759867,41.3220204993565,20.723277515632,20.723277515632,16.99798979759867,42.51790624006387,41.3220204993565,-10,-10,10,10,35,25,25,45,45,3.1622776601683795,10,3.1622776601683795,10
14,14,0.09786129998974502,q,42.0,Limited Time - 400ms,i,41.959968913640566,11.28387069142995,41.865523233527085,20.5241702908867,20.5241702908867,11.28387069142995,41.959968913640566,41.865523233527085,-10,-10,10,10,35,25,25,45,45,3.1622776601683795,10,3.1622776601683795,10
14,15,0.032850300005520694,p,23.3,Limited Time - 400ms,i,46.70486746637408,23.403197444694488,40.26037763941541,23.336316097255118,23.336316097255118,23.403197444694488,46.70486746637408,40.26037763941541,-10,-10,10,10,35,25,25,45,45,3.1622776601683795,10,3.1622776601683795,10
14,16,0.03636279999045655,p,24.2,Limited Time - 400ms,i,46.116114346387285,12.678811615894233,45.78080732802368,24.2376549753372,24.2376549753372,12.678811615894233,46.116114346387285,45.78080732802368,-10,-10,10,10,35,25,25,45,45,3.1622776601683795,10,3.1622776601683795,10
14,17,0.18077419999463018,w,34.6,Limited Time - 400ms,i,45.845510593145875,34.60876860794078,35.68108320342601,28.69861608560254,28.69861608560254,34.60876860794078,45.845510593145875,35.68108320342601,-10,-10,10,10,35,25,25,45,45,3.1622776601683795,10,3.1622776601683795,10
14,18,0.07757550000678748,w,15.9,Limited Time - 400ms,i,43.091522428386476,15.926578564326404,30.776984517063855,24.7486031288142,24.7486031288142,15.926578564326404,43.091522428386476,30.776984517063855,-10,-10,10,10,35,25,25,45,45,3.1622776601683795,10,3.1622776601683795,10
14,19,0.08086300001014024,q,45.3,Limited Time - 400ms,i,45.2960415281169,33.198613605280826,51.26312216884142,27.822639648112798,27.822639648112798,33.198613605280826,45.2960415281169,51.26312216884142,-10,-10,10,10,35,25,25,45,45,3.1622776601683795,10,3.1622776601683795,10
14,20,0.01310909999301657,p,23.2,Limited Time - 400ms,i,41.81042522540012,34.81479968632476,44.70359820323015,23.2052265554355,23.2052265554355,34.81479968632476,41.81042522540012,44.70359820323015,-10,-10,10,10,35,25,25,45,45,3.1622776601683795,10,3.1622776601683795,10
15,1,0.36049890000140294,q,51.4,Limited Time - 800ms,i,51.37583969120292,27.918357616601053,22.634088205984852,44.70060934244,22.634088205984852,27.918357616601053,44.70060934244,51.37583969120292,-10,-10,10,10,35,25,25,45,45,3.1622776601683795,10,3.1622776601683795,10
15,2,0.02077580000332091,w,18.3,Limited Time - 800ms,i,47.350171256687254,18.301960938219075,21.927308604588436,48.317898643126384,21.927308604588436,18.301960938219075,48.317898643126384,47.350171256687254,-10,-10,10,10,35,25,25,45,45,3.1622776601683795,10,3.1622776601683795,10
15,3,0.1458930000080727,q,45.4,Limited Time - 800ms,i,45.433662567826225,28.914489421429995,26.517654072103156,46.03284552543775,26.517654072103156,28.914489421429995,46.03284552543775,45.433662567826225,-10,-10,10,10,35,25,25,45,45,3.1622776601683795,10,3.1622776601683795,10
15,4,0.007699399997363798,w,38.8,Limited Time - 800ms,i,35.44543296189971,38.83427749462131,20.010792439143728,46.84927246353268,20.010792439143728,38.83427749462131,46.84927246353268,35.44543296189971,-10,-10,10,10,35,25,25,45,45,3.1622776601683795,10,3.1622776601683795,10
15,5,0.09895809998852201,w,32.7,Limited Time - 800ms,i,33.5125168834833,32.71984093327942,26.96123045620441,47.52738210088893,26.96123045620441,32.71984093327942,47.52738210088893,33.5125168834833,-10,-10,10,10,35,25,25,45,45,3.1622776601683795,10,3.1622776601683795,10
15,6,0.02610390000336338,o,22.7,Limited Time - 800ms,i,27.552867301335706,43.65119076182732,22.690160821293055,44.29421115975166,22.690160821293055,43.65119076182732,44.29421115975166,27.552867301335706,-10,-10,10,10,35,25,25,45,45,3.1622776601683795,10,3.1622776601683795,10
15,7,0.007576499992865138,p,39.3,Limited Time - 800ms,i,30.63679511418796,32.502419730611685,28.949205342594862,39.319787368885954,28.949205342594862,32.502419730611685,39.319787368885954,30.63679511418796,-10,-10,10,10,35,25,25,45,45,3.1622776601683795,10,3.1622776601683795,10
15,8,0.08837739999580663,o,27.4,Limited Time - 800ms,i,32.908426232636245,24.22137761021565,27.405440256518865,45.454436767145616,27.405440256518865,24.22137761021565,45.454436767145616,32.908426232636245,-10,-10,10,10,35,25,25,45,45,3.1622776601683795,10,3.1622776601683795,10
15,9,0.006515200002468191,q,44.4,Limited Time - 800ms,i,44.37619537375425,14.538041143235885,24.782532814136097,45.31302827530939,24.782532814136097,14.538041143235885,45.31302827530939,44.37619537375425,-10,-10,10,10,35,25,25,45,45,3.1622776601683795,10,3.1622776601683795,10
15,10,0.011801500004366972,q,47.7,Limited Time - 800ms,i,47.6647750990514,26.30354696524008,26.476752519515458,37.89629380790455,26.476752519515458,26.30354696524008,37.89629380790455,47.6647750990514,-10,-10,10,10,35,25,25,45,45,3.1622776601683795,10,3.1622776601683795,10
15,11,0.006575699997483753,o,24.3,Limited Time - 800ms,i,44.170700247333215,35.53988769327608,24.343742999588052,40.871610181717465,24.343742999588052,35.53988769327608,40.871610181717465,44.170700247333215,-10,-10,10,10,35,25,25,45,45,3.1622776601683795,10,3.1622776601683795,10
15,12,0.040411399997537956,q,50.0,Limited Time - 800ms,i,49.96112782366274,22.10457610615234,26.238333007446727,50.61055743105499,26.238333007446727,22.10457610615234,50.61055743105499,49.96112782366274,-10,-10,10,10,35,25,25,45,45,3.1622776601683795,10,3.1622776601683795,10
15,13,0.04639010000391863,o,20.7,Limited Time - 800ms,i,41.3220204993565,16.99798979759867,20.723277515632,42.51790624006387,20.723277515632,16.99798979759867,42.51790624006387,41.3220204993565,-10,-10,10,10,35,25,25,45,45,3.1622776601683795,10,3.1622776601683795,10
15,14,0.00716130000364501,p,42.0,Limited Time - 800ms,i,41.865523233527085,11.28387069142995,20.5241702908867,41.959968913640566,20.5241702908867,11.28387069142995,41.959968913640566,41.865523233527085,-10,-10,10,10,35,25,25,45,45,3.1622776601683795,10,3.1622776601683795,10
15,15,0.13110289999167435,o,23.3,Limited Time - 800ms,i,40.26037763941541,23.403197444694488,23.336316097255118,46.70486746637408,23.336316097255118,23.403197444694488,46.70486746637408,40.26037763941541,-10,-10,10,10,35,25,25,45,45,3.1622776601683795,10,3.1622776601683795,10
15,16,0.021812799997860566,o,24.2,Limited Time - 800ms,i,45.78080732802368,12.678811615894233,24.2376549753372,46.116114346387285,24.2376549753372,12.678811615894233,46.116114346387285,45.78080732802368,-10,-10,10,10,35,25,25,45,45,3.1622776601683795,10,3.1622776601683795,10
15,17,0.03640169999562204,w,34.6,Limited Time - 800ms,i,35.68108320342601,34.60876860794078,28.69861608560254,45.845510593145875,28.69861608560254,34.60876860794078,45.845510593145875,35.68108320342601,-10,-10,10,10,35,25,25,45,45,3.1622776601683795,10,3.1622776601683795,10
15,18,0.023513899999670684,w,15.9,Limited Time - 800ms,i,30.776984517063855,15.926578564326404,24.7486031288142,43.091522428386476,24.7486031288142,15.926578564326404,43.091522428386476,30.776984517063855,-10,-10,10,10,35,25,25,45,45,3.1622776601683795,10,3.1622776601683795,10
15,19,0.031945399998221546,p,45.3,Limited Time - 800ms,i,51.26312216884142,33.198613605280826,27.822639648112798,45.2960415281169,27.822639648112798,33.198613605280826,45.2960415281169,51.26312216884142,-10,-10,10,10,35,25,25,45,45,3.1622776601683795,10,3.1622776601683795,10
15,20,0.13408410000556614,q,44.7,Limited Time - 800ms,i,44.70359820323015,34.81479968632476,23.2052265554355,41.81042522540012,23.2052265554355,34.81479968632476,41.81042522540012,44.70359820323015,-10,-10,10,10,35,25,25,45,45,3.1622776601683795,10,3.1622776601683795,10
16,1,0.3171539000031771,o,27.9,Unlimited Time,i,51.37583969120292,44.70060934244,27.918357616601053,22.634088205984852,22.634088205984852,27.918357616601053,44.70060934244,51.37583969120292,-10,-10,10,10,35,25,25,45,45,3.1622776601683795,10,3.1622776601683795,10
16,2,0.3258834000007482,p,21.9,Unlimited Time,i,47.350171256687254,48.317898643126384,18.301960938219075,21.927308604588436,21.927308604588436,18.301960938219075,48.317898643126384,47.350171256687254,-10,-10,10,10,35,25,25,45,45,3.1622776601683795,10,3.1622776601683795,10
16,3,0.8258120999962557,q,45.4,Unlimited Time,i,45.433662567826225,46.03284552543775,28.914489421429995,26.517654072103156,26.517654072103156,28.914489421429995,46.03284552543775,45.433662567826225,-10,-10,10,10,35,25,25,45,45,3.1622776601683795,10,3.1622776601683795,10
16,4,0.5298980999941705,w,46.8,Unlimited Time,i,35.44543296189971,46.84927246353268,38.83427749462131,20.010792439143728,20.010792439143728,38.83427749462131,46.84927246353268,35.44543296189971,-10,-10,10,10,35,25,25,45,45,3.1622776601683795,10,3.1622776601683795,10
16,5,0.7341794000094524,q,33.5,Unlimited Time,i,33.5125168834833,47.52738210088893,32.71984093327942,26.96123045620441,26.96123045620441,32.71984093327942,47.52738210088893,33.5125168834833,-10,-10,10,10,35,25,25,45,45,3.1622776601683795,10,3.1622776601683795,10
16,6,0.6359758999897167,w,44.3,Unlimited Time,i,27.552867301335706,44.29421115975166,43.65119076182732,22.690160821293055,22.690160821293055,43.65119076182732,44.29421115975166,27.552867301335706,-10,-10,10,10,35,25,25,45,45,3.1622776601683795,10,3.1622776601683795,10
16,7,0.2811909000010928,o,32.5,Unlimited Time,i,30.63679511418796,39.319787368885954,32.502419730611685,28.949205342594862,28.949205342594862,32.502419730611685,39.319787368885954,30.63679511418796,-10,-10,10,10,35,25,25,45,45,3.1622776601683795,10,3.1622776601683795,10
16,8,0.2564781000110088,p,27.4,Unlimited Time,i,32.908426232636245,45.454436767145616,24.22137761021565,27.405440256518865,27.405440256518865,24.22137761021565,45.454436767145616,32.908426232636245,-10,-10,10,10,35,25,25,45,45,3.1622776601683795,10,3.1622776601683795,10
16,9,0.4091894000011962,p,24.8,Unlimited Time,i,44.37619537375425,45.31302827530939,14.538041143235885,24.782532814136097,24.782532814136097,14.538041143235885,45.31302827530939,44.37619537375425,-10,-10,10,10,35,25,25,45,45,3.1622776601683795,10,3.1622776601683795,10
16,10,0.5801686000049813,q,47.7,Unlimited Time,i,47.6647750990514,37.89629380790455,26.30354696524008,26.476752519515458,26.476752519515458,26.30354696524008,37.89629380790455,47.6647750990514,-10,-10,10,10,35,25,25,45,45,3.1622776601683795,10,3.1622776601683795,10
16,11,0.30687570000009146,w,40.9,Unlimited Time,i,44.170700247333215,40.871610181717465,35.53988769327608,24.343742999588052,24.343742999588052,35.53988769327608,40.871610181717465,44.170700247333215,-10,-10,10,10,35,25,25,45,45,3.1622776601683795,10,3.1622776601683795,10
16,12,0.3770942999981344,q,50.0,Unlimited Time,i,49.96112782366274,50.61055743105499,22.10457610615234,26.238333007446727,26.238333007446727,22.10457610615234,50.61055743105499,49.96112782366274,-10,-10,10,10,35,25,25,45,45,3.1622776601683795,10,3.1622776601683795,10
16,13,0.28929580000112765,q,41.3,Unlimited Time,i,41.3220204993565,42.51790624006387,16.99798979759867,20.723277515632,20.723277515632,16.99798979759867,42.51790624006387,41.3220204993565,-10,-10,10,10,35,25,25,45,45,3.1622776601683795,10,3.1622776601683795,10
16,14,0.12011180000263266,q,41.9,Unlimited Time,i,41.865523233527085,41.959968913640566,11.28387069142995,20.5241702908867,20.5241702908867,11.28387069142995,41.959968913640566,41.865523233527085,-10,-10,10,10,35,25,25,45,45,3.1622776601683795,10,3.1622776601683795,10
16,15,0.19597079999221023,q,40.3,Unlimited Time,i,40.26037763941541,46.70486746637408,23.403197444694488,23.336316097255118,23.336316097255118,23.403197444694488,46.70486746637408,40.26037763941541,-10,-10,10,10,35,25,25,45,45,3.1622776601683795,10,3.1622776601683795,10
16,16,0.15318280000064988,q,45.8,Unlimited Time,i,45.78080732802368,46.116114346387285,12.678811615894233,24.2376549753372,24.2376549753372,12.678811615894233,46.116114346387285,45.78080732802368,-10,-10,10,10,35,25,25,45,45,3.1622776601683795,10,3.1622776601683795,10
16,17,0.10738869999477174,q,35.7,Unlimited Time,i,35.68108320342601,45.845510593145875,34.60876860794078,28.69861608560254,28.69861608560254,34.60876860794078,45.845510593145875,35.68108320342601,-10,-10,10,10,35,25,25,45,45,3.1622776601683795,10,3.1622776601683795,10
16,18,0.06889089998730924,o,15.9,Unlimited Time,i,30.776984517063855,43.091522428386476,15.926578564326404,24.7486031288142,24.7486031288142,15.926578564326404,43.091522428386476,30.776984517063855,-10,-10,10,10,35,25,25,45,45,3.1622776601683795,10,3.1622776601683795,10
16,19,0.02688730000227224,p,27.8,Unlimited Time,i,51.26312216884142,45.2960415281169,33.198613605280826,27.822639648112798,27.822639648112798,33.198613605280826,45.2960415281169,51.26312216884142,-10,-10,10,10,35,25,25,45,45,3.1622776601683795,10,3.1622776601683795,10
16,20,0.05384750000666827,w,41.8,Unlimited Time,i,44.70359820323015,41.81042522540012,34.81479968632476,23.2052265554355,23.2052265554355,34.81479968632476,41.81042522540012,44.70359820323015,-10,-10,10,10,35,25,25,45,45,3.1622776601683795,10,3.1622776601683795,10
17,1,0.20589209999889135,q,33.7,Limited Time - 400ms,h,33.68564418256859,44.14410023905547,26.22055701113338,31.360063299124562,33.68564418256859,26.22055701113338,31.360063299124562,44.14410023905547,-10,-0.33,0.33,10,35,25,34.67,35.33,45,10,10,10,10
17,2,0.07099900000321213,w,49.3,Limited Time - 400ms,h,16.65648694782417,49.266509042333546,46.20594288583726,25.01086773686652,16.65648694782417,46.20594288583726,25.01086773686652,49.266509042333546,-10,-0.33,0.33,10,35,25,34.67,35.33,45,10,10,10,10
17,3,0.057130000001052395,w,51.3,Limited Time - 400ms,h,53.442003757237885,51.3444370103361,47.55203653752739,40.90058189036732,53.442003757237885,47.55203653752739,40.90058189036732,51.3444370103361,-10,-0.33,0.33,10,35,25,34.67,35.33,45,10,10,10,10
17,4,0.0008329999982379377,q,6.4,Limited Time - 400ms,h,6.446527253279424,30.09891239541177,38.516738068778395,30.33749856397543,6.446527253279424,38.516738068778395,30.33749856397543,30.09891239541177,-10,-0.33,0.33,10,35,25,34.67,35.33,45,10,10,10,10
17,5,0.0010679999977583066,w,52.1,Limited Time - 400ms,h,17.55830260703301,52.12607212613416,13.368410625976601,50.097972170552694,17.55830260703301,13.368410625976601,50.097972170552694,52.12607212613416,-10,-0.33,0.33,10,35,25,34.67,35.33,45,10,10,10,10
17,6,0.02539989999786485,q,18.6,Limited Time - 400ms,h,18.558508145396395,52.38208573193539,30.822397819269266,44.33884355498871,18.558508145396395,30.822397819269266,44.33884355498871,52.38208573193539,-10,-0.33,0.33,10,35,25,34.67,35.33,45,10,10,10,10
17,7,0.06978150000213645,w,59.2,Limited Time - 400ms,h,29.556320840827098,59.19063233301609,22.38872496389619,28.60145902485309,29.556320840827098,22.38872496389619,28.60145902485309,59.19063233301609,-10,-0.33,0.33,10,35,25,34.67,35.33,45,10,10,10,10
17,8,0.1582819000032032,q,30.4,Limited Time - 400ms,h,30.429922063177962,41.02534088630304,17.985430101832755,49.54983867181779,30.429922063177962,17.985430101832755,49.54983867181779,41.02534088630304,-10,-0.33,0.33,10,35,25,34.67,35.33,45,10,10,10,10
17,9,0.19638599999598227,w,45.9,Limited Time - 400ms,h,14.165209505114982,45.862492620940415,41.552014789016425,37.576109383525704,14.165209505114982,41.552014789016425,37.576109383525704,45.862492620940415,-10,-0.33,0.33,10,35,25,34.67,35.33,45,10,10,10,10
17,10,0.15954770000826102,w,33.9,Limited Time - 400ms,h,19.11972971966266,33.91470032504421,29.422792517355756,49.13573099008867,19.11972971966266,29.422792517355756,49.13573099008867,33.91470032504421,-10,-0.33,0.33,10,35,25,34.67,35.33,45,10,10,10,10
17,11,0.15275819999806117,w,55.6,Limited Time - 400ms,h,20.0253670747703,55.55563720343882,27.20422700156362,63.99267794217875,20.0253670747703,27.20422700156362,63.99267794217875,55.55563720343882,-10,-0.33,0.33,10,35,25,34.67,35.33,45,10,10,10,10
17,12,0.16247209999710321,w,45.5,Limited Time - 400ms,h,21.62706779548656,45.522047180280445,22.41845828658782,27.916860821267818,21.62706779548656,22.41845828658782,27.916860821267818,45.522047180280445,-10,-0.33,0.33,10,35,25,34.67,35.33,45,10,10,10,10
17,13,0.062680699993507,q,6.2,Limited Time - 400ms,h,6.212376983377254,48.979720077036085,51.58511098395218,44.72210826557172,6.212376983377254,51.58511098395218,44.72210826557172,48.979720077036085,-10,-0.33,0.33,10,35,25,34.67,35.33,45,10,10,10,10
17,14,0.09964670000772458,w,57.5,Limited Time - 400ms,h,29.61923959821879,57.45719552859981,25.149012563427533,19.865834849442273,29.61923959821879,25.149012563427533,19.865834849442273,57.45719552859981,-10,-0.33,0.33,10,35,25,34.67,35.33,45,10,10,10,10
17,15,0.029760699995676987,w,46.6,Limited Time - 400ms,h,32.825342147653195,46.59659389983434,40.91776143336942,34.41888369423531,32.825342147653195,40.91776143336942,34.41888369423531,46.59659389983434,-10,-0.33,0.33,10,35,25,34.67,35.33,45,10,10,10,10
17,16,0.03293679999478627,q,32.9,Limited Time - 400ms,h,32.89696808544659,38.67514833797911,41.46392199993809,43.24892445548777,32.89696808544659,41.46392199993809,43.24892445548777,38.67514833797911,-10,-0.33,0.33,10,35,25,34.67,35.33,45,10,10,10,10
17,17,0.007038099996862002,w,56.4,Limited Time - 400ms,h,22.33179409406631,56.380049734385246,35.095068677724356,37.00500878256428,22.33179409406631,35.095068677724356,37.00500878256428,56.380049734385246,-10,-0.33,0.33,10,35,25,34.67,35.33,45,10,10,10,10
17,18,0.0922666999977082,q,48.6,Limited Time - 400ms,h,48.57889579541434,50.30746966562098,30.388465730159147,24.107769292343107,48.57889579541434,30.388465730159147,24.107769292343107,50.30746966562098,-10,-0.33,0.33,10,35,25,34.67,35.33,45,10,10,10,10
17,19,0.10374690000026021,w,66.4,Limited Time - 400ms,h,17.75656285895088,66.35040308788406,26.538390558052157,21.47302749622446,17.75656285895088,26.538390558052157,21.47302749622446,66.35040308788406,-10,-0.33,0.33,10,35,25,34.67,35.33,45,10,10,10,10
17,20,0.030824500005110167,q,19.2,Limited Time - 400ms,h,19.182040492512396,39.609348371888714,29.288814539035542,34.37676336635719,19.182040492512396,29.288814539035542,34.37676336635719,39.609348371888714,-10,-0.33,0.33,10,35,25,34.67,35.33,45,10,10,10,10
18,1,0.18474409999907948,w,33.7,Limited Time - 800ms,h,44.14410023905547,33.68564418256859,26.22055701113338,31.360063299124562,33.68564418256859,26.22055701113338,31.360063299124562,44.14410023905547,-10,-0.33,0.33,10,35,25,34.67,35.33,45,10,10,10,10
18,2,0.5793790000025183,o,46.2,Limited Time - 800ms,h,49.266509042333546,16.65648694782417,46.20594288583726,25.01086773686652,16.65648694782417,46.20594288583726,25.01086773686652,49.266509042333546,-10,-0.33,0.33,10,35,25,34.67,35.33,45,10,10,10,10
18,3,0.23952210000425112,p,40.9,Limited Time - 800ms,h,51.3444370103361,53.442003757237885,47.55203653752739,40.90058189036732,53.442003757237885,47.55203653752739,40.90058189036732,51.3444370103361,-10,-0.33,0.33,10,35,25,34.67,35.33,45,10,10,10,10
18,4,0.26700500000151806,p,30.3,Limited Time - 800ms,h,30.09891239541177,6.446527253279424,38.516738068778395,30.33749856397543,6.446527253279424,38.516738068778395,30.33749856397543,30.09891239541177,-10,-0.33,0.33,10,35,25,34.67,35.33,45,10,10,10,10
18,5,0.17230069999641273,o,13.4,Limited Time - 800ms,h,52.12607212613416,17.55830260703301,13.368410625976601,50.097972170552694,17.55830260703301,13.368410625976601,50.097972170552694,52.12607212613416,-10,-0.33,0.33,10,35,25,34.67,35.33,45,10,10,10,10
18,6,0.5133629000047222,q,52.4,Limited Time - 800ms,h,52.38208573193539,18.558508145396395,30.822397819269266,44.33884355498871,18.558508145396395,30.822397819269266,44.33884355498871,52.38208573193539,-10,-0.33,0.33,10,35,25,34.67,35.33,45,10,10,10,10
18,7,0.044980900012888014,w,29.6,Limited Time - 800ms,h,59.19063233301609,29.556320840827098,22.38872496389619,28.60145902485309,29.556320840827098,22.38872496389619,28.60145902485309,59.19063233301609,-10,-0.33,0.33,10,35,25,34.67,35.33,45,10,10,10,10
18,8,,,0.0,Limited Time - 800ms,h,41.02534088630304,30.429922063177962,17.985430101832755,49.54983867181779,30.429922063177962,17.985430101832755,49.54983867181779,41.02534088630304,-10,-0.33,0.33,10,35,25,34.67,35.33,45,10,10,10,10
18,9,0.2933450999989873,p,37.6,Limited Time - 800ms,h,45.862492620940415,14.165209505114982,41.552014789016425,37.576109383525704,14.165209505114982,41.552014789016425,37.576109383525704,45.862492620940415,-10,-0.33,0.33,10,35,25,34.67,35.33,45,10,10,10,10
18,10,0.24892630000249483,q,33.9,Limited Time - 800ms,h,33.91470032504421,19.11972971966266,29.422792517355756,49.13573099008867,19.11972971966266,29.422792517355756,49.13573099008867,33.91470032504421,-10,-0.33,0.33,10,35,25,34.67,35.33,45,10,10,10,10
18,11,0.26795579999452457,w,20.0,Limited Time - 800ms,h,55.55563720343882,20.0253670747703,27.20422700156362,63.99267794217875,20.0253670747703,27.20422700156362,63.99267794217875,55.55563720343882,-10,-0.33,0.33,10,35,25,34.67,35.33,45,10,10,10,10
18,12,,,0.0,Limited Time - 800ms,h,45.522047180280445,21.62706779548656,22.41845828658782,27.916860821267818,21.62706779548656,22.41845828658782,27.916860821267818,45.522047180280445,-10,-0.33,0.33,10,35,25,34.67,35.33,45,10,10,10,10
18,13,0.408244599995669,w,6.2,Limited Time - 800ms,h,48.979720077036085,6.212376983377254,51.58511098395218,44.72210826557172,6.212376983377254,51.58511098395218,44.72210826557172,48.979720077036085,-10,-0.33,0.33,10,35,25,34.67,35.33,45,10,10,10,10
18,14,0.10776349999650847,q,57.5,Limited Time - 800ms,h,57.45719552859981,29.61923959821879,25.149012563427533,19.865834849442273,29.61923959821879,25.149012563427533,19.865834849442273,57.45719552859981,-10,-0.33,0.33,10,35,25,34.67,35.33,45,10,10,10,10
