Round Number,Trial Number,Reaction Time,Choice,Reward (Health Points),Time Condition,Payoff Condition,Q mapped,W mapped,O mapped,P mapped,One value,Two value,Three value,Four value,One mean,Two mean,Three mean,Four mean,Mean Shift,One shifted mean,Two shifted mean,Three shifted mean,Four shifted mean,One SD,Two SD,Three SD,Four SD
1,1,0.2796830000006594,o,41.4,Unlimited Time,h,48.11121666086676,41.618585501143414,41.37477950330768,59.72743063782859,41.37477950330768,59.72743063782859,48.11121666086676,41.618585501143414,-10,-0.33,0.33,10,43,33,42.67,43.33,53,10,10,10,10
1,2,0.03438659996027127,p,53.2,Unlimited Time,h,51.554178472275225,59.19033372090359,33.0541706004699,53.16373904026646,33.0541706004699,53.16373904026646,51.554178472275225,59.19033372090359,-10,-0.33,0.33,10,43,33,42.67,43.33,53,10,10,10,10
1,3,0.010142500046640635,q,41.3,Unlimited Time,h,41.340166692418805,54.11040493184944,29.6968031182218,51.501481207047775,29.6968031182218,51.501481207047775,41.340166692418805,54.11040493184944,-10,-0.33,0.33,10,43,33,42.67,43.33,53,10,10,10,10
1,4,0.001476900011766702,p,52.0,Unlimited Time,h,32.81258433162064,44.77949231139741,53.84979050638783,52.02278457104472,53.84979050638783,52.02278457104472,32.81258433162064,44.77949231139741,-10,-0.33,0.33,10,43,33,42.67,43.33,53,10,10,10,10
1,5,0.07667609996860847,p,41.2,Unlimited Time,h,52.72748355759941,53.93421993911947,30.887171962289784,41.19504656430815,30.887171962289784,41.19504656430815,52.72748355759941,53.93421993911947,-10,-0.33,0.33,10,43,33,42.67,43.33,53,10,10,10,10
1,6,0.2944513999973424,w,47.6,Unlimited Time,h,59.48871850715739,47.62936883132349,32.33887166277573,44.71414881067757,32.33887166277573,44.71414881067757,59.48871850715739,47.62936883132349,-10,-0.33,0.33,10,43,33,42.67,43.33,53,10,10,10,10
1,7,0.11657029995694757,q,48.7,Unlimited Time,h,48.74685209165586,59.115249347423315,42.49802945370295,40.845466846527756,42.49802945370295,40.845466846527756,48.74685209165586,59.115249347423315,-10,-0.33,0.33,10,43,33,42.67,43.33,53,10,10,10,10
1,8,0.11536999995587394,p,47.7,Unlimited Time,h,37.25760060087289,53.15116064773937,26.87914575198322,47.68167997690347,26.87914575198322,47.68167997690347,37.25760060087289,53.15116064773937,-10,-0.33,0.33,10,43,33,42.67,43.33,53,10,10,10,10
1,9,0.2187699000351131,o,38.8,Unlimited Time,h,47.330267834760406,33.59984125212404,38.78059870787188,27.279900313185877,38.78059870787188,27.279900313185877,47.330267834760406,33.59984125212404,-10,-0.33,0.33,10,43,33,42.67,43.33,53,10,10,10,10
1,10,0.38761009997688234,q,47.2,Unlimited Time,h,47.15849910820618,40.15557805081863,42.653221497271296,51.4477467729883,42.653221497271296,51.4477467729883,47.15849910820618,40.15557805081863,-10,-0.33,0.33,10,43,33,42.67,43.33,53,10,10,10,10
1,11,0.8003106999676675,q,37.3,Unlimited Time,h,37.300298669735156,55.926136805485235,37.92425382224996,40.035485111874735,37.92425382224996,40.035485111874735,37.300298669735156,55.926136805485235,-10,-0.33,0.33,10,43,33,42.67,43.33,53,10,10,10,10
1,12,0.15356669999891892,w,60.6,Unlimited Time,h,45.891393524190775,60.567813126486406,12.658334151671149,43.72477316686056,12.658334151671149,43.72477316686056,45.891393524190775,60.567813126486406,-10,-0.33,0.33,10,43,33,42.67,43.33,53,10,10,10,10
1,13,0.2647160000051372,w,52.6,Unlimited Time,h,44.22845869294994,52.607983085705825,34.32306566686947,33.70446674592984,34.32306566686947,33.70446674592984,44.22845869294994,52.607983085705825,-10,-0.33,0.33,10,43,33,42.67,43.33,53,10,10,10,10
1,14,0.3698183000087738,o,37.8,Unlimited Time,h,56.162973979186816,51.53566077742346,37.816124943836606,36.1304360402219,37.816124943836606,36.1304360402219,56.162973979186816,51.53566077742346,-10,-0.33,0.33,10,43,33,42.67,43.33,53,10,10,10,10
1,15,0.11393980000866577,p,50.4,Unlimited Time,h,46.1004572140909,59.3023887310107,9.376616069343406,50.37256137232688,9.376616069343406,50.37256137232688,46.1004572140909,59.3023887310107,-10,-0.33,0.33,10,43,33,42.67,43.33,53,10,10,10,10
1,16,0.23626090004108846,p,27.4,Unlimited Time,h,32.86603865429635,57.95311388254604,47.56242453745259,27.383593406230382,47.56242453745259,27.383593406230382,32.86603865429635,57.95311388254604,-10,-0.33,0.33,10,43,33,42.67,43.33,53,10,10,10,10
1,17,0.05975180002860725,p,43.4,Unlimited Time,h,49.90563806553322,50.77364361946407,21.912048250900256,43.39576134888721,21.912048250900256,43.39576134888721,49.90563806553322,50.77364361946407,-10,-0.33,0.33,10,43,33,42.67,43.33,53,10,10,10,10
1,18,0.11294949997682124,p,48.6,Unlimited Time,h,44.41338990440327,53.08382587625548,23.096779137830254,48.63412542282932,23.096779137830254,48.63412542282932,44.41338990440327,53.08382587625548,-10,-0.33,0.33,10,43,33,42.67,43.33,53,10,10,10,10
1,19,0.1478554999921471,p,28.0,Unlimited Time,h,42.05283731796213,56.093216934968446,38.25990976931398,27.95079532717895,38.25990976931398,27.95079532717895,42.05283731796213,56.093216934968446,-10,-0.33,0.33,10,43,33,42.67,43.33,53,10,10,10,10
1,20,0.11906750005437061,w,52.5,Unlimited Time,h,45.53635802540581,52.525174085980765,19.37548069087816,48.08605940857283,19.37548069087816,48.08605940857283,45.53635802540581,52.525174085980765,-10,-0.33,0.33,10,43,33,42.67,43.33,53,10,10,10,10
2,1,0.34878679999383166,o,31.9,Limited Time - 400ms,l,54.29820654894544,42.537832940898014,31.8558730594653,43.45200303982288,31.8558730594653,43.45200303982288,42.537832940898014,54.29820654894544,-10,-0.33,0.33,10,43,33,42.67,43.33,53,3.1622776601683795,3.1622776601683795,3.1622776601683795,3.1622776601683795
2,2,,,0.0,Limited Time - 400ms,l,51.731357352073836,42.57113180876308,32.4349247121055,42.009794257510784,32.4349247121055,42.009794257510784,42.57113180876308,51.731357352073836,-10,-0.33,0.33,10,43,33,42.67,43.33,53,3.1622776601683795,3.1622776601683795,3.1622776601683795,3.1622776601683795
2,3,,,0.0,Limited Time - 400ms,l,53.063716805170465,40.92167904047529,31.84594053038824,44.920190051555714,31.84594053038824,44.920190051555714,40.92167904047529,53.063716805170465,-10,-0.33,0.33,10,43,33,42.67,43.33,53,3.1622776601683795,3.1622776601683795,3.1622776601683795,3.1622776601683795
2,4,,,0.0,Limited Time - 400ms,l,56.788838923709555,43.826394572489264,31.73945636564372,48.468506514415225,31.73945636564372,48.468506514415225,43.826394572489264,56.788838923709555,-10,-0.33,0.33,10,43,33,42.67,43.33,53,3.1622776601683795,3.1622776601683795,3.1622776601683795,3.1622776601683795
2,5,0.2967435999889858,p,39.0,Limited Time - 400ms,l,57.007230678001946,44.79806898688685,33.09672951892321,38.950503886614456,33.09672951892321,38.950503886614456,44.79806898688685,57.007230678001946,-10,-0.33,0.33,10,43,33,42.67,43.33,53,3.1622776601683795,3.1622776601683795,3.1622776601683795,3.1622776601683795
2,6,,,0.0,Limited Time - 400ms,l,51.74752875018639,48.040581324570624,37.49259507011129,43.87097035661973,37.49259507011129,43.87097035661973,48.040581324570624,51.74752875018639,-10,-0.33,0.33,10,43,33,42.67,43.33,53,3.1622776601683795,3.1622776601683795,3.1622776601683795,3.1622776601683795
2,7,,,0.0,Limited Time - 400ms,l,50.86540337981185,42.237860505793975,35.20061639647997,41.95867158177086,35.20061639647997,41.95867158177086,42.237860505793975,50.86540337981185,-10,-0.33,0.33,10,43,33,42.67,43.33,53,3.1622776601683795,3.1622776601683795,3.1622776601683795,3.1622776601683795
2,8,0.08542550000129268,w,45.8,Limited Time - 400ms,l,50.09120441707251,45.78615771014183,34.10505320838362,46.37622448689036,34.10505320838362,46.37622448689036,45.78615771014183,50.09120441707251,-10,-0.33,0.33,10,43,33,42.67,43.33,53,3.1622776601683795,3.1622776601683795,3.1622776601683795,3.1622776601683795
2,9,0.20212570001604035,o,33.0,Limited Time - 400ms,l,53.42768302136063,42.2905719791629,32.96074042368526,40.405152150276734,32.96074042368526,40.405152150276734,42.2905719791629,53.42768302136063,-10,-0.33,0.33,10,43,33,42.67,43.33,53,3.1622776601683795,3.1622776601683795,3.1622776601683795,3.1622776601683795
2,10,,,0.0,Limited Time - 400ms,l,56.51884891261451,45.39371134149551,25.889190608427697,41.27009478854721,25.889190608427697,41.27009478854721,45.39371134149551,56.51884891261451,-10,-0.33,0.33,10,43,33,42.67,43.33,53,3.1622776601683795,3.1622776601683795,3.1622776601683795,3.1622776601683795
2,11,0.2824308999697678,w,38.0,Limited Time - 400ms,l,57.00073354044399,38.004357691007534,38.02866727783709,45.11711556991514,38.02866727783709,45.11711556991514,38.004357691007534,57.00073354044399,-10,-0.33,0.33,10,43,33,42.67,43.33,53,3.1622776601683795,3.1622776601683795,3.1622776601683795,3.1622776601683795
2,12,0.14440280001144856,w,44.8,Limited Time - 400ms,l,59.02585875088986,44.807878062642885,39.93314282263224,43.87725159436875,39.93314282263224,43.87725159436875,44.807878062642885,59.02585875088986,-10,-0.33,0.33,10,43,33,42.67,43.33,53,3.1622776601683795,3.1622776601683795,3.1622776601683795,3.1622776601683795
2,13,,,0.0,Limited Time - 400ms,l,53.28146680125993,36.76877151764509,31.36843594662729,41.92290499035793,31.36843594662729,41.92290499035793,36.76877151764509,53.28146680125993,-10,-0.33,0.33,10,43,33,42.67,43.33,53,3.1622776601683795,3.1622776601683795,3.1622776601683795,3.1622776601683795
2,14,0.3469000000040978,w,40.7,Limited Time - 400ms,l,47.03977187260665,40.69156811524934,31.216512218326237,41.71042133063482,31.216512218326237,41.71042133063482,40.69156811524934,47.03977187260665,-10,-0.33,0.33,10,43,33,42.67,43.33,53,3.1622776601683795,3.1622776601683795,3.1622776601683795,3.1622776601683795
2,15,0.15193950000684708,w,45.9,Limited Time - 400ms,l,53.134886076033204,45.913880072109,26.391983937969094,42.74708383017995,26.391983937969094,42.74708383017995,45.913880072109,53.134886076033204,-10,-0.33,0.33,10,43,33,42.67,43.33,53,3.1622776601683795,3.1622776601683795,3.1622776601683795,3.1622776601683795
2,16,0.054212699993513525,w,49.8,Limited Time - 400ms,l,50.036771903531104,49.84999491632749,32.439132219146536,44.65089685473892,32.439132219146536,44.65089685473892,49.84999491632749,50.036771903531104,-10,-0.33,0.33,10,43,33,42.67,43.33,53,3.1622776601683795,3.1622776601683795,3.1622776601683795,3.1622776601683795
2,17,0.21914310002466664,w,41.3,Limited Time - 400ms,l,50.79246354370935,41.33164596513879,32.86936900902155,43.7308342220985,32.86936900902155,43.7308342220985,41.33164596513879,50.79246354370935,-10,-0.33,0.33,10,43,33,42.67,43.33,53,3.1622776601683795,3.1622776601683795,3.1622776601683795,3.1622776601683795
2,18,0.08186709997244179,w,40.3,Limited Time - 400ms,l,48.617129379260945,40.31355139336324,29.85015035581051,40.80020222256069,29.85015035581051,40.80020222256069,40.31355139336324,48.617129379260945,-10,-0.33,0.33,10,43,33,42.67,43.33,53,3.1622776601683795,3.1622776601683795,3.1622776601683795,3.1622776601683795
2,19,0.268449499970302,w,44.7,Limited Time - 400ms,l,49.57072817309668,44.70091093467593,34.45734468318123,42.01524408159473,34.45734468318123,42.01524408159473,44.70091093467593,49.57072817309668,-10,-0.33,0.33,10,43,33,42.67,43.33,53,3.1622776601683795,3.1622776601683795,3.1622776601683795,3.1622776601683795
2,20,0.13979719998314977,p,43.8,Limited Time - 400ms,l,49.53833606160133,46.22490469665918,32.90934780717168,43.82031518426638,32.90934780717168,43.82031518426638,46.22490469665918,49.53833606160133,-10,-0.33,0.33,10,43,33,42.67,43.33,53,3.1622776601683795,3.1622776601683795,3.1622776601683795,3.1622776601683795
3,1,0.33349400002043694,p,48.1,Limited Time - 800ms,h,41.618585501143414,41.37477950330768,59.72743063782859,48.11121666086676,41.37477950330768,59.72743063782859,48.11121666086676,41.618585501143414,-10,-0.33,0.33,10,43,33,42.67,43.33,53,10,10,10,10
3,2,0.2428209000499919,o,53.2,Limited Time - 800ms,h,59.19033372090359,33.0541706004699,53.16373904026646,51.554178472275225,33.0541706004699,53.16373904026646,51.554178472275225,59.19033372090359,-10,-0.33,0.33,10,43,33,42.67,43.33,53,10,10,10,10
3,3,0.22005919995717704,p,41.3,Limited Time - 800ms,h,54.11040493184944,29.6968031182218,51.501481207047775,41.340166692418805,29.6968031182218,51.501481207047775,41.340166692418805,54.11040493184944,-10,-0.33,0.33,10,43,33,42.67,43.33,53,10,10,10,10
3,4,0.24499579996336251,o,52.0,Limited Time - 800ms,h,44.77949231139741,53.84979050638783,52.02278457104472,32.81258433162064,53.84979050638783,52.02278457104472,32.81258433162064,44.77949231139741,-10,-0.33,0.33,10,43,33,42.67,43.33,53,10,10,10,10
3,5,0.49934069998562336,w,30.9,Limited Time - 800ms,h,53.93421993911947,30.887171962289784,41.19504656430815,52.72748355759941,30.887171962289784,41.19504656430815,52.72748355759941,53.93421993911947,-10,-0.33,0.33,10,43,33,42.67,43.33,53,10,10,10,10
3,6,0.3759307999862358,o,44.7,Limited Time - 800ms,h,47.62936883132349,32.33887166277573,44.71414881067757,59.48871850715739,32.33887166277573,44.71414881067757,59.48871850715739,47.62936883132349,-10,-0.33,0.33,10,43,33,42.67,43.33,53,10,10,10,10
3,7,0.288740600051824,p,48.7,Limited Time - 800ms,h,59.115249347423315,42.49802945370295,40.845466846527756,48.74685209165586,42.49802945370295,40.845466846527756,48.74685209165586,59.115249347423315,-10,-0.33,0.33,10,43,33,42.67,43.33,53,10,10,10,10
3,8,0.48913090000860393,o,47.7,Limited Time - 800ms,h,53.15116064773937,26.87914575198322,47.68167997690347,37.25760060087289,26.87914575198322,47.68167997690347,37.25760060087289,53.15116064773937,-10,-0.33,0.33,10,43,33,42.67,43.33,53,10,10,10,10
3,9,0.3236604999983683,p,47.3,Limited Time - 800ms,h,33.59984125212404,38.78059870787188,27.279900313185877,47.330267834760406,38.78059870787188,27.279900313185877,47.330267834760406,33.59984125212404,-10,-0.33,0.33,10,43,33,42.67,43.33,53,10,10,10,10
3,10,0.5595449000247754,p,47.2,Limited Time - 800ms,h,40.15557805081863,42.653221497271296,51.4477467729883,47.15849910820618,42.653221497271296,51.4477467729883,47.15849910820618,40.15557805081863,-10,-0.33,0.33,10,43,33,42.67,43.33,53,10,10,10,10
3,11,0.3130846000276506,p,37.3,Limited Time - 800ms,h,55.926136805485235,37.92425382224996,40.035485111874735,37.300298669735156,37.92425382224996,40.035485111874735,37.300298669735156,55.926136805485235,-10,-0.33,0.33,10,43,33,42.67,43.33,53,10,10,10,10
3,12,0.12238700001034886,q,60.6,Limited Time - 800ms,h,60.567813126486406,12.658334151671149,43.72477316686056,45.891393524190775,12.658334151671149,43.72477316686056,45.891393524190775,60.567813126486406,-10,-0.33,0.33,10,43,33,42.67,43.33,53,10,10,10,10
3,13,0.3401101999916136,p,44.2,Limited Time - 800ms,h,52.607983085705825,34.32306566686947,33.70446674592984,44.22845869294994,34.32306566686947,33.70446674592984,44.22845869294994,52.607983085705825,-10,-0.33,0.33,10,43,33,42.67,43.33,53,10,10,10,10
3,14,0.22634210000978783,w,37.8,Limited Time - 800ms,h,51.53566077742346,37.816124943836606,36.1304360402219,56.162973979186816,37.816124943836606,36.1304360402219,56.162973979186816,51.53566077742346,-10,-0.33,0.33,10,43,33,42.67,43.33,53,10,10,10,10
3,15,0.31812320003518835,q,59.3,Limited Time - 800ms,h,59.3023887310107,9.376616069343406,50.37256137232688,46.1004572140909,9.376616069343406,50.37256137232688,46.1004572140909,59.3023887310107,-10,-0.33,0.33,10,43,33,42.67,43.33,53,10,10,10,10
3,16,0.4157900999998674,p,32.9,Limited Time - 800ms,h,57.95311388254604,47.56242453745259,27.383593406230382,32.86603865429635,47.56242453745259,27.383593406230382,32.86603865429635,57.95311388254604,-10,-0.33,0.33,10,43,33,42.67,43.33,53,10,10,10,10
3,17,0.2410884999553673,q,50.8,Limited Time - 800ms,h,50.77364361946407,21.912048250900256,43.39576134888721,49.90563806553322,21.912048250900256,43.39576134888721,49.90563806553322,50.77364361946407,-10,-0.33,0.33,10,43,33,42.67,43.33,53,10,10,10,10
3,18,0.2789718999993056,p,44.4,Limited Time - 800ms,h,53.08382587625548,23.096779137830254,48.63412542282932,44.41338990440327,23.096779137830254,48.63412542282932,44.41338990440327,53.08382587625548,-10,-0.33,0.33,10,43,33,42.67,43.33,53,10,10,10,10
3,19,0.057122499973047525,q,56.1,Limited Time - 800ms,h,56.093216934968446,38.25990976931398,27.95079532717895,42.05283731796213,38.25990976931398,27.95079532717895,42.05283731796213,56.093216934968446,-10,-0.33,0.33,10,43,33,42.67,43.33,53,10,10,10,10
3,20,0.4374674999853596,p,45.5,Limited Time - 800ms,h,52.525174085980765,19.37548069087816,48.08605940857283,45.53635802540581,19.37548069087816,48.08605940857283,45.53635802540581,52.525174085980765,-10,-0.33,0.33,10,43,33,42.67,43.33,53,10,10,10,10
4,1,1.1309219999820925,p,48.1,Unlimited Time,h,41.618585501143414,41.37477950330768,59.72743063782859,48.11121666086676,41.37477950330768,59.72743063782859,48.11121666086676,41.618585501143414,-10,-0.33,0.33,10,43,33,42.67,43.33,53,10,10,10,10
4,2,0.6147996999789029,w,33.1,Unlimited Time,h,59.19033372090359,33.0541706004699,53.16373904026646,51.554178472275225,33.0541706004699,53.16373904026646,51.554178472275225,59.19033372090359,-10,-0.33,0.33,10,43,33,42.67,43.33,53,10,10,10,10
4,3,1.1929447000147775,o,51.5,Unlimited Time,h,54.11040493184944,29.6968031182218,51.501481207047775,41.340166692418805,29.6968031182218,51.501481207047775,41.340166692418805,54.11040493184944,-10,-0.33,0.33,10,43,33,42.67,43.33,53,10,10,10,10
4,4,0.9626024999888614,q,44.8,Unlimited Time,h,44.77949231139741,53.84979050638783,52.02278457104472,32.81258433162064,53.84979050638783,52.02278457104472,32.81258433162064,44.77949231139741,-10,-0.33,0.33,10,43,33,42.67,43.33,53,10,10,10,10
4,5,0.39735849999124184,o,41.2,Unlimited Time,h,53.93421993911947,30.887171962289784,41.19504656430815,52.72748355759941,30.887171962289784,41.19504656430815,52.72748355759941,53.93421993911947,-10,-0.33,0.33,10,43,33,42.67,43.33,53,10,10,10,10
4,6,0.39871259999927133,p,59.5,Unlimited Time,h,47.62936883132349,32.33887166277573,44.71414881067757,59.48871850715739,32.33887166277573,44.71414881067757,59.48871850715739,47.62936883132349,-10,-0.33,0.33,10,43,33,42.67,43.33,53,10,10,10,10
4,7,0.7829568000161089,p,48.7,Unlimited Time,h,59.115249347423315,42.49802945370295,40.845466846527756,48.74685209165586,42.49802945370295,40.845466846527756,48.74685209165586,59.115249347423315,-10,-0.33,0.33,10,43,33,42.67,43.33,53,10,10,10,10
4,8,1.251906399964355,w,26.9,Unlimited Time,h,53.15116064773937,26.87914575198322,47.68167997690347,37.25760060087289,26.87914575198322,47.68167997690347,37.25760060087289,53.15116064773937,-10,-0.33,0.33,10,43,33,42.67,43.33,53,10,10,10,10
4,9,0.5498962000128813,q,33.6,Unlimited Time,h,33.59984125212404,38.78059870787188,27.279900313185877,47.330267834760406,38.78059870787188,27.279900313185877,47.330267834760406,33.59984125212404,-10,-0.33,0.33,10,43,33,42.67,43.33,53,10,10,10,10
4,10,0.31727840000530705,p,47.2,Unlimited Time,h,40.15557805081863,42.653221497271296,51.4477467729883,47.15849910820618,42.653221497271296,51.4477467729883,47.15849910820618,40.15557805081863,-10,-0.33,0.33,10,43,33,42.67,43.33,53,10,10,10,10
4,11,1.1518330000108108,o,40.0,Unlimited Time,h,55.926136805485235,37.92425382224996,40.035485111874735,37.300298669735156,37.92425382224996,40.035485111874735,37.300298669735156,55.926136805485235,-10,-0.33,0.33,10,43,33,42.67,43.33,53,10,10,10,10
4,12,0.45634969999082386,p,45.9,Unlimited Time,h,60.567813126486406,12.658334151671149,43.72477316686056,45.891393524190775,12.658334151671149,43.72477316686056,45.891393524190775,60.567813126486406,-10,-0.33,0.33,10,43,33,42.67,43.33,53,10,10,10,10
4,13,0.6398390999529511,p,44.2,Unlimited Time,h,52.607983085705825,34.32306566686947,33.70446674592984,44.22845869294994,34.32306566686947,33.70446674592984,44.22845869294994,52.607983085705825,-10,-0.33,0.33,10,43,33,42.67,43.33,53,10,10,10,10
4,14,1.17330220004078,o,36.1,Unlimited Time,h,51.53566077742346,37.816124943836606,36.1304360402219,56.162973979186816,37.816124943836606,36.1304360402219,56.162973979186816,51.53566077742346,-10,-0.33,0.33,10,43,33,42.67,43.33,53,10,10,10,10
4,15,0.368875999993179,q,59.3,Unlimited Time,h,59.3023887310107,9.376616069343406,50.37256137232688,46.1004572140909,9.376616069343406,50.37256137232688,46.1004572140909,59.3023887310107,-10,-0.33,0.33,10,43,33,42.67,43.33,53,10,10,10,10
4,16,1.6950174999656156,q,58.0,Unlimited Time,h,57.95311388254604,47.56242453745259,27.383593406230382,32.86603865429635,47.56242453745259,27.383593406230382,32.86603865429635,57.95311388254604,-10,-0.33,0.33,10,43,33,42.67,43.33,53,10,10,10,10
4,17,1.1342911999672651,p,49.9,Unlimited Time,h,50.77364361946407,21.912048250900256,43.39576134888721,49.90563806553322,21.912048250900256,43.39576134888721,49.90563806553322,50.77364361946407,-10,-0.33,0.33,10,43,33,42.67,43.33,53,10,10,10,10
4,18,0.8049700999981724,o,48.6,Unlimited Time,h,53.08382587625548,23.096779137830254,48.63412542282932,44.41338990440327,23.096779137830254,48.63412542282932,44.41338990440327,53.08382587625548,-10,-0.33,0.33,10,43,33,42.67,43.33,53,10,10,10,10
4,19,0.4948053000262007,p,42.1,Unlimited Time,h,56.093216934968446,38.25990976931398,27.95079532717895,42.05283731796213,38.25990976931398,27.95079532717895,42.05283731796213,56.093216934968446,-10,-0.33,0.33,10,43,33,42.67,43.33,53,10,10,10,10
4,20,0.29026969999540597,q,52.5,Unlimited Time,h,52.525174085980765,19.37548069087816,48.08605940857283,45.53635802540581,19.37548069087816,48.08605940857283,45.53635802540581,52.525174085980765,-10,-0.33,0.33,10,43,33,42.67,43.33,53,10,10,10,10
5,1,,,0.0,Limited Time - 400ms,h,41.618585501143414,59.72743063782859,48.11121666086676,41.37477950330768,41.37477950330768,59.72743063782859,48.11121666086676,41.618585501143414,-10,-0.33,0.33,10,43,33,42.67,43.33,53,10,10,10,10
5,2,,,0.0,Limited Time - 400ms,h,59.19033372090359,53.16373904026646,51.554178472275225,33.0541706004699,33.0541706004699,53.16373904026646,51.554178472275225,59.19033372090359,-10,-0.33,0.33,10,43,33,42.67,43.33,53,10,10,10,10
5,3,,,0.0,Limited Time - 400ms,h,54.11040493184944,51.501481207047775,41.340166692418805,29.6968031182218,29.6968031182218,51.501481207047775,41.340166692418805,54.11040493184944,-10,-0.33,0.33,10,43,33,42.67,43.33,53,10,10,10,10
5,4,0.2504077000194229,q,44.8,Limited Time - 400ms,h,44.77949231139741,52.02278457104472,32.81258433162064,53.84979050638783,53.84979050638783,52.02278457104472,32.81258433162064,44.77949231139741,-10,-0.33,0.33,10,43,33,42.67,43.33,53,10,10,10,10
5,5,,,0.0,Limited Time - 400ms,h,53.93421993911947,41.19504656430815,52.72748355759941,30.887171962289784,30.887171962289784,41.19504656430815,52.72748355759941,53.93421993911947,-10,-0.33,0.33,10,43,33,42.67,43.33,53,10,10,10,10
5,6,0.32421490002889186,w,44.7,Limited Time - 400ms,h,47.62936883132349,44.71414881067757,59.48871850715739,32.33887166277573,32.33887166277573,44.71414881067757,59.48871850715739,47.62936883132349,-10,-0.33,0.33,10,43,33,42.67,43.33,53,10,10,10,10
5,7,0.08996569999726489,w,40.8,Limited Time - 400ms,h,59.115249347423315,40.845466846527756,48.74685209165586,42.49802945370295,42.49802945370295,40.845466846527756,48.74685209165586,59.115249347423315,-10,-0.33,0.33,10,43,33,42.67,43.33,53,10,10,10,10
5,8,0.07189329998800531,w,47.7,Limited Time - 400ms,h,53.15116064773937,47.68167997690347,37.25760060087289,26.87914575198322,26.87914575198322,47.68167997690347,37.25760060087289,53.15116064773937,-10,-0.33,0.33,10,43,33,42.67,43.33,53,10,10,10,10
5,9,,,0.0,Limited Time - 400ms,h,33.59984125212404,27.279900313185877,47.330267834760406,38.78059870787188,38.78059870787188,27.279900313185877,47.330267834760406,33.59984125212404,-10,-0.33,0.33,10,43,33,42.67,43.33,53,10,10,10,10
5,10,0.11137009999947622,o,47.2,Limited Time - 400ms,h,40.15557805081863,51.4477467729883,47.15849910820618,42.653221497271296,42.653221497271296,51.4477467729883,47.15849910820618,40.15557805081863,-10,-0.33,0.33,10,43,33,42.67,43.33,53,10,10,10,10
5,11,,,0.0,Limited Time - 400ms,h,55.926136805485235,40.035485111874735,37.300298669735156,37.92425382224996,37.92425382224996,40.035485111874735,37.300298669735156,55.926136805485235,-10,-0.33,0.33,10,43,33,42.67,43.33,53,10,10,10,10
5,12,0.2854885999695398,p,12.7,Limited Time - 400ms,h,60.567813126486406,43.72477316686056,45.891393524190775,12.658334151671149,12.658334151671149,43.72477316686056,45.891393524190775,60.567813126486406,-10,-0.33,0.33,10,43,33,42.67,43.33,53,10,10,10,10
5,13,0.3394550000084564,o,44.2,Limited Time - 400ms,h,52.607983085705825,33.70446674592984,44.22845869294994,34.32306566686947,34.32306566686947,33.70446674592984,44.22845869294994,52.607983085705825,-10,-0.33,0.33,10,43,33,42.67,43.33,53,10,10,10,10
5,14,,,0.0,Limited Time - 400ms,h,51.53566077742346,36.1304360402219,56.162973979186816,37.816124943836606,37.816124943836606,36.1304360402219,56.162973979186816,51.53566077742346,-10,-0.33,0.33,10,43,33,42.67,43.33,53,10,10,10,10
5,15,0.09819140000035986,w,50.4,Limited Time - 400ms,h,59.3023887310107,50.37256137232688,46.1004572140909,9.376616069343406,9.376616069343406,50.37256137232688,46.1004572140909,59.3023887310107,-10,-0.33,0.33,10,43,33,42.67,43.33,53,10,10,10,10
5,16,,,0.0,Limited Time - 400ms,h,57.95311388254604,27.383593406230382,32.86603865429635,47.56242453745259,47.56242453745259,27.383593406230382,32.86603865429635,57.95311388254604,-10,-0.33,0.33,10,43,33,42.67,43.33,53,10,10,10,10
5,17,0.2924468000419438,w,43.4,Limited Time - 400ms,h,50.77364361946407,43.39576134888721,49.90563806553322,21.912048250900256,21.912048250900256,43.39576134888721,49.90563806553322,50.77364361946407,-10,-0.33,0.33,10,43,33,42.67,43.33,53,10,10,10,10
5,18,0.2390610000002198,w,48.6,Limited Time - 400ms,h,53.08382587625548,48.63412542282932,44.41338990440327,23.096779137830254,23.096779137830254,48.63412542282932,44.41338990440327,53.08382587625548,-10,-0.33,0.33,10,43,33,42.67,43.33,53,10,10,10,10
5,19,0.28074760001618415,w,28.0,Limited Time - 400ms,h,56.093216934968446,27.95079532717895,42.05283731796213,38.25990976931398,38.25990976931398,27.95079532717895,42.05283731796213,56.093216934968446,-10,-0.33,0.33,10,43,33,42.67,43.33,53,10,10,10,10
5,20,,,0.0,Limited Time - 400ms,h,52.525174085980765,48.08605940857283,45.53635802540581,19.37548069087816,19.37548069087816,48.08605940857283,45.53635802540581,52.525174085980765,-10,-0.33,0.33,10,43,33,42.67,43.33,53,10,10,10,10
6,1,0.351442200015299,p,43.1,Limited Time - 800ms,e,36.52884815420819,51.98001550754136,47.367527842966666,43.055419082149854,47.367527842966666,43.055419082149854,51.98001550754136,36.52884815420819,0,0,0,0,43,43,43,43,43,3.1622776601683795,6.324555320336759,8.366600265340756,10
6,2,0.1646144000114873,w,43.1,Limited Time - 800ms,e,38.781088811353015,43.11580812836571,39.73450740308121,49.85550267800339,39.73450740308121,49.85550267800339,43.11580812836571,38.781088811353015,0,0,0,0,43,43,43,43,43,3.1622776601683795,6.324555320336759,8.366600265340756,10
6,3,0.041632200009189546,w,31.2,Limited Time - 800ms,e,45.71372438293129,31.220077821191925,42.42726813430448,28.34339718049249,42.42726813430448,28.34339718049249,31.220077821191925,45.71372438293129,0,0,0,0,43,43,43,43,43,3.1622776601683795,6.324555320336759,8.366600265340756,10
6,4,0.06864400004269555,w,39.1,Limited Time - 800ms,e,30.0809672052904,39.0834911913668,43.19087383994595,38.59833936828106,43.19087383994595,38.59833936828106,39.0834911913668,30.0809672052904,0,0,0,0,43,43,43,43,43,3.1622776601683795,6.324555320336759,8.366600265340756,10
6,5,0.48073939996538684,p,53.7,Limited Time - 800ms,e,30.335851054452085,55.4946035522916,48.28847717168483,53.714277112972574,48.28847717168483,53.714277112972574,55.4946035522916,30.335851054452085,0,0,0,0,43,43,43,43,43,3.1622776601683795,6.324555320336759,8.366600265340756,10
6,6,0.12796889996388927,w,40.4,Limited Time - 800ms,e,49.540356985091364,40.374570745760806,43.73323289123855,41.239805301592384,43.73323289123855,41.239805301592384,40.374570745760806,49.540356985091364,0,0,0,0,43,43,43,43,43,3.1622776601683795,6.324555320336759,8.366600265340756,10
6,7,0.12276260001817718,p,51.1,Limited Time - 800ms,e,45.82184003063485,58.52291954694931,44.27459263814274,51.12497510399552,44.27459263814274,51.12497510399552,58.52291954694931,45.82184003063485,0,0,0,0,43,43,43,43,43,3.1622776601683795,6.324555320336759,8.366600265340756,10
6,8,0.2253021999495104,w,58.2,Limited Time - 800ms,e,67.47571536460785,58.22364013027823,43.77484966417663,47.881769900549344,43.77484966417663,47.881769900549344,58.22364013027823,67.47571536460785,0,0,0,0,43,43,43,43,43,3.1622776601683795,6.324555320336759,8.366600265340756,10
6,9,0.2774162000278011,p,36.7,Limited Time - 800ms,e,33.281770173112065,52.09193309910423,44.10257928993805,36.730305269063,44.10257928993805,36.730305269063,52.09193309910423,33.281770173112065,0,0,0,0,43,43,43,43,43,3.1622776601683795,6.324555320336759,8.366600265340756,10
6,10,0.5657730000093579,w,37.8,Limited Time - 800ms,e,40.43600034695382,37.84205113379767,42.8736754563465,39.14626503997215,42.8736754563465,39.14626503997215,37.84205113379767,40.43600034695382,0,0,0,0,43,43,43,43,43,3.1622776601683795,6.324555320336759,8.366600265340756,10
6,11,0.25933480000821874,q,44.1,Limited Time - 800ms,e,44.06779554384025,58.045831761347785,42.68866440001195,44.98042212718015,42.68866440001195,44.98042212718015,58.045831761347785,44.06779554384025,0,0,0,0,43,43,43,43,43,3.1622776601683795,6.324555320336759,8.366600265340756,10
6,12,0.27093719999538735,p,43.8,Limited Time - 800ms,e,44.946795982882676,52.090134704118356,43.07806622544012,43.83699034891813,43.07806622544012,43.83699034891813,52.090134704118356,44.946795982882676,0,0,0,0,43,43,43,43,43,3.1622776601683795,6.324555320336759,8.366600265340756,10
6,13,0.308514499978628,q,31.6,Limited Time - 800ms,e,31.642424839117293,49.90970245601588,49.20434083105017,48.992299916703146,49.20434083105017,48.992299916703146,49.90970245601588,31.642424839117293,0,0,0,0,43,43,43,43,43,3.1622776601683795,6.324555320336759,8.366600265340756,10
6,14,0.149126400006935,o,43.7,Limited Time - 800ms,e,47.29302742483708,42.12905210377914,43.66073626749281,39.02068746067439,43.66073626749281,39.02068746067439,42.12905210377914,47.29302742483708,0,0,0,0,43,43,43,43,43,3.1622776601683795,6.324555320336759,8.366600265340756,10
6,15,0.11966109997592866,q,27.1,Limited Time - 800ms,e,27.132826974989285,50.07428395424186,42.5981271021459,45.52585176259467,42.5981271021459,45.52585176259467,50.07428395424186,27.132826974989285,0,0,0,0,43,43,43,43,43,3.1622776601683795,6.324555320336759,8.366600265340756,10
6,16,0.3506923000095412,p,35.1,Limited Time - 800ms,e,36.296460299103906,33.15324757197946,48.34818211425751,35.091981909891075,48.34818211425751,35.091981909891075,33.15324757197946,36.296460299103906,0,0,0,0,43,43,43,43,43,3.1622776601683795,6.324555320336759,8.366600265340756,10
6,17,0.26417530002072453,w,25.8,Limited Time - 800ms,e,41.81683566301492,25.84629508966757,41.21081067463991,41.52065284617059,41.21081067463991,41.52065284617059,25.84629508966757,41.81683566301492,0,0,0,0,43,43,43,43,43,3.1622776601683795,6.324555320336759,8.366600265340756,10
6,18,0.18930000002728775,p,37.9,Limited Time - 800ms,e,42.46369313309812,58.39913177829308,37.86120972367536,37.94793901089253,37.86120972367536,37.94793901089253,58.39913177829308,42.46369313309812,0,0,0,0,43,43,43,43,43,3.1622776601683795,6.324555320336759,8.366600265340756,10
6,19,0.1310931000043638,w,55.6,Limited Time - 800ms,e,36.27754198348792,55.55342123874718,48.498802426455725,48.18324477130481,48.498802426455725,48.18324477130481,55.55342123874718,36.27754198348792,0,0,0,0,43,43,43,43,43,3.1622776601683795,6.324555320336759,8.366600265340756,10
6,20,0.22745430003851652,p,42.8,Limited Time - 800ms,e,33.836005068784715,34.034010210821464,45.25400787293522,42.80930252239442,45.25400787293522,42.80930252239442,34.034010210821464,33.836005068784715,0,0,0,0,43,43,43,43,43,3.1622776601683795,6.324555320336759,8.366600265340756,10
7,1,0.34040429996093735,p,54.3,Unlimited Time,i,58.27818347044064,34.850885059045225,34.67394621808321,54.28764464346618,34.67394621808321,34.850885059045225,58.27818347044064,54.28764464346618,-10,-10,10,10,43,33,33,53,53,3.1622776601683795,10,3.1622776601683795,10
7,2,0.5524234000477009,o,37.1,Unlimited Time,i,47.885748876829936,31.662218839140294,37.061722934129804,47.78275201265029,37.061722934129804,31.662218839140294,47.885748876829936,47.78275201265029,-10,-10,10,10,43,33,33,53,53,3.1622776601683795,10,3.1622776601683795,10
7,3,0.40084480005316436,w,39.0,Unlimited Time,i,54.00360419372381,38.957694792978614,34.57244399641339,48.10327410590534,34.57244399641339,38.957694792978614,54.00360419372381,48.10327410590534,-10,-10,10,10,43,33,33,53,53,3.1622776601683795,10,3.1622776601683795,10
7,4,0.5142993000335991,p,46.4,Unlimited Time,i,53.038920650763586,33.118092469790156,33.889277947790696,46.374381850549575,33.889277947790696,33.118092469790156,53.038920650763586,46.374381850549575,-10,-10,10,10,43,33,33,53,53,3.1622776601683795,10,3.1622776601683795,10
7,5,0.424031600006856,q,48.3,Unlimited Time,i,48.25373228880796,37.15847830602772,35.9614009616518,50.83370533763632,35.9614009616518,37.15847830602772,48.25373228880796,50.83370533763632,-10,-10,10,10,43,33,33,53,53,3.1622776601683795,10,3.1622776601683795,10
7,6,0.4331984000164084,p,37.3,Unlimited Time,i,53.03028039345466,34.76868866858984,33.29834616950528,37.281316708595085,33.29834616950528,34.76868866858984,53.03028039345466,37.281316708595085,-10,-10,10,10,43,33,33,53,53,3.1622776601683795,10,3.1622776601683795,10
7,7,0.44750690000364557,o,34.0,Unlimited Time,i,49.44009713645453,36.66807010430307,34.017467958702454,66.13582430965945,34.017467958702454,36.66807010430307,49.44009713645453,66.13582430965945,-10,-10,10,10,43,33,33,53,53,3.1622776601683795,10,3.1622776601683795,10
7,8,0.5037125999806449,q,54.7,Unlimited Time,i,54.711969240985816,27.59393989173844,32.44539974707978,44.684323309385036,32.44539974707978,27.59393989173844,54.711969240985816,44.684323309385036,-10,-10,10,10,43,33,33,53,53,3.1622776601683795,10,3.1622776601683795,10
7,9,0.664851000008639,q,52.0,Unlimited Time,i,52.03417386246146,34.846332700273564,28.017500156334382,62.09175671054744,28.017500156334382,34.846332700273564,52.03417386246146,62.09175671054744,-10,-10,10,10,43,33,33,53,53,3.1622776601683795,10,3.1622776601683795,10
7,10,0.987644899985753,p,50.9,Unlimited Time,i,56.25933598399261,26.183721930583985,30.665469591315926,50.92601150758059,30.665469591315926,26.183721930583985,56.25933598399261,50.92601150758059,-10,-10,10,10,43,33,33,53,53,3.1622776601683795,10,3.1622776601683795,10
7,11,1.0772283999831416,w,36.4,Unlimited Time,i,51.28175988858287,36.44682469597672,34.71980289373655,50.79150690401481,34.71980289373655,36.44682469597672,51.28175988858287,50.79150690401481,-10,-10,10,10,43,33,33,53,53,3.1622776601683795,10,3.1622776601683795,10
7,12,0.5602920000092126,p,54.9,Unlimited Time,i,52.77018064847582,41.91618923336176,25.513865942080535,54.90578187779806,25.513865942080535,41.91618923336176,52.77018064847582,54.90578187779806,-10,-10,10,10,43,33,33,53,53,3.1622776601683795,10,3.1622776601683795,10
7,13,3.0168154999846593,p,42.7,Unlimited Time,i,47.61911054781927,23.823973031753027,38.18771092403249,42.72534665585001,38.18771092403249,23.823973031753027,47.61911054781927,42.72534665585001,-10,-10,10,10,43,33,33,53,53,3.1622776601683795,10,3.1622776601683795,10
7,14,0.890561800042633,w,37.6,Unlimited Time,i,49.92246440539741,37.57093749100359,31.735421313028485,52.27459771761265,31.735421313028485,37.57093749100359,49.92246440539741,52.27459771761265,-10,-10,10,10,43,33,33,53,53,3.1622776601683795,10,3.1622776601683795,10
7,15,0.4230478000245057,o,34.0,Unlimited Time,i,50.04852546003514,34.93043232358745,34.042542104809584,46.667627631672346,34.042542104809584,34.93043232358745,50.04852546003514,46.667627631672346,-10,-10,10,10,43,33,33,53,53,3.1622776601683795,10,3.1622776601683795,10
7,16,0.3329866999993101,q,55.2,Unlimited Time,i,55.16940404549498,32.26449988720159,35.1783328215165,57.85250706822121,35.1783328215165,32.26449988720159,55.16940404549498,57.85250706822121,-10,-10,10,10,43,33,33,53,53,3.1622776601683795,10,3.1622776601683795,10
7,17,1.0796045000315644,q,51.9,Unlimited Time,i,51.88902303330022,34.389660901261266,31.831432900764394,57.762677975117214,31.831432900764394,34.389660901261266,51.88902303330022,57.762677975117214,-10,-10,10,10,43,33,33,53,53,3.1622776601683795,10,3.1622776601683795,10
7,18,0.8566681999946013,p,38.4,Unlimited Time,i,52.40392142235348,51.67821554167391,31.28476851647178,38.410640848368196,31.28476851647178,51.67821554167391,52.40392142235348,38.410640848368196,-10,-10,10,10,43,33,33,53,53,3.1622776601683795,10,3.1622776601683795,10
7,19,0.50487050000811,o,29.6,Unlimited Time,i,51.10178362202574,27.106712468887398,29.62362390333265,72.14943040651204,29.62362390333265,27.106712468887398,51.10178362202574,72.14943040651204,-10,-10,10,10,43,33,33,53,53,3.1622776601683795,10,3.1622776601683795,10
7,20,0.5995865000295453,w,27.8,Unlimited Time,i,49.3863190732675,27.81151935829344,28.260789304898175,48.82388492541054,28.260789304898175,27.81151935829344,49.3863190732675,48.82388492541054,-10,-10,10,10,43,33,33,53,53,3.1622776601683795,10,3.1622776601683795,10
8,1,0.30540479999035597,p,31.9,Limited Time - 400ms,l,42.537832940898014,43.45200303982288,54.29820654894544,31.8558730594653,31.8558730594653,43.45200303982288,42.537832940898014,54.29820654894544,-10,-0.33,0.33,10,43,33,42.67,43.33,53,3.1622776601683795,3.1622776601683795,3.1622776601683795,3.1622776601683795
8,2,0.19462010002462193,w,42.0,Limited Time - 400ms,l,42.57113180876308,42.009794257510784,51.731357352073836,32.4349247121055,32.4349247121055,42.009794257510784,42.57113180876308,51.731357352073836,-10,-0.33,0.33,10,43,33,42.67,43.33,53,3.1622776601683795,3.1622776601683795,3.1622776601683795,3.1622776601683795
8,3,0.2151716000516899,p,31.8,Limited Time - 400ms,l,40.92167904047529,44.920190051555714,53.063716805170465,31.84594053038824,31.84594053038824,44.920190051555714,40.92167904047529,53.063716805170465,-10,-0.33,0.33,10,43,33,42.67,43.33,53,3.1622776601683795,3.1622776601683795,3.1622776601683795,3.1622776601683795
8,4,0.2607191000133753,o,56.8,Limited Time - 400ms,l,43.826394572489264,48.468506514415225,56.788838923709555,31.73945636564372,31.73945636564372,48.468506514415225,43.826394572489264,56.788838923709555,-10,-0.33,0.33,10,43,33,42.67,43.33,53,3.1622776601683795,3.1622776601683795,3.1622776601683795,3.1622776601683795
8,5,0.3049287000321783,o,57.0,Limited Time - 400ms,l,44.79806898688685,38.950503886614456,57.007230678001946,33.09672951892321,33.09672951892321,38.950503886614456,44.79806898688685,57.007230678001946,-10,-0.33,0.33,10,43,33,42.67,43.33,53,3.1622776601683795,3.1622776601683795,3.1622776601683795,3.1622776601683795
8,6,,,0.0,Limited Time - 400ms,l,48.040581324570624,43.87097035661973,51.74752875018639,37.49259507011129,37.49259507011129,43.87097035661973,48.040581324570624,51.74752875018639,-10,-0.33,0.33,10,43,33,42.67,43.33,53,3.1622776601683795,3.1622776601683795,3.1622776601683795,3.1622776601683795
8,7,,,0.0,Limited Time - 400ms,l,42.237860505793975,41.95867158177086,50.86540337981185,35.20061639647997,35.20061639647997,41.95867158177086,42.237860505793975,50.86540337981185,-10,-0.33,0.33,10,43,33,42.67,43.33,53,3.1622776601683795,3.1622776601683795,3.1622776601683795,3.1622776601683795
8,8,0.26518580003175884,o,50.1,Limited Time - 400ms,l,45.78615771014183,46.37622448689036,50.09120441707251,34.10505320838362,34.10505320838362,46.37622448689036,45.78615771014183,50.09120441707251,-10,-0.33,0.33,10,43,33,42.67,43.33,53,3.1622776601683795,3.1622776601683795,3.1622776601683795,3.1622776601683795
8,9,0.27214090002235025,o,53.4,Limited Time - 400ms,l,42.2905719791629,40.405152150276734,53.42768302136063,32.96074042368526,32.96074042368526,40.405152150276734,42.2905719791629,53.42768302136063,-10,-0.33,0.33,10,43,33,42.67,43.33,53,3.1622776601683795,3.1622776601683795,3.1622776601683795,3.1622776601683795
8,10,0.3183405000017956,o,56.5,Limited Time - 400ms,l,45.39371134149551,41.27009478854721,56.51884891261451,25.889190608427697,25.889190608427697,41.27009478854721,45.39371134149551,56.51884891261451,-10,-0.33,0.33,10,43,33,42.67,43.33,53,3.1622776601683795,3.1622776601683795,3.1622776601683795,3.1622776601683795
8,11,,,0.0,Limited Time - 400ms,l,38.004357691007534,45.11711556991514,57.00073354044399,38.02866727783709,38.02866727783709,45.11711556991514,38.004357691007534,57.00073354044399,-10,-0.33,0.33,10,43,33,42.67,43.33,53,3.1622776601683795,3.1622776601683795,3.1622776601683795,3.1622776601683795
8,12,,,0.0,Limited Time - 400ms,l,44.807878062642885,43.87725159436875,59.02585875088986,39.93314282263224,39.93314282263224,43.87725159436875,44.807878062642885,59.02585875088986,-10,-0.33,0.33,10,43,33,42.67,43.33,53,3.1622776601683795,3.1622776601683795,3.1622776601683795,3.1622776601683795
8,13,,,0.0,Limited Time - 400ms,l,36.76877151764509,41.92290499035793,53.28146680125993,31.36843594662729,31.36843594662729,41.92290499035793,36.76877151764509,53.28146680125993,-10,-0.33,0.33,10,43,33,42.67,43.33,53,3.1622776601683795,3.1622776601683795,3.1622776601683795,3.1622776601683795
8,14,0.3283975999802351,o,47.0,Limited Time - 400ms,l,40.69156811524934,41.71042133063482,47.03977187260665,31.216512218326237,31.216512218326237,41.71042133063482,40.69156811524934,47.03977187260665,-10,-0.33,0.33,10,43,33,42.67,43.33,53,3.1622776601683795,3.1622776601683795,3.1622776601683795,3.1622776601683795
8,15,0.2839407999999821,o,53.1,Limited Time - 400ms,l,45.913880072109,42.74708383017995,53.134886076033204,26.391983937969094,26.391983937969094,42.74708383017995,45.913880072109,53.134886076033204,-10,-0.33,0.33,10,43,33,42.67,43.33,53,3.1622776601683795,3.1622776601683795,3.1622776601683795,3.1622776601683795
8,16,0.26548569998703897,o,50.0,Limited Time - 400ms,l,49.84999491632749,44.65089685473892,50.036771903531104,32.439132219146536,32.439132219146536,44.65089685473892,49.84999491632749,50.036771903531104,-10,-0.33,0.33,10,43,33,42.67,43.33,53,3.1622776601683795,3.1622776601683795,3.1622776601683795,3.1622776601683795
8,17,,,0.0,Limited Time - 400ms,l,41.33164596513879,43.7308342220985,50.79246354370935,32.86936900902155,32.86936900902155,43.7308342220985,41.33164596513879,50.79246354370935,-10,-0.33,0.33,10,43,33,42.67,43.33,53,3.1622776601683795,3.1622776601683795,3.1622776601683795,3.1622776601683795
8,18,0.2577606000122614,w,40.8,Limited Time - 400ms,l,40.31355139336324,40.80020222256069,48.617129379260945,29.85015035581051,29.85015035581051,40.80020222256069,40.31355139336324,48.617129379260945,-10,-0.33,0.33,10,43,33,42.67,43.33,53,3.1622776601683795,3.1622776601683795,3.1622776601683795,3.1622776601683795
8,19,0.2273871999932453,w,42.0,Limited Time - 400ms,l,44.70091093467593,42.01524408159473,49.57072817309668,34.45734468318123,34.45734468318123,42.01524408159473,44.70091093467593,49.57072817309668,-10,-0.33,0.33,10,43,33,42.67,43.33,53,3.1622776601683795,3.1622776601683795,3.1622776601683795,3.1622776601683795
8,20,0.13379280001390725,w,43.8,Limited Time - 400ms,l,46.22490469665918,43.82031518426638,49.53833606160133,32.90934780717168,32.90934780717168,43.82031518426638,46.22490469665918,49.53833606160133,-10,-0.33,0.33,10,43,33,42.67,43.33,53,3.1622776601683795,3.1622776601683795,3.1622776601683795,3.1622776601683795
9,1,0.28694800002267584,o,36.5,Limited Time - 800ms,e,51.98001550754136,43.055419082149854,36.52884815420819,47.367527842966666,47.367527842966666,43.055419082149854,51.98001550754136,36.52884815420819,0,0,0,0,43,43,43,43,43,3.1622776601683795,6.324555320336759,8.366600265340756,10
9,2,0.04920249996939674,o,38.8,Limited Time - 800ms,e,43.11580812836571,49.85550267800339,38.781088811353015,39.73450740308121,39.73450740308121,49.85550267800339,43.11580812836571,38.781088811353015,0,0,0,0,43,43,43,43,43,3.1622776601683795,6.324555320336759,8.366600265340756,10
9,3,0.23090660001616925,p,42.4,Limited Time - 800ms,e,31.220077821191925,28.34339718049249,45.71372438293129,42.42726813430448,42.42726813430448,28.34339718049249,31.220077821191925,45.71372438293129,0,0,0,0,43,43,43,43,43,3.1622776601683795,6.324555320336759,8.366600265340756,10
9,4,0.4955500000505708,w,38.6,Limited Time - 800ms,e,39.0834911913668,38.59833936828106,30.0809672052904,43.19087383994595,43.19087383994595,38.59833936828106,39.0834911913668,30.0809672052904,0,0,0,0,43,43,43,43,43,3.1622776601683795,6.324555320336759,8.366600265340756,10
9,5,0.22204309998778626,q,55.5,Limited Time - 800ms,e,55.4946035522916,53.714277112972574,30.335851054452085,48.28847717168483,48.28847717168483,53.714277112972574,55.4946035522916,30.335851054452085,0,0,0,0,43,43,43,43,43,3.1622776601683795,6.324555320336759,8.366600265340756,10
9,6,0.24519089999375865,q,40.4,Limited Time - 800ms,e,40.374570745760806,41.239805301592384,49.540356985091364,43.73323289123855,43.73323289123855,41.239805301592384,40.374570745760806,49.540356985091364,0,0,0,0,43,43,43,43,43,3.1622776601683795,6.324555320336759,8.366600265340756,10
9,7,0.12936700001591817,p,44.3,Limited Time - 800ms,e,58.52291954694931,51.12497510399552,45.82184003063485,44.27459263814274,44.27459263814274,51.12497510399552,58.52291954694931,45.82184003063485,0,0,0,0,43,43,43,43,43,3.1622776601683795,6.324555320336759,8.366600265340756,10
9,8,0.5602768000098877,q,58.2,Limited Time - 800ms,e,58.22364013027823,47.881769900549344,67.47571536460785,43.77484966417663,43.77484966417663,47.881769900549344,58.22364013027823,67.47571536460785,0,0,0,0,43,43,43,43,43,3.1622776601683795,6.324555320336759,8.366600265340756,10
9,9,0.3145605999743566,q,52.1,Limited Time - 800ms,e,52.09193309910423,36.730305269063,33.281770173112065,44.10257928993805,44.10257928993805,36.730305269063,52.09193309910423,33.281770173112065,0,0,0,0,43,43,43,43,43,3.1622776601683795,6.324555320336759,8.366600265340756,10
9,10,0.2522482000058517,p,42.9,Limited Time - 800ms,e,37.84205113379767,39.14626503997215,40.43600034695382,42.8736754563465,42.8736754563465,39.14626503997215,37.84205113379767,40.43600034695382,0,0,0,0,43,43,43,43,43,3.1622776601683795,6.324555320336759,8.366600265340756,10
9,11,0.16138579999096692,q,58.0,Limited Time - 800ms,e,58.045831761347785,44.98042212718015,44.06779554384025,42.68866440001195,42.68866440001195,44.98042212718015,58.045831761347785,44.06779554384025,0,0,0,0,43,43,43,43,43,3.1622776601683795,6.324555320336759,8.366600265340756,10
9,12,0.2602879000478424,q,52.1,Limited Time - 800ms,e,52.090134704118356,43.83699034891813,44.946795982882676,43.07806622544012,43.07806622544012,43.83699034891813,52.090134704118356,44.946795982882676,0,0,0,0,43,43,43,43,43,3.1622776601683795,6.324555320336759,8.366600265340756,10
9,13,0.17986209999071434,q,49.9,Limited Time - 800ms,e,49.90970245601588,48.992299916703146,31.642424839117293,49.20434083105017,49.20434083105017,48.992299916703146,49.90970245601588,31.642424839117293,0,0,0,0,43,43,43,43,43,3.1622776601683795,6.324555320336759,8.366600265340756,10
9,14,0.20435439998982474,p,43.7,Limited Time - 800ms,e,42.12905210377914,39.02068746067439,47.29302742483708,43.66073626749281,43.66073626749281,39.02068746067439,42.12905210377914,47.29302742483708,0,0,0,0,43,43,43,43,43,3.1622776601683795,6.324555320336759,8.366600265340756,10
9,15,0.06283939996501431,q,50.1,Limited Time - 800ms,e,50.07428395424186,45.52585176259467,27.132826974989285,42.5981271021459,42.5981271021459,45.52585176259467,50.07428395424186,27.132826974989285,0,0,0,0,43,43,43,43,43,3.1622776601683795,6.324555320336759,8.366600265340756,10
9,16,0.18365469999844208,p,48.3,Limited Time - 800ms,e,33.15324757197946,35.091981909891075,36.296460299103906,48.34818211425751,48.34818211425751,35.091981909891075,33.15324757197946,36.296460299103906,0,0,0,0,43,43,43,43,43,3.1622776601683795,6.324555320336759,8.366600265340756,10
9,17,0.029689600050915033,q,25.8,Limited Time - 800ms,e,25.84629508966757,41.52065284617059,41.81683566301492,41.21081067463991,41.21081067463991,41.52065284617059,25.84629508966757,41.81683566301492,0,0,0,0,43,43,43,43,43,3.1622776601683795,6.324555320336759,8.366600265340756,10
9,18,0.21639570000115782,o,42.5,Limited Time - 800ms,e,58.39913177829308,37.94793901089253,42.46369313309812,37.86120972367536,37.86120972367536,37.94793901089253,58.39913177829308,42.46369313309812,0,0,0,0,43,43,43,43,43,3.1622776601683795,6.324555320336759,8.366600265340756,10
9,19,0.08731119998265058,w,48.2,Limited Time - 800ms,e,55.55342123874718,48.18324477130481,36.27754198348792,48.498802426455725,48.498802426455725,48.18324477130481,55.55342123874718,36.27754198348792,0,0,0,0,43,43,43,43,43,3.1622776601683795,6.324555320336759,8.366600265340756,10
9,20,0.24359050003113225,w,42.8,Limited Time - 800ms,e,34.034010210821464,42.80930252239442,33.836005068784715,45.25400787293522,45.25400787293522,42.80930252239442,34.034010210821464,33.836005068784715,0,0,0,0,43,43,43,43,43,3.1622776601683795,6.324555320336759,8.366600265340756,10
10,1,0.5243127000285313,p,43.1,Unlimited Time,e,47.367527842966666,36.52884815420819,51.98001550754136,43.055419082149854,47.367527842966666,43.055419082149854,51.98001550754136,36.52884815420819,0,0,0,0,43,43,43,43,43,3.1622776601683795,6.324555320336759,8.366600265340756,10
10,2,0.4188756999792531,o,43.1,Unlimited Time,e,39.73450740308121,38.781088811353015,43.11580812836571,49.85550267800339,39.73450740308121,49.85550267800339,43.11580812836571,38.781088811353015,0,0,0,0,43,43,43,43,43,3.1622776601683795,6.324555320336759,8.366600265340756,10
10,3,0.3244655000162311,w,45.7,Unlimited Time,e,42.42726813430448,45.71372438293129,31.220077821191925,28.34339718049249,42.42726813430448,28.34339718049249,31.220077821191925,45.71372438293129,0,0,0,0,43,43,43,43,43,3.1622776601683795,6.324555320336759,8.366600265340756,10
10,4,0.5419426999869756,q,43.2,Unlimited Time,e,43.19087383994595,30.0809672052904,39.0834911913668,38.59833936828106,43.19087383994595,38.59833936828106,39.0834911913668,30.0809672052904,0,0,0,0,43,43,43,43,43,3.1622776601683795,6.324555320336759,8.366600265340756,10
10,5,0.29590620001545176,w,30.3,Unlimited Time,e,48.28847717168483,30.335851054452085,55.4946035522916,53.714277112972574,48.28847717168483,53.714277112972574,55.4946035522916,30.335851054452085,0,0,0,0,43,43,43,43,43,3.1622776601683795,6.324555320336759,8.366600265340756,10
10,6,0.25930929998867214,p,41.2,Unlimited Time,e,43.73323289123855,49.540356985091364,40.374570745760806,41.239805301592384,43.73323289123855,41.239805301592384,40.374570745760806,49.540356985091364,0,0,0,0,43,43,43,43,43,3.1622776601683795,6.324555320336759,8.366600265340756,10
10,7,0.7104358999640681,o,58.5,Unlimited Time,e,44.27459263814274,45.82184003063485,58.52291954694931,51.12497510399552,44.27459263814274,51.12497510399552,58.52291954694931,45.82184003063485,0,0,0,0,43,43,43,43,43,3.1622776601683795,6.324555320336759,8.366600265340756,10
10,8,0.37000280001666397,o,58.2,Unlimited Time,e,43.77484966417663,67.47571536460785,58.22364013027823,47.881769900549344,43.77484966417663,47.881769900549344,58.22364013027823,67.47571536460785,0,0,0,0,43,43,43,43,43,3.1622776601683795,6.324555320336759,8.366600265340756,10
10,9,0.5117131000151858,o,52.1,Unlimited Time,e,44.10257928993805,33.281770173112065,52.09193309910423,36.730305269063,44.10257928993805,36.730305269063,52.09193309910423,33.281770173112065,0,0,0,0,43,43,43,43,43,3.1622776601683795,6.324555320336759,8.366600265340756,10
10,10,0.7878311999957077,o,37.8,Unlimited Time,e,42.8736754563465,40.43600034695382,37.84205113379767,39.14626503997215,42.8736754563465,39.14626503997215,37.84205113379767,40.43600034695382,0,0,0,0,43,43,43,43,43,3.1622776601683795,6.324555320336759,8.366600265340756,10
10,11,0.40615300001809373,p,45.0,Unlimited Time,e,42.68866440001195,44.06779554384025,58.045831761347785,44.98042212718015,42.68866440001195,44.98042212718015,58.045831761347785,44.06779554384025,0,0,0,0,43,43,43,43,43,3.1622776601683795,6.324555320336759,8.366600265340756,10
10,12,0.3926144000142813,q,43.1,Unlimited Time,e,43.07806622544012,44.946795982882676,52.090134704118356,43.83699034891813,43.07806622544012,43.83699034891813,52.090134704118356,44.946795982882676,0,0,0,0,43,43,43,43,43,3.1622776601683795,6.324555320336759,8.366600265340756,10
10,13,0.554383400012739,p,49.0,Unlimited Time,e,49.20434083105017,31.642424839117293,49.90970245601588,48.992299916703146,49.20434083105017,48.992299916703146,49.90970245601588,31.642424839117293,0,0,0,0,43,43,43,43,43,3.1622776601683795,6.324555320336759,8.366600265340756,10
10,14,1.1596372000058182,p,39.0,Unlimited Time,e,43.66073626749281,47.29302742483708,42.12905210377914,39.02068746067439,43.66073626749281,39.02068746067439,42.12905210377914,47.29302742483708,0,0,0,0,43,43,43,43,43,3.1622776601683795,6.324555320336759,8.366600265340756,10
10,15,0.4244355999981053,w,27.1,Unlimited Time,e,42.5981271021459,27.132826974989285,50.07428395424186,45.52585176259467,42.5981271021459,45.52585176259467,50.07428395424186,27.132826974989285,0,0,0,0,43,43,43,43,43,3.1622776601683795,6.324555320336759,8.366600265340756,10
10,16,0.45677540003089234,o,33.2,Unlimited Time,e,48.34818211425751,36.296460299103906,33.15324757197946,35.091981909891075,48.34818211425751,35.091981909891075,33.15324757197946,36.296460299103906,0,0,0,0,43,43,43,43,43,3.1622776601683795,6.324555320336759,8.366600265340756,10
10,17,0.41212130000349134,p,41.5,Unlimited Time,e,41.21081067463991,41.81683566301492,25.84629508966757,41.52065284617059,41.21081067463991,41.52065284617059,25.84629508966757,41.81683566301492,0,0,0,0,43,43,43,43,43,3.1622776601683795,6.324555320336759,8.366600265340756,10
10,18,0.2940482000121847,o,58.4,Unlimited Time,e,37.86120972367536,42.46369313309812,58.39913177829308,37.94793901089253,37.86120972367536,37.94793901089253,58.39913177829308,42.46369313309812,0,0,0,0,43,43,43,43,43,3.1622776601683795,6.324555320336759,8.366600265340756,10
10,19,2.1127448999905027,q,48.5,Unlimited Time,e,48.498802426455725,36.27754198348792,55.55342123874718,48.18324477130481,48.498802426455725,48.18324477130481,55.55342123874718,36.27754198348792,0,0,0,0,43,43,43,43,43,3.1622776601683795,6.324555320336759,8.366600265340756,10
10,20,0.3962633000337519,p,42.8,Unlimited Time,e,45.25400787293522,33.836005068784715,34.034010210821464,42.80930252239442,45.25400787293522,42.80930252239442,34.034010210821464,33.836005068784715,0,0,0,0,43,43,43,43,43,3.1622776601683795,6.324555320336759,8.366600265340756,10
11,1,0.29010980000020936,o,54.3,Limited Time - 400ms,i,34.67394621808321,34.850885059045225,54.28764464346618,58.27818347044064,34.67394621808321,34.850885059045225,58.27818347044064,54.28764464346618,-10,-10,10,10,43,33,33,53,53,3.1622776601683795,10,3.1622776601683795,10
11,2,0.3087527000461705,o,47.8,Limited Time - 400ms,i,37.061722934129804,31.662218839140294,47.78275201265029,47.885748876829936,37.061722934129804,31.662218839140294,47.885748876829936,47.78275201265029,-10,-10,10,10,43,33,33,53,53,3.1622776601683795,10,3.1622776601683795,10
11,3,0.32058759999927133,w,39.0,Limited Time - 400ms,i,34.57244399641339,38.957694792978614,48.10327410590534,54.00360419372381,34.57244399641339,38.957694792978614,54.00360419372381,48.10327410590534,-10,-10,10,10,43,33,33,53,53,3.1622776601683795,10,3.1622776601683795,10
11,4,,,0.0,Limited Time - 400ms,i,33.889277947790696,33.118092469790156,46.374381850549575,53.038920650763586,33.889277947790696,33.118092469790156,53.038920650763586,46.374381850549575,-10,-10,10,10,43,33,33,53,53,3.1622776601683795,10,3.1622776601683795,10
11,5,0.30545540002640337,o,50.8,Limited Time - 400ms,i,35.9614009616518,37.15847830602772,50.83370533763632,48.25373228880796,35.9614009616518,37.15847830602772,48.25373228880796,50.83370533763632,-10,-10,10,10,43,33,33,53,53,3.1622776601683795,10,3.1622776601683795,10
11,6,0.35278070002095774,o,37.3,Limited Time - 400ms,i,33.29834616950528,34.76868866858984,37.281316708595085,53.03028039345466,33.29834616950528,34.76868866858984,53.03028039345466,37.281316708595085,-10,-10,10,10,43,33,33,53,53,3.1622776601683795,10,3.1622776601683795,10
11,7,0.34710870002163574,p,49.4,Limited Time - 400ms,i,34.017467958702454,36.66807010430307,66.13582430965945,49.44009713645453,34.017467958702454,36.66807010430307,49.44009713645453,66.13582430965945,-10,-10,10,10,43,33,33,53,53,3.1622776601683795,10,3.1622776601683795,10
11,8,0.273707700020168,q,32.4,Limited Time - 400ms,i,32.44539974707978,27.59393989173844,44.684323309385036,54.711969240985816,32.44539974707978,27.59393989173844,54.711969240985816,44.684323309385036,-10,-10,10,10,43,33,33,53,53,3.1622776601683795,10,3.1622776601683795,10
11,9,0.2272749999538064,o,62.1,Limited Time - 400ms,i,28.017500156334382,34.846332700273564,62.09175671054744,52.03417386246146,28.017500156334382,34.846332700273564,52.03417386246146,62.09175671054744,-10,-10,10,10,43,33,33,53,53,3.1622776601683795,10,3.1622776601683795,10
11,10,,,0.0,Limited Time - 400ms,i,30.665469591315926,26.183721930583985,50.92601150758059,56.25933598399261,30.665469591315926,26.183721930583985,56.25933598399261,50.92601150758059,-10,-10,10,10,43,33,33,53,53,3.1622776601683795,10,3.1622776601683795,10
11,11,,,0.0,Limited Time - 400ms,i,34.71980289373655,36.44682469597672,50.79150690401481,51.28175988858287,34.71980289373655,36.44682469597672,51.28175988858287,50.79150690401481,-10,-10,10,10,43,33,33,53,53,3.1622776601683795,10,3.1622776601683795,10
11,12,0.3586310000391677,o,54.9,Limited Time - 400ms,i,25.513865942080535,41.91618923336176,54.90578187779806,52.77018064847582,25.513865942080535,41.91618923336176,52.77018064847582,54.90578187779806,-10,-10,10,10,43,33,33,53,53,3.1622776601683795,10,3.1622776601683795,10
11,13,,,0.0,Limited Time - 400ms,i,38.18771092403249,23.823973031753027,42.72534665585001,47.61911054781927,38.18771092403249,23.823973031753027,47.61911054781927,42.72534665585001,-10,-10,10,10,43,33,33,53,53,3.1622776601683795,10,3.1622776601683795,10
11,14,0.3363752000150271,o,52.3,Limited Time - 400ms,i,31.735421313028485,37.57093749100359,52.27459771761265,49.92246440539741,31.735421313028485,37.57093749100359,49.92246440539741,52.27459771761265,-10,-10,10,10,43,33,33,53,53,3.1622776601683795,10,3.1622776601683795,10
11,15,0.30026759998872876,p,50.0,Limited Time - 400ms,i,34.042542104809584,34.93043232358745,46.667627631672346,50.04852546003514,34.042542104809584,34.93043232358745,50.04852546003514,46.667627631672346,-10,-10,10,10,43,33,33,53,53,3.1622776601683795,10,3.1622776601683795,10
11,16,0.18811899999855086,o,57.9,Limited Time - 400ms,i,35.1783328215165,32.26449988720159,57.85250706822121,55.16940404549498,35.1783328215165,32.26449988720159,55.16940404549498,57.85250706822121,-10,-10,10,10,43,33,33,53,53,3.1622776601683795,10,3.1622776601683795,10
11,17,0.26689520000945777,p,51.9,Limited Time - 400ms,i,31.831432900764394,34.389660901261266,57.762677975117214,51.88902303330022,31.831432900764394,34.389660901261266,51.88902303330022,57.762677975117214,-10,-10,10,10,43,33,33,53,53,3.1622776601683795,10,3.1622776601683795,10
11,18,0.31308069999795407,o,38.4,Limited Time - 400ms,i,31.28476851647178,51.67821554167391,38.410640848368196,52.40392142235348,31.28476851647178,51.67821554167391,52.40392142235348,38.410640848368196,-10,-10,10,10,43,33,33,53,53,3.1622776601683795,10,3.1622776601683795,10
11,19,0.2605269000050612,p,51.1,Limited Time - 400ms,i,29.62362390333265,27.106712468887398,72.14943040651204,51.10178362202574,29.62362390333265,27.106712468887398,51.10178362202574,72.14943040651204,-10,-10,10,10,43,33,33,53,53,3.1622776601683795,10,3.1622776601683795,10
11,20,0.22667860001092777,w,27.8,Limited Time - 400ms,i,28.260789304898175,27.81151935829344,48.82388492541054,49.3863190732675,28.260789304898175,27.81151935829344,49.3863190732675,48.82388492541054,-10,-10,10,10,43,33,33,53,53,3.1622776601683795,10,3.1622776601683795,10
12,1,0.226922600006219,p,34.9,Limited Time - 800ms,i,58.27818347044064,34.67394621808321,54.28764464346618,34.850885059045225,34.67394621808321,34.850885059045225,58.27818347044064,54.28764464346618,-10,-10,10,10,43,33,33,53,53,3.1622776601683795,10,3.1622776601683795,10
12,2,0.24602379999123514,o,47.8,Limited Time - 800ms,i,47.885748876829936,37.061722934129804,47.78275201265029,31.662218839140294,37.061722934129804,31.662218839140294,47.885748876829936,47.78275201265029,-10,-10,10,10,43,33,33,53,53,3.1622776601683795,10,3.1622776601683795,10
12,3,0.07035749999340624,w,34.6,Limited Time - 800ms,i,54.00360419372381,34.57244399641339,48.10327410590534,38.957694792978614,34.57244399641339,38.957694792978614,54.00360419372381,48.10327410590534,-10,-10,10,10,43,33,33,53,53,3.1622776601683795,10,3.1622776601683795,10
12,4,0.14380590000655502,q,53.0,Limited Time - 800ms,i,53.038920650763586,33.889277947790696,46.374381850549575,33.118092469790156,33.889277947790696,33.118092469790156,53.038920650763586,46.374381850549575,-10,-10,10,10,43,33,33,53,53,3.1622776601683795,10,3.1622776601683795,10
12,5,0.2197749000042677,q,48.3,Limited Time - 800ms,i,48.25373228880796,35.9614009616518,50.83370533763632,37.15847830602772,35.9614009616518,37.15847830602772,48.25373228880796,50.83370533763632,-10,-10,10,10,43,33,33,53,53,3.1622776601683795,10,3.1622776601683795,10
12,6,0.22564430005149916,q,53.0,Limited Time - 800ms,i,53.03028039345466,33.29834616950528,37.281316708595085,34.76868866858984,33.29834616950528,34.76868866858984,53.03028039345466,37.281316708595085,-10,-10,10,10,43,33,33,53,53,3.1622776601683795,10,3.1622776601683795,10
12,7,0.04265969997504726,w,34.0,Limited Time - 800ms,i,49.44009713645453,34.017467958702454,66.13582430965945,36.66807010430307,34.017467958702454,36.66807010430307,49.44009713645453,66.13582430965945,-10,-10,10,10,43,33,33,53,53,3.1622776601683795,10,3.1622776601683795,10
12,8,0.14632590004475787,p,27.6,Limited Time - 800ms,i,54.711969240985816,32.44539974707978,44.684323309385036,27.59393989173844,32.44539974707978,27.59393989173844,54.711969240985816,44.684323309385036,-10,-10,10,10,43,33,33,53,53,3.1622776601683795,10,3.1622776601683795,10
12,9,0.2233311000163667,q,52.0,Limited Time - 800ms,i,52.03417386246146,28.017500156334382,62.09175671054744,34.846332700273564,28.017500156334382,34.846332700273564,52.03417386246146,62.09175671054744,-10,-10,10,10,43,33,33,53,53,3.1622776601683795,10,3.1622776601683795,10
12,10,0.2606824000249617,p,26.2,Limited Time - 800ms,i,56.25933598399261,30.665469591315926,50.92601150758059,26.183721930583985,30.665469591315926,26.183721930583985,56.25933598399261,50.92601150758059,-10,-10,10,10,43,33,33,53,53,3.1622776601683795,10,3.1622776601683795,10
12,11,0.3267543000401929,o,50.8,Limited Time - 800ms,i,51.28175988858287,34.71980289373655,50.79150690401481,36.44682469597672,34.71980289373655,36.44682469597672,51.28175988858287,50.79150690401481,-10,-10,10,10,43,33,33,53,53,3.1622776601683795,10,3.1622776601683795,10
12,12,0.36188620002940297,o,54.9,Limited Time - 800ms,i,52.77018064847582,25.513865942080535,54.90578187779806,41.91618923336176,25.513865942080535,41.91618923336176,52.77018064847582,54.90578187779806,-10,-10,10,10,43,33,33,53,53,3.1622776601683795,10,3.1622776601683795,10
12,13,0.28765920002479106,o,42.7,Limited Time - 800ms,i,47.61911054781927,38.18771092403249,42.72534665585001,23.823973031753027,38.18771092403249,23.823973031753027,47.61911054781927,42.72534665585001,-10,-10,10,10,43,33,33,53,53,3.1622776601683795,10,3.1622776601683795,10
12,14,0.3263429999933578,p,37.6,Limited Time - 800ms,i,49.92246440539741,31.735421313028485,52.27459771761265,37.57093749100359,31.735421313028485,37.57093749100359,49.92246440539741,52.27459771761265,-10,-10,10,10,43,33,33,53,53,3.1622776601683795,10,3.1622776601683795,10
12,15,0.4014695000369102,q,50.0,Limited Time - 800ms,i,50.04852546003514,34.042542104809584,46.667627631672346,34.93043232358745,34.042542104809584,34.93043232358745,50.04852546003514,46.667627631672346,-10,-10,10,10,43,33,33,53,53,3.1622776601683795,10,3.1622776601683795,10
12,16,0.5212233000202104,w,35.2,Limited Time - 800ms,i,55.16940404549498,35.1783328215165,57.85250706822121,32.26449988720159,35.1783328215165,32.26449988720159,55.16940404549498,57.85250706822121,-10,-10,10,10,43,33,33,53,53,3.1622776601683795,10,3.1622776601683795,10
12,17,0.25681679998524487,q,51.9,Limited Time - 800ms,i,51.88902303330022,31.831432900764394,57.762677975117214,34.389660901261266,31.831432900764394,34.389660901261266,51.88902303330022,57.762677975117214,-10,-10,10,10,43,33,33,53,53,3.1622776601683795,10,3.1622776601683795,10
12,18,0.363819100020919,q,52.4,Limited Time - 800ms,i,52.40392142235348,31.28476851647178,38.410640848368196,51.67821554167391,31.28476851647178,51.67821554167391,52.40392142235348,38.410640848368196,-10,-10,10,10,43,33,33,53,53,3.1622776601683795,10,3.1622776601683795,10
12,19,0.4980375000159256,p,27.1,Limited Time - 800ms,i,51.10178362202574,29.62362390333265,72.14943040651204,27.106712468887398,29.62362390333265,27.106712468887398,51.10178362202574,72.14943040651204,-10,-10,10,10,43,33,33,53,53,3.1622776601683795,10,3.1622776601683795,10
12,20,0.2124521000077948,q,49.4,Limited Time - 800ms,i,49.3863190732675,28.260789304898175,48.82388492541054,27.81151935829344,28.260789304898175,27.81151935829344,49.3863190732675,48.82388492541054,-10,-10,10,10,43,33,33,53,53,3.1622776601683795,10,3.1622776601683795,10
13,1,0.5561369999777526,p,52.0,Unlimited Time,e,43.055419082149854,36.52884815420819,47.367527842966666,51.98001550754136,47.367527842966666,43.055419082149854,51.98001550754136,36.52884815420819,0,0,0,0,43,43,43,43,43,3.1622776601683795,6.324555320336759,8.366600265340756,10
13,2,0.4272060000221245,p,43.1,Unlimited Time,e,49.85550267800339,38.781088811353015,39.73450740308121,43.11580812836571,39.73450740308121,49.85550267800339,43.11580812836571,38.781088811353015,0,0,0,0,43,43,43,43,43,3.1622776601683795,6.324555320336759,8.366600265340756,10
13,3,0.2227895999676548,q,28.3,Unlimited Time,e,28.34339718049249,45.71372438293129,42.42726813430448,31.220077821191925,42.42726813430448,28.34339718049249,31.220077821191925,45.71372438293129,0,0,0,0,43,43,43,43,43,3.1622776601683795,6.324555320336759,8.366600265340756,10
13,4,0.4410220999852754,w,30.1,Unlimited Time,e,38.59833936828106,30.0809672052904,43.19087383994595,39.0834911913668,43.19087383994595,38.59833936828106,39.0834911913668,30.0809672052904,0,0,0,0,43,43,43,43,43,3.1622776601683795,6.324555320336759,8.366600265340756,10
13,5,0.21731360000558197,p,55.5,Unlimited Time,e,53.714277112972574,30.335851054452085,48.28847717168483,55.4946035522916,48.28847717168483,53.714277112972574,55.4946035522916,30.335851054452085,0,0,0,0,43,43,43,43,43,3.1622776601683795,6.324555320336759,8.366600265340756,10
13,6,0.3020850000320934,p,40.4,Unlimited Time,e,41.239805301592384,49.540356985091364,43.73323289123855,40.374570745760806,43.73323289123855,41.239805301592384,40.374570745760806,49.540356985091364,0,0,0,0,43,43,43,43,43,3.1622776601683795,6.324555320336759,8.366600265340756,10
13,7,0.5549712999491021,p,58.5,Unlimited Time,e,51.12497510399552,45.82184003063485,44.27459263814274,58.52291954694931,44.27459263814274,51.12497510399552,58.52291954694931,45.82184003063485,0,0,0,0,43,43,43,43,43,3.1622776601683795,6.324555320336759,8.366600265340756,10
13,8,0.6588576000067405,p,58.2,Unlimited Time,e,47.881769900549344,67.47571536460785,43.77484966417663,58.22364013027823,43.77484966417663,47.881769900549344,58.22364013027823,67.47571536460785,0,0,0,0,43,43,43,43,43,3.1622776601683795,6.324555320336759,8.366600265340756,10
13,9,0.4643062999821268,o,44.1,Unlimited Time,e,36.730305269063,33.281770173112065,44.10257928993805,52.09193309910423,44.10257928993805,36.730305269063,52.09193309910423,33.281770173112065,0,0,0,0,43,43,43,43,43,3.1622776601683795,6.324555320336759,8.366600265340756,10
13,10,0.2582387999864295,p,37.8,Unlimited Time,e,39.14626503997215,40.43600034695382,42.8736754563465,37.84205113379767,42.8736754563465,39.14626503997215,37.84205113379767,40.43600034695382,0,0,0,0,43,43,43,43,43,3.1622776601683795,6.324555320336759,8.366600265340756,10
13,11,0.4472537999972701,q,45.0,Unlimited Time,e,44.98042212718015,44.06779554384025,42.68866440001195,58.045831761347785,42.68866440001195,44.98042212718015,58.045831761347785,44.06779554384025,0,0,0,0,43,43,43,43,43,3.1622776601683795,6.324555320336759,8.366600265340756,10
13,12,0.4536763999494724,w,44.9,Unlimited Time,e,43.83699034891813,44.946795982882676,43.07806622544012,52.090134704118356,43.07806622544012,43.83699034891813,52.090134704118356,44.946795982882676,0,0,0,0,43,43,43,43,43,3.1622776601683795,6.324555320336759,8.366600265340756,10
13,13,0.2507292000227608,p,49.9,Unlimited Time,e,48.992299916703146,31.642424839117293,49.20434083105017,49.90970245601588,49.20434083105017,48.992299916703146,49.90970245601588,31.642424839117293,0,0,0,0,43,43,43,43,43,3.1622776601683795,6.324555320336759,8.366600265340756,10
13,14,0.4450640000286512,o,43.7,Unlimited Time,e,39.02068746067439,47.29302742483708,43.66073626749281,42.12905210377914,43.66073626749281,39.02068746067439,42.12905210377914,47.29302742483708,0,0,0,0,43,43,43,43,43,3.1622776601683795,6.324555320336759,8.366600265340756,10
13,15,0.3388205000082962,p,50.1,Unlimited Time,e,45.52585176259467,27.132826974989285,42.5981271021459,50.07428395424186,42.5981271021459,45.52585176259467,50.07428395424186,27.132826974989285,0,0,0,0,43,43,43,43,43,3.1622776601683795,6.324555320336759,8.366600265340756,10
13,16,0.8062669999781065,p,33.2,Unlimited Time,e,35.091981909891075,36.296460299103906,48.34818211425751,33.15324757197946,48.34818211425751,35.091981909891075,33.15324757197946,36.296460299103906,0,0,0,0,43,43,43,43,43,3.1622776601683795,6.324555320336759,8.366600265340756,10
13,17,0.23346090002451092,q,41.5,Unlimited Time,e,41.52065284617059,41.81683566301492,41.21081067463991,25.84629508966757,41.21081067463991,41.52065284617059,25.84629508966757,41.81683566301492,0,0,0,0,43,43,43,43,43,3.1622776601683795,6.324555320336759,8.366600265340756,10
13,18,0.4213039000169374,w,42.5,Unlimited Time,e,37.94793901089253,42.46369313309812,37.86120972367536,58.39913177829308,37.86120972367536,37.94793901089253,58.39913177829308,42.46369313309812,0,0,0,0,43,43,43,43,43,3.1622776601683795,6.324555320336759,8.366600265340756,10
13,19,0.6028375000460073,p,55.6,Unlimited Time,e,48.18324477130481,36.27754198348792,48.498802426455725,55.55342123874718,48.498802426455725,48.18324477130481,55.55342123874718,36.27754198348792,0,0,0,0,43,43,43,43,43,3.1622776601683795,6.324555320336759,8.366600265340756,10
13,20,0.7450570000219159,p,34.0,Unlimited Time,e,42.80930252239442,33.836005068784715,45.25400787293522,34.034010210821464,45.25400787293522,42.80930252239442,34.034010210821464,33.836005068784715,0,0,0,0,43,43,43,43,43,3.1622776601683795,6.324555320336759,8.366600265340756,10
14,1,0.3238833000068553,p,41.4,Limited Time - 400ms,h,41.618585501143414,48.11121666086676,59.72743063782859,41.37477950330768,41.37477950330768,59.72743063782859,48.11121666086676,41.618585501143414,-10,-0.33,0.33,10,43,33,42.67,43.33,53,10,10,10,10
14,2,0.3319338000146672,o,53.2,Limited Time - 400ms,h,59.19033372090359,51.554178472275225,53.16373904026646,33.0541706004699,33.0541706004699,53.16373904026646,51.554178472275225,59.19033372090359,-10,-0.33,0.33,10,43,33,42.67,43.33,53,10,10,10,10
14,3,0.250992999994196,q,54.1,Limited Time - 400ms,h,54.11040493184944,41.340166692418805,51.501481207047775,29.6968031182218,29.6968031182218,51.501481207047775,41.340166692418805,54.11040493184944,-10,-0.33,0.33,10,43,33,42.67,43.33,53,10,10,10,10
14,4,0.3021669000154361,q,44.8,Limited Time - 400ms,h,44.77949231139741,32.81258433162064,52.02278457104472,53.84979050638783,53.84979050638783,52.02278457104472,32.81258433162064,44.77949231139741,-10,-0.33,0.33,10,43,33,42.67,43.33,53,10,10,10,10
14,5,0.2407367000123486,w,52.7,Limited Time - 400ms,h,53.93421993911947,52.72748355759941,41.19504656430815,30.887171962289784,30.887171962289784,41.19504656430815,52.72748355759941,53.93421993911947,-10,-0.33,0.33,10,43,33,42.67,43.33,53,10,10,10,10
14,6,0.21253830002387986,p,32.3,Limited Time - 400ms,h,47.62936883132349,59.48871850715739,44.71414881067757,32.33887166277573,32.33887166277573,44.71414881067757,59.48871850715739,47.62936883132349,-10,-0.33,0.33,10,43,33,42.67,43.33,53,10,10,10,10
14,7,0.3642781000235118,o,40.8,Limited Time - 400ms,h,59.115249347423315,48.74685209165586,40.845466846527756,42.49802945370295,42.49802945370295,40.845466846527756,48.74685209165586,59.115249347423315,-10,-0.33,0.33,10,43,33,42.67,43.33,53,10,10,10,10
14,8,0.3105702999746427,w,37.3,Limited Time - 400ms,h,53.15116064773937,37.25760060087289,47.68167997690347,26.87914575198322,26.87914575198322,47.68167997690347,37.25760060087289,53.15116064773937,-10,-0.33,0.33,10,43,33,42.67,43.33,53,10,10,10,10
14,9,0.2773903000052087,q,33.6,Limited Time - 400ms,h,33.59984125212404,47.330267834760406,27.279900313185877,38.78059870787188,38.78059870787188,27.279900313185877,47.330267834760406,33.59984125212404,-10,-0.33,0.33,10,43,33,42.67,43.33,53,10,10,10,10
14,10,0.13265939999837428,p,42.7,Limited Time - 400ms,h,40.15557805081863,47.15849910820618,51.4477467729883,42.653221497271296,42.653221497271296,51.4477467729883,47.15849910820618,40.15557805081863,-10,-0.33,0.33,10,43,33,42.67,43.33,53,10,10,10,10
14,11,0.24619969999184832,o,40.0,Limited Time - 400ms,h,55.926136805485235,37.300298669735156,40.035485111874735,37.92425382224996,37.92425382224996,40.035485111874735,37.300298669735156,55.926136805485235,-10,-0.33,0.33,10,43,33,42.67,43.33,53,10,10,10,10
14,12,,,0.0,Limited Time - 400ms,h,60.567813126486406,45.891393524190775,43.72477316686056,12.658334151671149,12.658334151671149,43.72477316686056,45.891393524190775,60.567813126486406,-10,-0.33,0.33,10,43,33,42.67,43.33,53,10,10,10,10
14,13,,,0.0,Limited Time - 400ms,h,52.607983085705825,44.22845869294994,33.70446674592984,34.32306566686947,34.32306566686947,33.70446674592984,44.22845869294994,52.607983085705825,-10,-0.33,0.33,10,43,33,42.67,43.33,53,10,10,10,10
14,14,,,0.0,Limited Time - 400ms,h,51.53566077742346,56.162973979186816,36.1304360402219,37.816124943836606,37.816124943836606,36.1304360402219,56.162973979186816,51.53566077742346,-10,-0.33,0.33,10,43,33,42.67,43.33,53,10,10,10,10
14,15,0.32175820000702515,o,50.4,Limited Time - 400ms,h,59.3023887310107,46.1004572140909,50.37256137232688,9.376616069343406,9.376616069343406,50.37256137232688,46.1004572140909,59.3023887310107,-10,-0.33,0.33,10,43,33,42.67,43.33,53,10,10,10,10
14,16,0.2535212999791838,w,32.9,Limited Time - 400ms,h,57.95311388254604,32.86603865429635,27.383593406230382,47.56242453745259,47.56242453745259,27.383593406230382,32.86603865429635,57.95311388254604,-10,-0.33,0.33,10,43,33,42.67,43.33,53,10,10,10,10
14,17,0.24096879997523502,w,49.9,Limited Time - 400ms,h,50.77364361946407,49.90563806553322,43.39576134888721,21.912048250900256,21.912048250900256,43.39576134888721,49.90563806553322,50.77364361946407,-10,-0.33,0.33,10,43,33,42.67,43.33,53,10,10,10,10
14,18,0.23060159996384755,o,48.6,Limited Time - 400ms,h,53.08382587625548,44.41338990440327,48.63412542282932,23.096779137830254,23.096779137830254,48.63412542282932,44.41338990440327,53.08382587625548,-10,-0.33,0.33,10,43,33,42.67,43.33,53,10,10,10,10
14,19,0.2014433000003919,w,42.1,Limited Time - 400ms,h,56.093216934968446,42.05283731796213,27.95079532717895,38.25990976931398,38.25990976931398,27.95079532717895,42.05283731796213,56.093216934968446,-10,-0.33,0.33,10,43,33,42.67,43.33,53,10,10,10,10
14,20,0.22344540001358837,q,52.5,Limited Time - 400ms,h,52.525174085980765,45.53635802540581,48.08605940857283,19.37548069087816,19.37548069087816,48.08605940857283,45.53635802540581,52.525174085980765,-10,-0.33,0.33,10,43,33,42.67,43.33,53,10,10,10,10
15,1,0.41756779997376725,p,41.6,Limited Time - 800ms,h,48.11121666086676,59.72743063782859,41.37477950330768,41.618585501143414,41.37477950330768,59.72743063782859,48.11121666086676,41.618585501143414,-10,-0.33,0.33,10,43,33,42.67,43.33,53,10,10,10,10
15,2,0.24340620002476498,w,53.2,Limited Time - 800ms,h,51.554178472275225,53.16373904026646,33.0541706004699,59.19033372090359,33.0541706004699,53.16373904026646,51.554178472275225,59.19033372090359,-10,-0.33,0.33,10,43,33,42.67,43.33,53,10,10,10,10
15,3,0.15980630001286045,o,29.7,Limited Time - 800ms,h,41.340166692418805,51.501481207047775,29.6968031182218,54.11040493184944,29.6968031182218,51.501481207047775,41.340166692418805,54.11040493184944,-10,-0.33,0.33,10,43,33,42.67,43.33,53,10,10,10,10
15,4,0.5716455000219867,w,52.0,Limited Time - 800ms,h,32.81258433162064,52.02278457104472,53.84979050638783,44.77949231139741,53.84979050638783,52.02278457104472,32.81258433162064,44.77949231139741,-10,-0.33,0.33,10,43,33,42.67,43.33,53,10,10,10,10
15,5,0.24731050000991672,q,52.7,Limited Time - 800ms,h,52.72748355759941,41.19504656430815,30.887171962289784,53.93421993911947,30.887171962289784,41.19504656430815,52.72748355759941,53.93421993911947,-10,-0.33,0.33,10,43,33,42.67,43.33,53,10,10,10,10
15,6,0.23986990004777908,w,44.7,Limited Time - 800ms,h,59.48871850715739,44.71414881067757,32.33887166277573,47.62936883132349,32.33887166277573,44.71414881067757,59.48871850715739,47.62936883132349,-10,-0.33,0.33,10,43,33,42.67,43.33,53,10,10,10,10
15,7,0.20289819996105507,q,48.7,Limited Time - 800ms,h,48.74685209165586,40.845466846527756,42.49802945370295,59.115249347423315,42.49802945370295,40.845466846527756,48.74685209165586,59.115249347423315,-10,-0.33,0.33,10,43,33,42.67,43.33,53,10,10,10,10
15,8,0.24217939999653026,w,47.7,Limited Time - 800ms,h,37.25760060087289,47.68167997690347,26.87914575198322,53.15116064773937,26.87914575198322,47.68167997690347,37.25760060087289,53.15116064773937,-10,-0.33,0.33,10,43,33,42.67,43.33,53,10,10,10,10
15,9,0.05873690004227683,p,33.6,Limited Time - 800ms,h,47.330267834760406,27.279900313185877,38.78059870787188,33.59984125212404,38.78059870787188,27.279900313185877,47.330267834760406,33.59984125212404,-10,-0.33,0.33,10,43,33,42.67,43.33,53,10,10,10,10
15,10,0.03290829999605194,o,42.7,Limited Time - 800ms,h,47.15849910820618,51.4477467729883,42.653221497271296,40.15557805081863,42.653221497271296,51.4477467729883,47.15849910820618,40.15557805081863,-10,-0.33,0.33,10,43,33,42.67,43.33,53,10,10,10,10
15,11,0.08158779999939725,w,40.0,Limited Time - 800ms,h,37.300298669735156,40.035485111874735,37.92425382224996,55.926136805485235,37.92425382224996,40.035485111874735,37.300298669735156,55.926136805485235,-10,-0.33,0.33,10,43,33,42.67,43.33,53,10,10,10,10
15,12,0.1871011999901384,q,45.9,Limited Time - 800ms,h,45.891393524190775,43.72477316686056,12.658334151671149,60.567813126486406,12.658334151671149,43.72477316686056,45.891393524190775,60.567813126486406,-10,-0.33,0.33,10,43,33,42.67,43.33,53,10,10,10,10
15,13,0.14625079999677837,p,52.6,Limited Time - 800ms,h,44.22845869294994,33.70446674592984,34.32306566686947,52.607983085705825,34.32306566686947,33.70446674592984,44.22845869294994,52.607983085705825,-10,-0.33,0.33,10,43,33,42.67,43.33,53,10,10,10,10
15,14,0.16278549999697134,o,37.8,Limited Time - 800ms,h,56.162973979186816,36.1304360402219,37.816124943836606,51.53566077742346,37.816124943836606,36.1304360402219,56.162973979186816,51.53566077742346,-10,-0.33,0.33,10,43,33,42.67,43.33,53,10,10,10,10
15,15,0.1853042999864556,w,50.4,Limited Time - 800ms,h,46.1004572140909,50.37256137232688,9.376616069343406,59.3023887310107,9.376616069343406,50.37256137232688,46.1004572140909,59.3023887310107,-10,-0.33,0.33,10,43,33,42.67,43.33,53,10,10,10,10
15,16,0.275737099989783,w,27.4,Limited Time - 800ms,h,32.86603865429635,27.383593406230382,47.56242453745259,57.95311388254604,47.56242453745259,27.383593406230382,32.86603865429635,57.95311388254604,-10,-0.33,0.33,10,43,33,42.67,43.33,53,10,10,10,10
15,17,0.08588470000540838,p,50.8,Limited Time - 800ms,h,49.90563806553322,43.39576134888721,21.912048250900256,50.77364361946407,21.912048250900256,43.39576134888721,49.90563806553322,50.77364361946407,-10,-0.33,0.33,10,43,33,42.67,43.33,53,10,10,10,10
15,18,0.19798749999608845,q,44.4,Limited Time - 800ms,h,44.41338990440327,48.63412542282932,23.096779137830254,53.08382587625548,23.096779137830254,48.63412542282932,44.41338990440327,53.08382587625548,-10,-0.33,0.33,10,43,33,42.67,43.33,53,10,10,10,10
15,19,0.2885414999909699,p,56.1,Limited Time - 800ms,h,42.05283731796213,27.95079532717895,38.25990976931398,56.093216934968446,38.25990976931398,27.95079532717895,42.05283731796213,56.093216934968446,-10,-0.33,0.33,10,43,33,42.67,43.33,53,10,10,10,10
15,20,0.2426524999900721,p,52.5,Limited Time - 800ms,h,45.53635802540581,48.08605940857283,19.37548069087816,52.525174085980765,19.37548069087816,48.08605940857283,45.53635802540581,52.525174085980765,-10,-0.33,0.33,10,43,33,42.67,43.33,53,10,10,10,10
16,1,0.3334099000203423,p,34.7,Unlimited Time,i,58.27818347044064,34.850885059045225,54.28764464346618,34.67394621808321,34.67394621808321,34.850885059045225,58.27818347044064,54.28764464346618,-10,-10,10,10,43,33,33,53,53,3.1622776601683795,10,3.1622776601683795,10
16,2,0.329134100000374,o,47.8,Unlimited Time,i,47.885748876829936,31.662218839140294,47.78275201265029,37.061722934129804,37.061722934129804,31.662218839140294,47.885748876829936,47.78275201265029,-10,-10,10,10,43,33,33,53,53,3.1622776601683795,10,3.1622776601683795,10
16,3,0.24511400004848838,w,39.0,Unlimited Time,i,54.00360419372381,38.957694792978614,48.10327410590534,34.57244399641339,34.57244399641339,38.957694792978614,54.00360419372381,48.10327410590534,-10,-10,10,10,43,33,33,53,53,3.1622776601683795,10,3.1622776601683795,10
16,4,0.31932700000470504,q,53.0,Unlimited Time,i,53.038920650763586,33.118092469790156,46.374381850549575,33.889277947790696,33.889277947790696,33.118092469790156,53.038920650763586,46.374381850549575,-10,-10,10,10,43,33,33,53,53,3.1622776601683795,10,3.1622776601683795,10
16,5,0.44936369999777526,q,48.3,Unlimited Time,i,48.25373228880796,37.15847830602772,50.83370533763632,35.9614009616518,35.9614009616518,37.15847830602772,48.25373228880796,50.83370533763632,-10,-10,10,10,43,33,33,53,53,3.1622776601683795,10,3.1622776601683795,10
16,6,0.2173219000105746,p,33.3,Unlimited Time,i,53.03028039345466,34.76868866858984,37.281316708595085,33.29834616950528,33.29834616950528,34.76868866858984,53.03028039345466,37.281316708595085,-10,-10,10,10,43,33,33,53,53,3.1622776601683795,10,3.1622776601683795,10
16,7,0.7203957999590784,w,36.7,Unlimited Time,i,49.44009713645453,36.66807010430307,66.13582430965945,34.017467958702454,34.017467958702454,36.66807010430307,49.44009713645453,66.13582430965945,-10,-10,10,10,43,33,33,53,53,3.1622776601683795,10,3.1622776601683795,10
16,8,0.32674210000550374,q,54.7,Unlimited Time,i,54.711969240985816,27.59393989173844,44.684323309385036,32.44539974707978,32.44539974707978,27.59393989173844,54.711969240985816,44.684323309385036,-10,-10,10,10,43,33,33,53,53,3.1622776601683795,10,3.1622776601683795,10
16,9,0.39115310000488535,p,28.0,Unlimited Time,i,52.03417386246146,34.846332700273564,62.09175671054744,28.017500156334382,28.017500156334382,34.846332700273564,52.03417386246146,62.09175671054744,-10,-10,10,10,43,33,33,53,53,3.1622776601683795,10,3.1622776601683795,10
16,10,0.03918279998470098,q,56.3,Unlimited Time,i,56.25933598399261,26.183721930583985,50.92601150758059,30.665469591315926,30.665469591315926,26.183721930583985,56.25933598399261,50.92601150758059,-10,-10,10,10,43,33,33,53,53,3.1622776601683795,10,3.1622776601683795,10
16,11,0.3669911000179127,p,34.7,Unlimited Time,i,51.28175988858287,36.44682469597672,50.79150690401481,34.71980289373655,34.71980289373655,36.44682469597672,51.28175988858287,50.79150690401481,-10,-10,10,10,43,33,33,53,53,3.1622776601683795,10,3.1622776601683795,10
16,12,0.6348212999873795,q,52.8,Unlimited Time,i,52.77018064847582,41.91618923336176,54.90578187779806,25.513865942080535,25.513865942080535,41.91618923336176,52.77018064847582,54.90578187779806,-10,-10,10,10,43,33,33,53,53,3.1622776601683795,10,3.1622776601683795,10
16,13,0.7875702000455931,o,42.7,Unlimited Time,i,47.61911054781927,23.823973031753027,42.72534665585001,38.18771092403249,38.18771092403249,23.823973031753027,47.61911054781927,42.72534665585001,-10,-10,10,10,43,33,33,53,53,3.1622776601683795,10,3.1622776601683795,10
16,14,0.4930780000286177,q,49.9,Unlimited Time,i,49.92246440539741,37.57093749100359,52.27459771761265,31.735421313028485,31.735421313028485,37.57093749100359,49.92246440539741,52.27459771761265,-10,-10,10,10,43,33,33,53,53,3.1622776601683795,10,3.1622776601683795,10
16,15,0.8989417999982834,w,34.9,Unlimited Time,i,50.04852546003514,34.93043232358745,46.667627631672346,34.042542104809584,34.042542104809584,34.93043232358745,50.04852546003514,46.667627631672346,-10,-10,10,10,43,33,33,53,53,3.1622776601683795,10,3.1622776601683795,10
16,16,0.3115227000089362,q,55.2,Unlimited Time,i,55.16940404549498,32.26449988720159,57.85250706822121,35.1783328215165,35.1783328215165,32.26449988720159,55.16940404549498,57.85250706822121,-10,-10,10,10,43,33,33,53,53,3.1622776601683795,10,3.1622776601683795,10
16,17,0.69417049997719,p,31.8,Unlimited Time,i,51.88902303330022,34.389660901261266,57.762677975117214,31.831432900764394,31.831432900764394,34.389660901261266,51.88902303330022,57.762677975117214,-10,-10,10,10,43,33,33,53,53,3.1622776601683795,10,3.1622776601683795,10
16,18,0.43592980003450066,q,52.4,Unlimited Time,i,52.40392142235348,51.67821554167391,38.410640848368196,31.28476851647178,31.28476851647178,51.67821554167391,52.40392142235348,38.410640848368196,-10,-10,10,10,43,33,33,53,53,3.1622776601683795,10,3.1622776601683795,10
16,19,0.5017344999941997,o,72.1,Unlimited Time,i,51.10178362202574,27.106712468887398,72.14943040651204,29.62362390333265,29.62362390333265,27.106712468887398,51.10178362202574,72.14943040651204,-10,-10,10,10,43,33,33,53,53,3.1622776601683795,10,3.1622776601683795,10
16,20,0.5019231000333093,q,49.4,Unlimited Time,i,49.3863190732675,27.81151935829344,48.82388492541054,28.260789304898175,28.260789304898175,27.81151935829344,49.3863190732675,48.82388492541054,-10,-10,10,10,43,33,33,53,53,3.1622776601683795,10,3.1622776601683795,10
17,1,0.3607264999882318,o,43.1,Limited Time - 400ms,e,47.367527842966666,51.98001550754136,43.055419082149854,36.52884815420819,47.367527842966666,43.055419082149854,51.98001550754136,36.52884815420819,0,0,0,0,43,43,43,43,43,3.1622776601683795,6.324555320336759,8.366600265340756,10
17,2,0.18722870002966374,p,38.8,Limited Time - 400ms,e,39.73450740308121,43.11580812836571,49.85550267800339,38.781088811353015,39.73450740308121,49.85550267800339,43.11580812836571,38.781088811353015,0,0,0,0,43,43,43,43,43,3.1622776601683795,6.324555320336759,8.366600265340756,10
17,3,,,0.0,Limited Time - 400ms,e,42.42726813430448,31.220077821191925,28.34339718049249,45.71372438293129,42.42726813430448,28.34339718049249,31.220077821191925,45.71372438293129,0,0,0,0,43,43,43,43,43,3.1622776601683795,6.324555320336759,8.366600265340756,10
17,4,,,0.0,Limited Time - 400ms,e,43.19087383994595,39.0834911913668,38.59833936828106,30.0809672052904,43.19087383994595,38.59833936828106,39.0834911913668,30.0809672052904,0,0,0,0,43,43,43,43,43,3.1622776601683795,6.324555320336759,8.366600265340756,10
17,5,0.23937390005448833,q,48.3,Limited Time - 400ms,e,48.28847717168483,55.4946035522916,53.714277112972574,30.335851054452085,48.28847717168483,53.714277112972574,55.4946035522916,30.335851054452085,0,0,0,0,43,43,43,43,43,3.1622776601683795,6.324555320336759,8.366600265340756,10
17,6,,,0.0,Limited Time - 400ms,e,43.73323289123855,40.374570745760806,41.239805301592384,49.540356985091364,43.73323289123855,41.239805301592384,40.374570745760806,49.540356985091364,0,0,0,0,43,43,43,43,43,3.1622776601683795,6.324555320336759,8.366600265340756,10
17,7,,,0.0,Limited Time - 400ms,e,44.27459263814274,58.52291954694931,51.12497510399552,45.82184003063485,44.27459263814274,51.12497510399552,58.52291954694931,45.82184003063485,0,0,0,0,43,43,43,43,43,3.1622776601683795,6.324555320336759,8.366600265340756,10
17,8,0.3443286999827251,q,43.8,Limited Time - 400ms,e,43.77484966417663,58.22364013027823,47.881769900549344,67.47571536460785,43.77484966417663,47.881769900549344,58.22364013027823,67.47571536460785,0,0,0,0,43,43,43,43,43,3.1622776601683795,6.324555320336759,8.366600265340756,10
17,9,0.29946329997619614,p,33.3,Limited Time - 400ms,e,44.10257928993805,52.09193309910423,36.730305269063,33.281770173112065,44.10257928993805,36.730305269063,52.09193309910423,33.281770173112065,0,0,0,0,43,43,43,43,43,3.1622776601683795,6.324555320336759,8.366600265340756,10
17,10,0.2517742000054568,w,37.8,Limited Time - 400ms,e,42.8736754563465,37.84205113379767,39.14626503997215,40.43600034695382,42.8736754563465,39.14626503997215,37.84205113379767,40.43600034695382,0,0,0,0,43,43,43,43,43,3.1622776601683795,6.324555320336759,8.366600265340756,10
17,11,0.26844819996040314,p,44.1,Limited Time - 400ms,e,42.68866440001195,58.045831761347785,44.98042212718015,44.06779554384025,42.68866440001195,44.98042212718015,58.045831761347785,44.06779554384025,0,0,0,0,43,43,43,43,43,3.1622776601683795,6.324555320336759,8.366600265340756,10
17,12,0.22899889998370782,q,43.1,Limited Time - 400ms,e,43.07806622544012,52.090134704118356,43.83699034891813,44.946795982882676,43.07806622544012,43.83699034891813,52.090134704118356,44.946795982882676,0,0,0,0,43,43,43,43,43,3.1622776601683795,6.324555320336759,8.366600265340756,10
17,13,0.19626930000958964,w,49.9,Limited Time - 400ms,e,49.20434083105017,49.90970245601588,48.992299916703146,31.642424839117293,49.20434083105017,48.992299916703146,49.90970245601588,31.642424839117293,0,0,0,0,43,43,43,43,43,3.1622776601683795,6.324555320336759,8.366600265340756,10
17,14,0.2921306000207551,p,47.3,Limited Time - 400ms,e,43.66073626749281,42.12905210377914,39.02068746067439,47.29302742483708,43.66073626749281,39.02068746067439,42.12905210377914,47.29302742483708,0,0,0,0,43,43,43,43,43,3.1622776601683795,6.324555320336759,8.366600265340756,10
17,15,0.27968249999685213,w,50.1,Limited Time - 400ms,e,42.5981271021459,50.07428395424186,45.52585176259467,27.132826974989285,42.5981271021459,45.52585176259467,50.07428395424186,27.132826974989285,0,0,0,0,43,43,43,43,43,3.1622776601683795,6.324555320336759,8.366600265340756,10
17,16,0.3490897999727167,p,36.3,Limited Time - 400ms,e,48.34818211425751,33.15324757197946,35.091981909891075,36.296460299103906,48.34818211425751,35.091981909891075,33.15324757197946,36.296460299103906,0,0,0,0,43,43,43,43,43,3.1622776601683795,6.324555320336759,8.366600265340756,10
17,17,0.14012599998386577,q,41.2,Limited Time - 400ms,e,41.21081067463991,25.84629508966757,41.52065284617059,41.81683566301492,41.21081067463991,41.52065284617059,25.84629508966757,41.81683566301492,0,0,0,0,43,43,43,43,43,3.1622776601683795,6.324555320336759,8.366600265340756,10
17,18,0.11269500001799315,w,58.4,Limited Time - 400ms,e,37.86120972367536,58.39913177829308,37.94793901089253,42.46369313309812,37.86120972367536,37.94793901089253,58.39913177829308,42.46369313309812,0,0,0,0,43,43,43,43,43,3.1622776601683795,6.324555320336759,8.366600265340756,10
17,19,0.24951950000831857,p,36.3,Limited Time - 400ms,e,48.498802426455725,55.55342123874718,48.18324477130481,36.27754198348792,48.498802426455725,48.18324477130481,55.55342123874718,36.27754198348792,0,0,0,0,43,43,43,43,43,3.1622776601683795,6.324555320336759,8.366600265340756,10
17,20,0.16395909996936098,w,34.0,Limited Time - 400ms,e,45.25400787293522,34.034010210821464,42.80930252239442,33.836005068784715,45.25400787293522,42.80930252239442,34.034010210821464,33.836005068784715,0,0,0,0,43,43,43,43,43,3.1622776601683795,6.324555320336759,8.366600265340756,10
18,1,0.3588852999964729,p,34.7,Limited Time - 800ms,i,54.28764464346618,58.27818347044064,34.850885059045225,34.67394621808321,34.67394621808321,34.850885059045225,58.27818347044064,54.28764464346618,-10,-10,10,10,43,33,33,53,53,3.1622776601683795,10,3.1622776601683795,10
18,2,0.045997000008355826,w,47.9,Limited Time - 800ms,i,47.78275201265029,47.885748876829936,31.662218839140294,37.061722934129804,37.061722934129804,31.662218839140294,47.885748876829936,47.78275201265029,-10,-10,10,10,43,33,33,53,53,3.1622776601683795,10,3.1622776601683795,10
18,3,0.247213099966757,o,39.0,Limited Time - 800ms,i,48.10327410590534,54.00360419372381,38.957694792978614,34.57244399641339,34.57244399641339,38.957694792978614,54.00360419372381,48.10327410590534,-10,-10,10,10,43,33,33,53,53,3.1622776601683795,10,3.1622776601683795,10
18,4,0.15556639997521415,q,46.4,Limited Time - 800ms,i,46.374381850549575,53.038920650763586,33.118092469790156,33.889277947790696,33.889277947790696,33.118092469790156,53.038920650763586,46.374381850549575,-10,-10,10,10,43,33,33,53,53,3.1622776601683795,10,3.1622776601683795,10
18,5,0.2787737000035122,q,50.8,Limited Time - 800ms,i,50.83370533763632,48.25373228880796,37.15847830602772,35.9614009616518,35.9614009616518,37.15847830602772,48.25373228880796,50.83370533763632,-10,-10,10,10,43,33,33,53,53,3.1622776601683795,10,3.1622776601683795,10
18,6,0.2756414000177756,w,53.0,Limited Time - 800ms,i,37.281316708595085,53.03028039345466,34.76868866858984,33.29834616950528,33.29834616950528,34.76868866858984,53.03028039345466,37.281316708595085,-10,-10,10,10,43,33,33,53,53,3.1622776601683795,10,3.1622776601683795,10
18,7,0.27537030004896224,p,34.0,Limited Time - 800ms,i,66.13582430965945,49.44009713645453,36.66807010430307,34.017467958702454,34.017467958702454,36.66807010430307,49.44009713645453,66.13582430965945,-10,-10,10,10,43,33,33,53,53,3.1622776601683795,10,3.1622776601683795,10
18,8,0.28180500003509223,q,44.7,Limited Time - 800ms,i,44.684323309385036,54.711969240985816,27.59393989173844,32.44539974707978,32.44539974707978,27.59393989173844,54.711969240985816,44.684323309385036,-10,-10,10,10,43,33,33,53,53,3.1622776601683795,10,3.1622776601683795,10
18,9,0.3636442000279203,w,52.0,Limited Time - 800ms,i,62.09175671054744,52.03417386246146,34.846332700273564,28.017500156334382,28.017500156334382,34.846332700273564,52.03417386246146,62.09175671054744,-10,-10,10,10,43,33,33,53,53,3.1622776601683795,10,3.1622776601683795,10
18,10,0.24081310001201928,p,30.7,Limited Time - 800ms,i,50.92601150758059,56.25933598399261,26.183721930583985,30.665469591315926,30.665469591315926,26.183721930583985,56.25933598399261,50.92601150758059,-10,-10,10,10,43,33,33,53,53,3.1622776601683795,10,3.1622776601683795,10
18,11,0.24348500004271045,w,51.3,Limited Time - 800ms,i,50.79150690401481,51.28175988858287,36.44682469597672,34.71980289373655,34.71980289373655,36.44682469597672,51.28175988858287,50.79150690401481,-10,-10,10,10,43,33,33,53,53,3.1622776601683795,10,3.1622776601683795,10
18,12,0.26942270004656166,p,25.5,Limited Time - 800ms,i,54.90578187779806,52.77018064847582,41.91618923336176,25.513865942080535,25.513865942080535,41.91618923336176,52.77018064847582,54.90578187779806,-10,-10,10,10,43,33,33,53,53,3.1622776601683795,10,3.1622776601683795,10
18,13,0.13900290004676208,w,47.6,Limited Time - 800ms,i,42.72534665585001,47.61911054781927,23.823973031753027,38.18771092403249,38.18771092403249,23.823973031753027,47.61911054781927,42.72534665585001,-10,-10,10,10,43,33,33,53,53,3.1622776601683795,10,3.1622776601683795,10
18,14,0.10673519998090342,q,52.3,Limited Time - 800ms,i,52.27459771761265,49.92246440539741,37.57093749100359,31.735421313028485,31.735421313028485,37.57093749100359,49.92246440539741,52.27459771761265,-10,-10,10,10,43,33,33,53,53,3.1622776601683795,10,3.1622776601683795,10
18,15,0.029170199995860457,p,34.0,Limited Time - 800ms,i,46.667627631672346,50.04852546003514,34.93043232358745,34.042542104809584,34.042542104809584,34.93043232358745,50.04852546003514,46.667627631672346,-10,-10,10,10,43,33,33,53,53,3.1622776601683795,10,3.1622776601683795,10
18,16,0.10190279997186735,w,55.2,Limited Time - 800ms,i,57.85250706822121,55.16940404549498,32.26449988720159,35.1783328215165,35.1783328215165,32.26449988720159,55.16940404549498,57.85250706822121,-10,-10,10,10,43,33,33,53,53,3.1622776601683795,10,3.1622776601683795,10
18,17,0.23230610002065077,o,34.4,Limited Time - 800ms,i,57.762677975117214,51.88902303330022,34.389660901261266,31.831432900764394,31.831432900764394,34.389660901261266,51.88902303330022,57.762677975117214,-10,-10,10,10,43,33,33,53,53,3.1622776601683795,10,3.1622776601683795,10
18,18,0.28552739997394383,p,31.3,Limited Time - 800ms,i,38.410640848368196,52.40392142235348,51.67821554167391,31.28476851647178,31.28476851647178,51.67821554167391,52.40392142235348,38.410640848368196,-10,-10,10,10,43,33,33,53,53,3.1622776601683795,10,3.1622776601683795,10
18,19,0.06945249997079372,q,72.1,Limited Time - 800ms,i,72.14943040651204,51.10178362202574,27.106712468887398,29.62362390333265,29.62362390333265,27.106712468887398,51.10178362202574,72.14943040651204,-10,-10,10,10,43,33,33,53,53,3.1622776601683795,10,3.1622776601683795,10
18,20,0.3532330999732949,w,49.4,Limited Time - 800ms,i,48.82388492541054,49.3863190732675,27.81151935829344,28.260789304898175,28.260789304898175,27.81151935829344,49.3863190732675,48.82388492541054,-10,-10,10,10,43,33,33,53,53,3.1622776601683795,10,3.1622776601683795,10
19,1,0.41570439998758957,p,54.3,Unlimited Time,l,42.537832940898014,43.45200303982288,31.8558730594653,54.29820654894544,31.8558730594653,43.45200303982288,42.537832940898014,54.29820654894544,-10,-0.33,0.33,10,43,33,42.67,43.33,53,3.1622776601683795,3.1622776601683795,3.1622776601683795,3.1622776601683795
19,2,0.20848009997280315,w,42.0,Unlimited Time,l,42.57113180876308,42.009794257510784,32.4349247121055,51.731357352073836,32.4349247121055,42.009794257510784,42.57113180876308,51.731357352073836,-10,-0.33,0.33,10,43,33,42.67,43.33,53,3.1622776601683795,3.1622776601683795,3.1622776601683795,3.1622776601683795
19,3,0.2907122999895364,q,40.9,Unlimited Time,l,40.92167904047529,44.920190051555714,31.84594053038824,53.063716805170465,31.84594053038824,44.920190051555714,40.92167904047529,53.063716805170465,-10,-0.33,0.33,10,43,33,42.67,43.33,53,3.1622776601683795,3.1622776601683795,3.1622776601683795,3.1622776601683795
19,4,0.3496267999871634,p,56.8,Unlimited Time,l,43.826394572489264,48.468506514415225,31.73945636564372,56.788838923709555,31.73945636564372,48.468506514415225,43.826394572489264,56.788838923709555,-10,-0.33,0.33,10,43,33,42.67,43.33,53,3.1622776601683795,3.1622776601683795,3.1622776601683795,3.1622776601683795
19,5,0.3534663000027649,o,33.1,Unlimited Time,l,44.79806898688685,38.950503886614456,33.09672951892321,57.007230678001946,33.09672951892321,38.950503886614456,44.79806898688685,57.007230678001946,-10,-0.33,0.33,10,43,33,42.67,43.33,53,3.1622776601683795,3.1622776601683795,3.1622776601683795,3.1622776601683795
19,6,0.33619320002617314,q,48.0,Unlimited Time,l,48.040581324570624,43.87097035661973,37.49259507011129,51.74752875018639,37.49259507011129,43.87097035661973,48.040581324570624,51.74752875018639,-10,-0.33,0.33,10,43,33,42.67,43.33,53,3.1622776601683795,3.1622776601683795,3.1622776601683795,3.1622776601683795
