Round Number,Trial Number,Reaction Time,Choice,Reward (Health Points),Time Condition,Payoff Condition,Q mapped,W mapped,O mapped,P mapped,One value,Two value,Three value,Four value,One mean,Two mean,Three mean,Four mean,Mean Shift,One shifted mean,Two shifted mean,Three shifted mean,Four shifted mean,One SD,Two SD,Three SD,Four SD
1,1,0.3125372999929823,w,54.3,Unlimited Time,l,48.66372880331731,54.2752847570154,64.69187155813886,58.97634657706779,48.66372880331731,54.2752847570154,58.97634657706779,64.69187155813886,-10,-0.33,0.33,10,55,45,54.67,55.33,65,3.1622776601683795,3.1622776601683795,3.1622776601683795,3.1622776601683795
1,2,0.2519668000022648,o,60.0,Unlimited Time,l,44.7784572378026,48.2968579926621,60.00762705544562,50.6881671268751,44.7784572378026,48.2968579926621,50.6881671268751,60.00762705544562,-10,-0.33,0.33,10,55,45,54.67,55.33,65,3.1622776601683795,3.1622776601683795,3.1622776601683795,3.1622776601683795
1,3,0.12255780000123195,p,56.8,Unlimited Time,l,48.8837372195181,58.7477969340195,63.31831637421894,56.77729349894645,48.8837372195181,58.7477969340195,56.77729349894645,63.31831637421894,-10,-0.33,0.33,10,55,45,54.67,55.33,65,3.1622776601683795,3.1622776601683795,3.1622776601683795,3.1622776601683795
1,4,0.031078900006832555,p,60.7,Unlimited Time,l,45.82141232999466,49.569136017131136,64.85227223613894,60.657784141178595,45.82141232999466,49.569136017131136,60.657784141178595,64.85227223613894,-10,-0.33,0.33,10,55,45,54.67,55.33,65,3.1622776601683795,3.1622776601683795,3.1622776601683795,3.1622776601683795
1,5,0.14348990000144113,p,53.2,Unlimited Time,l,47.99868325707443,60.14942025634073,65.0412786787725,53.24650754074046,47.99868325707443,60.14942025634073,53.24650754074046,65.0412786787725,-10,-0.33,0.33,10,55,45,54.67,55.33,65,3.1622776601683795,3.1622776601683795,3.1622776601683795,3.1622776601683795
1,6,0.1057027999922866,q,43.2,Unlimited Time,l,43.206333578699834,53.8236731488463,68.18446587688547,55.35590920991202,43.206333578699834,53.8236731488463,55.35590920991202,68.18446587688547,-10,-0.33,0.33,10,55,45,54.67,55.33,65,3.1622776601683795,3.1622776601683795,3.1622776601683795,3.1622776601683795
1,7,0.05545020000135992,q,45.6,Unlimited Time,l,45.637401868781744,53.89159765438428,73.22547964590433,62.54104862634358,45.637401868781744,53.89159765438428,62.54104862634358,73.22547964590433,-10,-0.33,0.33,10,55,45,54.67,55.33,65,3.1622776601683795,3.1622776601683795,3.1622776601683795,3.1622776601683795
1,8,0.23857310001039878,w,56.1,Unlimited Time,l,43.05188392576867,56.09060698700678,64.05406307752979,56.74005665893095,43.05188392576867,56.09060698700678,56.74005665893095,64.05406307752979,-10,-0.33,0.33,10,55,45,54.67,55.33,65,3.1622776601683795,3.1622776601683795,3.1622776601683795,3.1622776601683795
1,9,0.04740680000395514,w,54.3,Unlimited Time,l,44.6378237023631,54.25062581724758,63.84128051413324,57.100903044964035,44.6378237023631,54.25062581724758,57.100903044964035,63.84128051413324,-10,-0.33,0.33,10,55,45,54.67,55.33,65,3.1622776601683795,3.1622776601683795,3.1622776601683795,3.1622776601683795
1,10,0.04118200000084471,o,61.1,Unlimited Time,l,43.3039128243765,54.331735434440006,61.13341591528625,58.43477907812277,43.3039128243765,54.331735434440006,58.43477907812277,61.13341591528625,-10,-0.33,0.33,10,55,45,54.67,55.33,65,3.1622776601683795,3.1622776601683795,3.1622776601683795,3.1622776601683795
1,11,0.12416989999474026,o,62.5,Unlimited Time,l,38.975163852135076,48.90012462438234,62.51104149406763,54.00313509450496,38.975163852135076,48.90012462438234,54.00313509450496,62.51104149406763,-10,-0.33,0.33,10,55,45,54.67,55.33,65,3.1622776601683795,3.1622776601683795,3.1622776601683795,3.1622776601683795
1,12,0.10149790000286885,o,68.9,Unlimited Time,l,38.635915951747776,55.726198258115524,68.86942950046279,48.70211580751507,38.635915951747776,55.726198258115524,48.70211580751507,68.86942950046279,-10,-0.33,0.33,10,55,45,54.67,55.33,65,3.1622776601683795,3.1622776601683795,3.1622776601683795,3.1622776601683795
1,13,0.13887750000867527,o,58.8,Unlimited Time,l,44.14550987978096,53.25601492931689,58.80208443052948,53.78994932478702,44.14550987978096,53.25601492931689,53.78994932478702,58.80208443052948,-10,-0.33,0.33,10,55,45,54.67,55.33,65,3.1622776601683795,3.1622776601683795,3.1622776601683795,3.1622776601683795
1,14,0.13401050001266412,o,65.1,Unlimited Time,l,47.34458600579791,53.42373677451056,65.12247474462553,50.5017288017257,47.34458600579791,53.42373677451056,50.5017288017257,65.12247474462553,-10,-0.33,0.33,10,55,45,54.67,55.33,65,3.1622776601683795,3.1622776601683795,3.1622776601683795,3.1622776601683795
1,15,0.10372640000423416,o,62.6,Unlimited Time,l,45.43356696980828,56.65596422305217,62.55279255537139,57.90236389699811,45.43356696980828,56.65596422305217,57.90236389699811,62.55279255537139,-10,-0.33,0.33,10,55,45,54.67,55.33,65,3.1622776601683795,3.1622776601683795,3.1622776601683795,3.1622776601683795
1,16,0.14430880000873003,o,65.0,Unlimited Time,l,43.31293268795905,55.172627805247465,65.01511079617866,56.77060341179223,43.31293268795905,55.172627805247465,56.77060341179223,65.01511079617866,-10,-0.33,0.33,10,55,45,54.67,55.33,65,3.1622776601683795,3.1622776601683795,3.1622776601683795,3.1622776601683795
1,17,0.1321791999944253,o,70.0,Unlimited Time,l,45.367013723941064,57.34386640438425,69.95211863029547,53.23770565065964,45.367013723941064,57.34386640438425,53.23770565065964,69.95211863029547,-10,-0.33,0.33,10,55,45,54.67,55.33,65,3.1622776601683795,3.1622776601683795,3.1622776601683795,3.1622776601683795
1,18,0.17855679999047425,o,65.6,Unlimited Time,l,48.14575050773835,56.73156892688445,65.61482781694349,61.29042550646241,48.14575050773835,56.73156892688445,61.29042550646241,65.61482781694349,-10,-0.33,0.33,10,55,45,54.67,55.33,65,3.1622776601683795,3.1622776601683795,3.1622776601683795,3.1622776601683795
1,19,0.1602772000042023,o,67.2,Unlimited Time,l,42.40581374087159,57.261748076072614,67.20056563295913,58.051359915037125,42.40581374087159,57.261748076072614,58.051359915037125,67.20056563295913,-10,-0.33,0.33,10,55,45,54.67,55.33,65,3.1622776601683795,3.1622776601683795,3.1622776601683795,3.1622776601683795
1,20,0.13911899999948218,o,64.4,Unlimited Time,l,40.20159197441857,51.1019713793703,64.35665095666772,54.28164096303956,40.20159197441857,51.1019713793703,54.28164096303956,64.35665095666772,-10,-0.33,0.33,10,55,45,54.67,55.33,65,3.1622776601683795,3.1622776601683795,3.1622776601683795,3.1622776601683795
2,1,,,0.0,Limited Time - 400ms,i,47.88846799323958,63.02169885529943,67.17083288003245,41.79802844078747,47.88846799323958,41.79802844078747,63.02169885529943,67.17083288003245,-10,-10,10,10,55,45,45,65,65,3.1622776601683795,10,3.1622776601683795,10
2,2,0.030594100011512637,w,63.0,Limited Time - 400ms,i,50.732298124807414,63.01247526250506,61.50974799056099,54.76607418702029,50.732298124807414,54.76607418702029,63.01247526250506,61.50974799056099,-10,-10,10,10,55,45,45,65,65,3.1622776601683795,10,3.1622776601683795,10
2,3,0.14462340000318363,w,61.2,Limited Time - 400ms,i,46.02520172189166,61.21443872895767,59.808950063483664,39.211970831029134,46.02520172189166,39.211970831029134,61.21443872895767,59.808950063483664,-10,-10,10,10,55,45,45,65,65,3.1622776601683795,10,3.1622776601683795,10
2,4,0.14544420001038816,w,63.0,Limited Time - 400ms,i,52.794721798754125,62.980262318004606,70.31549404766902,58.68495595963644,52.794721798754125,58.68495595963644,62.980262318004606,70.31549404766902,-10,-10,10,10,55,45,45,65,65,3.1622776601683795,10,3.1622776601683795,10
2,5,0.15511810001044068,w,65.3,Limited Time - 400ms,i,46.50812166236865,65.31994154795208,67.54908902167637,51.5027582347862,46.50812166236865,51.5027582347862,65.31994154795208,67.54908902167637,-10,-10,10,10,55,45,45,65,65,3.1622776601683795,10,3.1622776601683795,10
2,6,0.017252599995117635,w,63.8,Limited Time - 400ms,i,46.35929087500456,63.845612280705126,84.53960590324567,48.79769039201364,46.35929087500456,48.79769039201364,63.845612280705126,84.53960590324567,-10,-10,10,10,55,45,45,65,65,3.1622776601683795,10,3.1622776601683795,10
2,7,0.03481280000414699,w,64.5,Limited Time - 400ms,i,41.22489729804702,64.4637762337565,66.1261289184689,41.82419598197433,41.22489729804702,41.82419598197433,64.4637762337565,66.1261289184689,-10,-10,10,10,55,45,45,65,65,3.1622776601683795,10,3.1622776601683795,10
2,8,0.024713999999221414,w,63.2,Limited Time - 400ms,i,47.94689593065083,63.21255629915885,53.39909979929455,42.335129751994856,47.94689593065083,42.335129751994856,63.21255629915885,53.39909979929455,-10,-10,10,10,55,45,45,65,65,3.1622776601683795,10,3.1622776601683795,10
2,9,0.0006690000009257346,w,67.4,Limited Time - 400ms,i,41.53587995911177,67.44108300431914,91.62968716096893,46.71046416094735,41.53587995911177,46.71046416094735,67.44108300431914,91.62968716096893,-10,-10,10,10,55,45,45,65,65,3.1622776601683795,10,3.1622776601683795,10
2,10,0.12407439999515191,p,32.0,Limited Time - 400ms,i,45.3465184054664,70.58893593182209,88.60372453422573,31.982294625625407,45.3465184054664,31.982294625625407,70.58893593182209,88.60372453422573,-10,-10,10,10,55,45,45,65,65,3.1622776601683795,10,3.1622776601683795,10
2,11,0.10648200000287034,p,48.4,Limited Time - 400ms,i,45.37590916308154,64.57606964529388,58.191400081393326,48.3830869144859,45.37590916308154,48.3830869144859,64.57606964529388,58.191400081393326,-10,-10,10,10,55,45,45,65,65,3.1622776601683795,10,3.1622776601683795,10
2,12,0.07693909999215975,p,38.5,Limited Time - 400ms,i,43.998047769303724,69.3875539517878,71.256125719631,38.53642865759777,43.998047769303724,38.53642865759777,69.3875539517878,71.256125719631,-10,-10,10,10,55,45,45,65,65,3.1622776601683795,10,3.1622776601683795,10
2,13,0.09078779999981634,p,57.7,Limited Time - 400ms,i,35.44764896705006,65.25970124672233,56.08233396899744,57.72653322934852,35.44764896705006,57.72653322934852,65.25970124672233,56.08233396899744,-10,-10,10,10,55,45,45,65,65,3.1622776601683795,10,3.1622776601683795,10
2,14,0.09797300001082476,p,47.0,Limited Time - 400ms,i,47.01814577803177,65.19960735032359,69.83609598779482,46.96476537044854,47.01814577803177,46.96476537044854,65.19960735032359,69.83609598779482,-10,-10,10,10,55,45,45,65,65,3.1622776601683795,10,3.1622776601683795,10
2,15,0.06376210000598803,p,30.1,Limited Time - 400ms,i,44.21936955014057,63.93982144747122,62.140004923055194,30.12505900020006,44.21936955014057,30.12505900020006,63.93982144747122,62.140004923055194,-10,-10,10,10,55,45,45,65,65,3.1622776601683795,10,3.1622776601683795,10
2,16,0.06478469999274239,p,31.0,Limited Time - 400ms,i,49.70921346899049,65.72010072917239,56.72983092953605,31.016588901323242,49.70921346899049,31.016588901323242,65.72010072917239,56.72983092953605,-10,-10,10,10,55,45,45,65,65,3.1622776601683795,10,3.1622776601683795,10
2,17,0.011788000003434718,q,44.0,Limited Time - 400ms,i,44.04534989009521,65.24610869202384,75.9545808527293,45.421644799396255,44.04534989009521,45.421644799396255,65.24610869202384,75.9545808527293,-10,-10,10,10,55,45,45,65,65,3.1622776601683795,10,3.1622776601683795,10
2,18,0.17706629999156576,q,41.3,Limited Time - 400ms,i,41.263820273996636,61.94690440398347,57.68105823897973,56.274337162130664,41.263820273996636,56.274337162130664,61.94690440398347,57.68105823897973,-10,-10,10,10,55,45,45,65,65,3.1622776601683795,10,3.1622776601683795,10
2,19,0.1610173999943072,q,45.7,Limited Time - 400ms,i,45.721532916235745,68.91380498604546,74.66614641147682,60.59229143452588,45.721532916235745,60.59229143452588,68.91380498604546,74.66614641147682,-10,-10,10,10,55,45,45,65,65,3.1622776601683795,10,3.1622776601683795,10
2,20,0.18919800000730902,q,45.0,Limited Time - 400ms,i,45.00524940083106,69.67944584715794,67.23970352187293,38.21445125584163,45.00524940083106,38.21445125584163,69.67944584715794,67.23970352187293,-10,-10,10,10,55,45,45,65,65,3.1622776601683795,10,3.1622776601683795,10
3,1,0.24579980000271462,w,46.7,Limited Time - 800ms,h,45.98061918295146,46.701530898669965,50.04943910269716,60.89698570461742,46.701530898669965,60.89698570461742,50.04943910269716,45.98061918295146,-10,-0.33,0.33,10,55,45,54.67,55.33,65,10,10,10,10
3,2,0.010505100013688207,w,23.1,Limited Time - 800ms,h,63.271224126627985,23.143587088830525,42.38346181088664,57.390390672367424,23.143587088830525,57.390390672367424,42.38346181088664,63.271224126627985,-10,-0.33,0.33,10,55,45,54.67,55.33,65,10,10,10,10
3,3,0.008000300003914163,w,51.1,Limited Time - 800ms,h,77.89619598564384,51.1172796033469,41.19795823431197,51.75992003689723,51.1172796033469,51.75992003689723,41.19795823431197,77.89619598564384,-10,-0.33,0.33,10,55,45,54.67,55.33,65,10,10,10,10
3,4,0.1836371999961557,w,47.0,Limited Time - 800ms,h,70.33211097316524,46.97367995409689,60.60977458286732,44.03400762213654,46.97367995409689,44.03400762213654,60.60977458286732,70.33211097316524,-10,-0.33,0.33,10,55,45,54.67,55.33,65,10,10,10,10
3,5,0.04004920000443235,w,54.1,Limited Time - 800ms,h,52.251796237488904,54.0902827981466,60.80270884548825,60.65171519749642,54.0902827981466,60.65171519749642,60.80270884548825,52.251796237488904,-10,-0.33,0.33,10,55,45,54.67,55.33,65,10,10,10,10
3,6,0.11119779999717139,o,61.4,Limited Time - 800ms,h,61.01826806555178,51.370386679587845,61.36940510340288,56.09100832473476,51.370386679587845,56.09100832473476,61.36940510340288,61.01826806555178,-10,-0.33,0.33,10,55,45,54.67,55.33,65,10,10,10,10
3,7,0.13979280000785366,o,50.4,Limited Time - 800ms,h,65.68752640424051,44.734711335100386,50.36819178481168,50.94295823998621,44.734711335100386,50.94295823998621,50.36819178481168,65.68752640424051,-10,-0.33,0.33,10,55,45,54.67,55.33,65,10,10,10,10
3,8,0.14801879999868106,o,56.7,Limited Time - 800ms,h,89.69292102853186,55.79653340931361,56.65091740725891,54.137934736125544,55.79653340931361,54.137934736125544,56.65091740725891,89.69292102853186,-10,-0.33,0.33,10,55,45,54.67,55.33,65,10,10,10,10
3,9,0.12538410001434386,o,77.2,Limited Time - 800ms,h,82.23236054311917,24.994110223794923,77.18038960705275,64.28469541444323,24.994110223794923,64.28469541444323,77.18038960705275,82.23236054311917,-10,-0.33,0.33,10,55,45,54.67,55.33,65,10,10,10,10
3,10,0.14820619999954943,o,48.5,Limited Time - 800ms,h,71.6994258506602,47.08931785425506,48.48682500353985,65.59478008117824,47.08931785425506,65.59478008117824,48.48682500353985,71.6994258506602,-10,-0.33,0.33,10,55,45,54.67,55.33,65,10,10,10,10
3,11,0.13259950000792742,o,45.3,Limited Time - 800ms,h,62.29900631087525,48.19494756096778,45.32333800888665,43.412977680780735,48.19494756096778,43.412977680780735,45.32333800888665,62.29900631087525,-10,-0.33,0.33,10,55,45,54.67,55.33,65,10,10,10,10
3,12,0.14427110001270194,o,54.5,Limited Time - 800ms,h,77.06349135147435,47.31307054824608,54.505588824572726,42.124320415749146,47.31307054824608,42.124320415749146,54.505588824572726,77.06349135147435,-10,-0.33,0.33,10,55,45,54.67,55.33,65,10,10,10,10
3,13,0.2740791999967769,p,59.5,Limited Time - 800ms,h,87.9848656577413,36.68768116105591,56.173106613507564,59.54389428016827,36.68768116105591,59.54389428016827,56.173106613507564,87.9848656577413,-10,-0.33,0.33,10,55,45,54.67,55.33,65,10,10,10,10
3,14,0.11700670000573155,q,84.1,Limited Time - 800ms,h,84.08297480015099,52.057776728285766,45.752564837040524,63.678641025474384,52.057776728285766,63.678641025474384,45.752564837040524,84.08297480015099,-10,-0.33,0.33,10,55,45,54.67,55.33,65,10,10,10,10
3,15,0.017322200001217425,q,60.1,Limited Time - 800ms,h,60.054328236313566,53.515540672178446,41.4333979493622,55.03732518488033,53.515540672178446,55.03732518488033,41.4333979493622,60.054328236313566,-10,-0.33,0.33,10,55,45,54.67,55.33,65,10,10,10,10
3,16,0.17694760000449605,q,75.4,Limited Time - 800ms,h,75.44844403727035,38.02660838447605,50.924085408044405,31.300999516619008,38.02660838447605,31.300999516619008,50.924085408044405,75.44844403727035,-10,-0.33,0.33,10,55,45,54.67,55.33,65,10,10,10,10
3,17,0.18265979998977855,q,63.4,Limited Time - 800ms,h,63.364550838116855,33.2788883203666,48.32879400757632,52.620818457358375,33.2788883203666,52.620818457358375,48.32879400757632,63.364550838116855,-10,-0.33,0.33,10,55,45,54.67,55.33,65,10,10,10,10
3,18,0.1981353000010131,q,61.5,Limited Time - 800ms,h,61.54069697858305,53.39385316090191,54.67820754624112,72.18960699428179,53.39385316090191,72.18960699428179,54.67820754624112,61.54069697858305,-10,-0.33,0.33,10,55,45,54.67,55.33,65,10,10,10,10
3,19,0.02328500000294298,q,79.8,Limited Time - 800ms,h,79.82313666686294,65.37067070244834,69.18460012862265,54.39762847848189,65.37067070244834,54.39762847848189,69.18460012862265,79.82313666686294,-10,-0.33,0.33,10,55,45,54.67,55.33,65,10,10,10,10
3,20,0.017704300000332296,q,68.6,Limited Time - 800ms,h,68.58654537290853,56.45052803581377,65.33384144404236,60.89973561313181,56.45052803581377,60.89973561313181,65.33384144404236,68.58654537290853,-10,-0.33,0.33,10,55,45,54.67,55.33,65,10,10,10,10
4,1,0.344938700000057,o,41.8,Unlimited Time,i,63.02169885529943,67.17083288003245,41.79802844078747,47.88846799323958,47.88846799323958,41.79802844078747,63.02169885529943,67.17083288003245,-10,-10,10,10,55,45,45,65,65,3.1622776601683795,10,3.1622776601683795,10
4,2,0.19778820000647102,q,63.0,Unlimited Time,i,63.01247526250506,61.50974799056099,54.76607418702029,50.732298124807414,50.732298124807414,54.76607418702029,63.01247526250506,61.50974799056099,-10,-10,10,10,55,45,45,65,65,3.1622776601683795,10,3.1622776601683795,10
4,3,0.3198834000068018,w,59.8,Unlimited Time,i,61.21443872895767,59.808950063483664,39.211970831029134,46.02520172189166,46.02520172189166,39.211970831029134,61.21443872895767,59.808950063483664,-10,-10,10,10,55,45,45,65,65,3.1622776601683795,10,3.1622776601683795,10
4,4,0.22948139999061823,o,58.7,Unlimited Time,i,62.980262318004606,70.31549404766902,58.68495595963644,52.794721798754125,52.794721798754125,58.68495595963644,62.980262318004606,70.31549404766902,-10,-10,10,10,55,45,45,65,65,3.1622776601683795,10,3.1622776601683795,10
4,5,0.23438399999577086,p,46.5,Unlimited Time,i,65.31994154795208,67.54908902167637,51.5027582347862,46.50812166236865,46.50812166236865,51.5027582347862,65.31994154795208,67.54908902167637,-10,-10,10,10,55,45,45,65,65,3.1622776601683795,10,3.1622776601683795,10
4,6,0.4068865000153892,o,48.8,Unlimited Time,i,63.845612280705126,84.53960590324567,48.79769039201364,46.35929087500456,46.35929087500456,48.79769039201364,63.845612280705126,84.53960590324567,-10,-10,10,10,55,45,45,65,65,3.1622776601683795,10,3.1622776601683795,10
4,7,0.012319900008151308,p,41.2,Unlimited Time,i,64.4637762337565,66.1261289184689,41.82419598197433,41.22489729804702,41.22489729804702,41.82419598197433,64.4637762337565,66.1261289184689,-10,-10,10,10,55,45,45,65,65,3.1622776601683795,10,3.1622776601683795,10
4,8,0.07230680000793654,o,42.3,Unlimited Time,i,63.21255629915885,53.39909979929455,42.335129751994856,47.94689593065083,47.94689593065083,42.335129751994856,63.21255629915885,53.39909979929455,-10,-10,10,10,55,45,45,65,65,3.1622776601683795,10,3.1622776601683795,10
4,9,0.05826490001345519,p,41.5,Unlimited Time,i,67.44108300431914,91.62968716096893,46.71046416094735,41.53587995911177,41.53587995911177,46.71046416094735,67.44108300431914,91.62968716096893,-10,-10,10,10,55,45,45,65,65,3.1622776601683795,10,3.1622776601683795,10
4,10,0.05846610000298824,q,70.6,Unlimited Time,i,70.58893593182209,88.60372453422573,31.982294625625407,45.3465184054664,45.3465184054664,31.982294625625407,70.58893593182209,88.60372453422573,-10,-10,10,10,55,45,45,65,65,3.1622776601683795,10,3.1622776601683795,10
4,11,0.012345399998594075,o,48.4,Unlimited Time,i,64.57606964529388,58.191400081393326,48.3830869144859,45.37590916308154,45.37590916308154,48.3830869144859,64.57606964529388,58.191400081393326,-10,-10,10,10,55,45,45,65,65,3.1622776601683795,10,3.1622776601683795,10
4,12,0.03138529999705497,o,38.5,Unlimited Time,i,69.3875539517878,71.256125719631,38.53642865759777,43.998047769303724,43.998047769303724,38.53642865759777,69.3875539517878,71.256125719631,-10,-10,10,10,55,45,45,65,65,3.1622776601683795,10,3.1622776601683795,10
4,13,0.054411800010711886,o,57.7,Unlimited Time,i,65.25970124672233,56.08233396899744,57.72653322934852,35.44764896705006,35.44764896705006,57.72653322934852,65.25970124672233,56.08233396899744,-10,-10,10,10,55,45,45,65,65,3.1622776601683795,10,3.1622776601683795,10
4,14,0.003282199992099777,o,47.0,Unlimited Time,i,65.19960735032359,69.83609598779482,46.96476537044854,47.01814577803177,47.01814577803177,46.96476537044854,65.19960735032359,69.83609598779482,-10,-10,10,10,55,45,45,65,65,3.1622776601683795,10,3.1622776601683795,10
4,15,0.05706490001466591,q,63.9,Unlimited Time,i,63.93982144747122,62.140004923055194,30.12505900020006,44.21936955014057,44.21936955014057,30.12505900020006,63.93982144747122,62.140004923055194,-10,-10,10,10,55,45,45,65,65,3.1622776601683795,10,3.1622776601683795,10
4,16,0.07284269999945536,p,49.7,Unlimited Time,i,65.72010072917239,56.72983092953605,31.016588901323242,49.70921346899049,49.70921346899049,31.016588901323242,65.72010072917239,56.72983092953605,-10,-10,10,10,55,45,45,65,65,3.1622776601683795,10,3.1622776601683795,10
4,17,0.009936000002198853,p,44.0,Unlimited Time,i,65.24610869202384,75.9545808527293,45.421644799396255,44.04534989009521,44.04534989009521,45.421644799396255,65.24610869202384,75.9545808527293,-10,-10,10,10,55,45,45,65,65,3.1622776601683795,10,3.1622776601683795,10
4,18,0.01391590001003351,p,41.3,Unlimited Time,i,61.94690440398347,57.68105823897973,56.274337162130664,41.263820273996636,41.263820273996636,56.274337162130664,61.94690440398347,57.68105823897973,-10,-10,10,10,55,45,45,65,65,3.1622776601683795,10,3.1622776601683795,10
4,19,0.0012503999896580353,p,45.7,Unlimited Time,i,68.91380498604546,74.66614641147682,60.59229143452588,45.721532916235745,45.721532916235745,60.59229143452588,68.91380498604546,74.66614641147682,-10,-10,10,10,55,45,45,65,65,3.1622776601683795,10,3.1622776601683795,10
4,20,0.022988400000031106,p,45.0,Unlimited Time,i,69.67944584715794,67.23970352187293,38.21445125584163,45.00524940083106,45.00524940083106,38.21445125584163,69.67944584715794,67.23970352187293,-10,-10,10,10,55,45,45,65,65,3.1622776601683795,10,3.1622776601683795,10
5,1,0.37547270000504795,o,54.3,Limited Time - 400ms,l,58.97634657706779,48.66372880331731,54.2752847570154,64.69187155813886,48.66372880331731,54.2752847570154,58.97634657706779,64.69187155813886,-10,-0.33,0.33,10,55,45,54.67,55.33,65,3.1622776601683795,3.1622776601683795,3.1622776601683795,3.1622776601683795
5,2,0.07857969999895431,o,48.3,Limited Time - 400ms,l,50.6881671268751,44.7784572378026,48.2968579926621,60.00762705544562,44.7784572378026,48.2968579926621,50.6881671268751,60.00762705544562,-10,-0.33,0.33,10,55,45,54.67,55.33,65,3.1622776601683795,3.1622776601683795,3.1622776601683795,3.1622776601683795
5,3,0.016665600007399917,o,58.7,Limited Time - 400ms,l,56.77729349894645,48.8837372195181,58.7477969340195,63.31831637421894,48.8837372195181,58.7477969340195,56.77729349894645,63.31831637421894,-10,-0.33,0.33,10,55,45,54.67,55.33,65,3.1622776601683795,3.1622776601683795,3.1622776601683795,3.1622776601683795
5,4,0.01937410001119133,o,49.6,Limited Time - 400ms,l,60.657784141178595,45.82141232999466,49.569136017131136,64.85227223613894,45.82141232999466,49.569136017131136,60.657784141178595,64.85227223613894,-10,-0.33,0.33,10,55,45,54.67,55.33,65,3.1622776601683795,3.1622776601683795,3.1622776601683795,3.1622776601683795
5,5,0.032221699992078356,q,53.2,Limited Time - 400ms,l,53.24650754074046,47.99868325707443,60.14942025634073,65.0412786787725,47.99868325707443,60.14942025634073,53.24650754074046,65.0412786787725,-10,-0.33,0.33,10,55,45,54.67,55.33,65,3.1622776601683795,3.1622776601683795,3.1622776601683795,3.1622776601683795
5,6,0.03240149999328423,w,43.2,Limited Time - 400ms,l,55.35590920991202,43.206333578699834,53.8236731488463,68.18446587688547,43.206333578699834,53.8236731488463,55.35590920991202,68.18446587688547,-10,-0.33,0.33,10,55,45,54.67,55.33,65,3.1622776601683795,3.1622776601683795,3.1622776601683795,3.1622776601683795
5,7,0.0048716000019339845,o,53.9,Limited Time - 400ms,l,62.54104862634358,45.637401868781744,53.89159765438428,73.22547964590433,45.637401868781744,53.89159765438428,62.54104862634358,73.22547964590433,-10,-0.33,0.33,10,55,45,54.67,55.33,65,3.1622776601683795,3.1622776601683795,3.1622776601683795,3.1622776601683795
5,8,0.0012156000011600554,q,56.7,Limited Time - 400ms,l,56.74005665893095,43.05188392576867,56.09060698700678,64.05406307752979,43.05188392576867,56.09060698700678,56.74005665893095,64.05406307752979,-10,-0.33,0.33,10,55,45,54.67,55.33,65,3.1622776601683795,3.1622776601683795,3.1622776601683795,3.1622776601683795
5,9,0.06621330000052694,p,63.8,Limited Time - 400ms,l,57.100903044964035,44.6378237023631,54.25062581724758,63.84128051413324,44.6378237023631,54.25062581724758,57.100903044964035,63.84128051413324,-10,-0.33,0.33,10,55,45,54.67,55.33,65,3.1622776601683795,3.1622776601683795,3.1622776601683795,3.1622776601683795
5,10,0.047204800008330494,w,43.3,Limited Time - 400ms,l,58.43477907812277,43.3039128243765,54.331735434440006,61.13341591528625,43.3039128243765,54.331735434440006,58.43477907812277,61.13341591528625,-10,-0.33,0.33,10,55,45,54.67,55.33,65,3.1622776601683795,3.1622776601683795,3.1622776601683795,3.1622776601683795
5,11,0.03226550000545103,q,54.0,Limited Time - 400ms,l,54.00313509450496,38.975163852135076,48.90012462438234,62.51104149406763,38.975163852135076,48.90012462438234,54.00313509450496,62.51104149406763,-10,-0.33,0.33,10,55,45,54.67,55.33,65,3.1622776601683795,3.1622776601683795,3.1622776601683795,3.1622776601683795
5,12,0.08273720000579488,p,68.9,Limited Time - 400ms,l,48.70211580751507,38.635915951747776,55.726198258115524,68.86942950046279,38.635915951747776,55.726198258115524,48.70211580751507,68.86942950046279,-10,-0.33,0.33,10,55,45,54.67,55.33,65,3.1622776601683795,3.1622776601683795,3.1622776601683795,3.1622776601683795
5,13,0.053909499998553656,w,44.1,Limited Time - 400ms,l,53.78994932478702,44.14550987978096,53.25601492931689,58.80208443052948,44.14550987978096,53.25601492931689,53.78994932478702,58.80208443052948,-10,-0.33,0.33,10,55,45,54.67,55.33,65,3.1622776601683795,3.1622776601683795,3.1622776601683795,3.1622776601683795
5,14,0.060868899992783554,p,65.1,Limited Time - 400ms,l,50.5017288017257,47.34458600579791,53.42373677451056,65.12247474462553,47.34458600579791,53.42373677451056,50.5017288017257,65.12247474462553,-10,-0.33,0.33,10,55,45,54.67,55.33,65,3.1622776601683795,3.1622776601683795,3.1622776601683795,3.1622776601683795
5,15,0.05279000000155065,w,45.4,Limited Time - 400ms,l,57.90236389699811,45.43356696980828,56.65596422305217,62.55279255537139,45.43356696980828,56.65596422305217,57.90236389699811,62.55279255537139,-10,-0.33,0.33,10,55,45,54.67,55.33,65,3.1622776601683795,3.1622776601683795,3.1622776601683795,3.1622776601683795
5,16,0.07043009999324568,q,56.8,Limited Time - 400ms,l,56.77060341179223,43.31293268795905,55.172627805247465,65.01511079617866,43.31293268795905,55.172627805247465,56.77060341179223,65.01511079617866,-10,-0.33,0.33,10,55,45,54.67,55.33,65,3.1622776601683795,3.1622776601683795,3.1622776601683795,3.1622776601683795
5,17,0.03204350000305567,w,45.4,Limited Time - 400ms,l,53.23770565065964,45.367013723941064,57.34386640438425,69.95211863029547,45.367013723941064,57.34386640438425,53.23770565065964,69.95211863029547,-10,-0.33,0.33,10,55,45,54.67,55.33,65,3.1622776601683795,3.1622776601683795,3.1622776601683795,3.1622776601683795
5,18,0.019982900004833937,q,61.3,Limited Time - 400ms,l,61.29042550646241,48.14575050773835,56.73156892688445,65.61482781694349,48.14575050773835,56.73156892688445,61.29042550646241,65.61482781694349,-10,-0.33,0.33,10,55,45,54.67,55.33,65,3.1622776601683795,3.1622776601683795,3.1622776601683795,3.1622776601683795
5,19,0.10057830000005197,p,67.2,Limited Time - 400ms,l,58.051359915037125,42.40581374087159,57.261748076072614,67.20056563295913,42.40581374087159,57.261748076072614,58.051359915037125,67.20056563295913,-10,-0.33,0.33,10,55,45,54.67,55.33,65,3.1622776601683795,3.1622776601683795,3.1622776601683795,3.1622776601683795
5,20,0.010119900005520321,w,40.2,Limited Time - 400ms,l,54.28164096303956,40.20159197441857,51.1019713793703,64.35665095666772,40.20159197441857,51.1019713793703,54.28164096303956,64.35665095666772,-10,-0.33,0.33,10,55,45,54.67,55.33,65,3.1622776601683795,3.1622776601683795,3.1622776601683795,3.1622776601683795
6,1,0.23282839999592397,o,64.7,Limited Time - 800ms,l,54.2752847570154,48.66372880331731,64.69187155813886,58.97634657706779,48.66372880331731,54.2752847570154,58.97634657706779,64.69187155813886,-10,-0.33,0.33,10,55,45,54.67,55.33,65,3.1622776601683795,3.1622776601683795,3.1622776601683795,3.1622776601683795
6,2,0.07693480000307318,p,50.7,Limited Time - 800ms,l,48.2968579926621,44.7784572378026,60.00762705544562,50.6881671268751,44.7784572378026,48.2968579926621,50.6881671268751,60.00762705544562,-10,-0.33,0.33,10,55,45,54.67,55.33,65,3.1622776601683795,3.1622776601683795,3.1622776601683795,3.1622776601683795
6,3,0.014507500003674068,w,48.9,Limited Time - 800ms,l,58.7477969340195,48.8837372195181,63.31831637421894,56.77729349894645,48.8837372195181,58.7477969340195,56.77729349894645,63.31831637421894,-10,-0.33,0.33,10,55,45,54.67,55.33,65,3.1622776601683795,3.1622776601683795,3.1622776601683795,3.1622776601683795
6,4,0.050767900014761835,p,60.7,Limited Time - 800ms,l,49.569136017131136,45.82141232999466,64.85227223613894,60.657784141178595,45.82141232999466,49.569136017131136,60.657784141178595,64.85227223613894,-10,-0.33,0.33,10,55,45,54.67,55.33,65,3.1622776601683795,3.1622776601683795,3.1622776601683795,3.1622776601683795
6,5,0.057359000013093464,p,53.2,Limited Time - 800ms,l,60.14942025634073,47.99868325707443,65.0412786787725,53.24650754074046,47.99868325707443,60.14942025634073,53.24650754074046,65.0412786787725,-10,-0.33,0.33,10,55,45,54.67,55.33,65,3.1622776601683795,3.1622776601683795,3.1622776601683795,3.1622776601683795
6,6,0.054741700005251914,p,55.4,Limited Time - 800ms,l,53.8236731488463,43.206333578699834,68.18446587688547,55.35590920991202,43.206333578699834,53.8236731488463,55.35590920991202,68.18446587688547,-10,-0.33,0.33,10,55,45,54.67,55.33,65,3.1622776601683795,3.1622776601683795,3.1622776601683795,3.1622776601683795
6,7,0.02772749999712687,w,45.6,Limited Time - 800ms,l,53.89159765438428,45.637401868781744,73.22547964590433,62.54104862634358,45.637401868781744,53.89159765438428,62.54104862634358,73.22547964590433,-10,-0.33,0.33,10,55,45,54.67,55.33,65,3.1622776601683795,3.1622776601683795,3.1622776601683795,3.1622776601683795
6,8,0.05855100000917446,p,56.7,Limited Time - 800ms,l,56.09060698700678,43.05188392576867,64.05406307752979,56.74005665893095,43.05188392576867,56.09060698700678,56.74005665893095,64.05406307752979,-10,-0.33,0.33,10,55,45,54.67,55.33,65,3.1622776601683795,3.1622776601683795,3.1622776601683795,3.1622776601683795
6,9,0.02754799999820534,w,44.6,Limited Time - 800ms,l,54.25062581724758,44.6378237023631,63.84128051413324,57.100903044964035,44.6378237023631,54.25062581724758,57.100903044964035,63.84128051413324,-10,-0.33,0.33,10,55,45,54.67,55.33,65,3.1622776601683795,3.1622776601683795,3.1622776601683795,3.1622776601683795
6,10,0.05324720000498928,q,54.3,Limited Time - 800ms,l,54.331735434440006,43.3039128243765,61.13341591528625,58.43477907812277,43.3039128243765,54.331735434440006,58.43477907812277,61.13341591528625,-10,-0.33,0.33,10,55,45,54.67,55.33,65,3.1622776601683795,3.1622776601683795,3.1622776601683795,3.1622776601683795
6,11,0.018401499997708015,w,39.0,Limited Time - 800ms,l,48.90012462438234,38.975163852135076,62.51104149406763,54.00313509450496,38.975163852135076,48.90012462438234,54.00313509450496,62.51104149406763,-10,-0.33,0.33,10,55,45,54.67,55.33,65,3.1622776601683795,3.1622776601683795,3.1622776601683795,3.1622776601683795
6,12,0.05572040000697598,o,68.9,Limited Time - 800ms,l,55.726198258115524,38.635915951747776,68.86942950046279,48.70211580751507,38.635915951747776,55.726198258115524,48.70211580751507,68.86942950046279,-10,-0.33,0.33,10,55,45,54.67,55.33,65,3.1622776601683795,3.1622776601683795,3.1622776601683795,3.1622776601683795
6,13,0.09925870000733994,o,58.8,Limited Time - 800ms,l,53.25601492931689,44.14550987978096,58.80208443052948,53.78994932478702,44.14550987978096,53.25601492931689,53.78994932478702,58.80208443052948,-10,-0.33,0.33,10,55,45,54.67,55.33,65,3.1622776601683795,3.1622776601683795,3.1622776601683795,3.1622776601683795
6,14,0.045920699994894676,o,65.1,Limited Time - 800ms,l,53.42373677451056,47.34458600579791,65.12247474462553,50.5017288017257,47.34458600579791,53.42373677451056,50.5017288017257,65.12247474462553,-10,-0.33,0.33,10,55,45,54.67,55.33,65,3.1622776601683795,3.1622776601683795,3.1622776601683795,3.1622776601683795
6,15,0.07358760001079645,w,45.4,Limited Time - 800ms,l,56.65596422305217,45.43356696980828,62.55279255537139,57.90236389699811,45.43356696980828,56.65596422305217,57.90236389699811,62.55279255537139,-10,-0.33,0.33,10,55,45,54.67,55.33,65,3.1622776601683795,3.1622776601683795,3.1622776601683795,3.1622776601683795
6,16,0.04091779999725986,o,65.0,Limited Time - 800ms,l,55.172627805247465,43.31293268795905,65.01511079617866,56.77060341179223,43.31293268795905,55.172627805247465,56.77060341179223,65.01511079617866,-10,-0.33,0.33,10,55,45,54.67,55.33,65,3.1622776601683795,3.1622776601683795,3.1622776601683795,3.1622776601683795
6,17,0.026304700004402548,o,70.0,Limited Time - 800ms,l,57.34386640438425,45.367013723941064,69.95211863029547,53.23770565065964,45.367013723941064,57.34386640438425,53.23770565065964,69.95211863029547,-10,-0.33,0.33,10,55,45,54.67,55.33,65,3.1622776601683795,3.1622776601683795,3.1622776601683795,3.1622776601683795
6,18,0.1594662999996217,q,56.7,Limited Time - 800ms,l,56.73156892688445,48.14575050773835,65.61482781694349,61.29042550646241,48.14575050773835,56.73156892688445,61.29042550646241,65.61482781694349,-10,-0.33,0.33,10,55,45,54.67,55.33,65,3.1622776601683795,3.1622776601683795,3.1622776601683795,3.1622776601683795
6,19,0.1597983999963617,q,57.3,Limited Time - 800ms,l,57.261748076072614,42.40581374087159,67.20056563295913,58.051359915037125,42.40581374087159,57.261748076072614,58.051359915037125,67.20056563295913,-10,-0.33,0.33,10,55,45,54.67,55.33,65,3.1622776601683795,3.1622776601683795,3.1622776601683795,3.1622776601683795
6,20,0.16913270000077318,q,51.1,Limited Time - 800ms,l,51.1019713793703,40.20159197441857,64.35665095666772,54.28164096303956,40.20159197441857,51.1019713793703,54.28164096303956,64.35665095666772,-10,-0.33,0.33,10,55,45,54.67,55.33,65,3.1622776601683795,3.1622776601683795,3.1622776601683795,3.1622776601683795
7,1,0.3175364999915473,q,66.5,Unlimited Time,e,66.45305393687448,55.61282922596537,46.89208452312081,53.41895769270283,53.41895769270283,55.61282922596537,46.89208452312081,66.45305393687448,0,0,0,0,55,55,55,55,55,3.1622776601683795,6.324555320336759,8.366600265340756,10
7,2,0.024862099991878495,o,59.3,Unlimited Time,e,37.49774622337975,61.48071963771939,59.33976200180749,59.35280387101972,59.35280387101972,61.48071963771939,59.33976200180749,37.49774622337975,0,0,0,0,55,55,55,55,55,3.1622776601683795,6.324555320336759,8.366600265340756,10
7,3,0.003452900011325255,q,47.1,Unlimited Time,e,47.107028098269254,54.66199115147056,46.33532577213404,53.79361614109377,53.79361614109377,54.66199115147056,46.33532577213404,47.107028098269254,0,0,0,0,55,55,55,55,55,3.1622776601683795,6.324555320336759,8.366600265340756,10
7,4,0.0736624999990454,p,55.6,Unlimited Time,e,52.212571613210116,64.19074387288397,66.08799060761638,55.55742825205776,55.55742825205776,64.19074387288397,66.08799060761638,52.212571613210116,0,0,0,0,55,55,55,55,55,3.1622776601683795,6.324555320336759,8.366600265340756,10
7,5,0.020696999999927357,p,60.3,Unlimited Time,e,44.4327360977819,65.5299819234341,55.79897241684089,60.27481425148603,60.27481425148603,65.5299819234341,55.79897241684089,44.4327360977819,0,0,0,0,55,55,55,55,55,3.1622776601683795,6.324555320336759,8.366600265340756,10
7,6,0.017189099991810508,p,51.1,Unlimited Time,e,63.948564176200335,57.80623377531905,58.417472663016454,51.054421627153786,51.054421627153786,57.80623377531905,58.417472663016454,63.948564176200335,0,0,0,0,55,55,55,55,55,3.1622776601683795,6.324555320336759,8.366600265340756,10
7,7,0.035562100005336106,q,43.9,Unlimited Time,e,43.949268453184615,59.3029407868912,68.83942465375598,59.088238054077884,59.088238054077884,59.3029407868912,68.83942465375598,43.949268453184615,0,0,0,0,55,55,55,55,55,3.1622776601683795,6.324555320336759,8.366600265340756,10
7,8,0.06225570000242442,p,51.6,Unlimited Time,e,40.750360008674456,44.78335618236045,54.18211035391091,51.64436120123832,51.64436120123832,44.78335618236045,54.18211035391091,40.750360008674456,0,0,0,0,55,55,55,55,55,3.1622776601683795,6.324555320336759,8.366600265340756,10
7,9,0.07839249999960884,p,54.8,Unlimited Time,e,56.01787032124365,50.91690510219715,41.234747394867085,54.77905859813648,54.77905859813648,50.91690510219715,41.234747394867085,56.01787032124365,0,0,0,0,55,55,55,55,55,3.1622776601683795,6.324555320336759,8.366600265340756,10
7,10,0.0033669999975245446,w,57.5,Unlimited Time,e,58.336228465891196,57.51725584777188,45.628768590995186,55.21817181627049,55.21817181627049,57.51725584777188,45.628768590995186,58.336228465891196,0,0,0,0,55,55,55,55,55,3.1622776601683795,6.324555320336759,8.366600265340756,10
7,11,0.016869800005224533,o,65.4,Unlimited Time,e,37.3188965715539,57.532496436587316,65.39416452956564,59.31634447860293,59.31634447860293,57.532496436587316,65.39416452956564,37.3188965715539,0,0,0,0,55,55,55,55,55,3.1622776601683795,6.324555320336759,8.366600265340756,10
7,12,0.04703220000374131,o,67.5,Unlimited Time,e,66.23130833720015,52.75014313182513,67.52133091575926,57.27189987753609,57.27189987753609,52.75014313182513,67.52133091575926,66.23130833720015,0,0,0,0,55,55,55,55,55,3.1622776601683795,6.324555320336759,8.366600265340756,10
7,13,0.055484500000602566,o,70.5,Unlimited Time,e,45.389926471183514,69.30234710797264,70.46314330707676,60.66462605194058,60.66462605194058,69.30234710797264,70.46314330707676,45.389926471183514,0,0,0,0,55,55,55,55,55,3.1622776601683795,6.324555320336759,8.366600265340756,10
7,14,0.031287799996789545,q,49.4,Unlimited Time,e,49.44585788967225,53.62153555252892,61.88352770522904,52.51349639923249,52.51349639923249,53.62153555252892,61.88352770522904,49.44585788967225,0,0,0,0,55,55,55,55,55,3.1622776601683795,6.324555320336759,8.366600265340756,10
7,15,0.01232460000028368,p,56.0,Unlimited Time,e,46.47025441825824,59.74754404858653,53.84216969260644,55.97159308164557,55.97159308164557,59.74754404858653,53.84216969260644,46.47025441825824,0,0,0,0,55,55,55,55,55,3.1622776601683795,6.324555320336759,8.366600265340756,10
7,16,0.022987600008491427,q,33.5,Unlimited Time,e,33.49645356544421,58.946658653418304,76.79612402651426,57.019286180080506,57.019286180080506,58.946658653418304,76.79612402651426,33.49645356544421,0,0,0,0,55,55,55,55,55,3.1622776601683795,6.324555320336759,8.366600265340756,10
7,17,0.024799800012260675,o,52.2,Unlimited Time,e,49.352507786647074,58.306466392137075,52.203891187874305,53.33487895510942,53.33487895510942,58.306466392137075,52.203891187874305,49.352507786647074,0,0,0,0,55,55,55,55,55,3.1622776601683795,6.324555320336759,8.366600265340756,10
7,18,0.014507400002912618,p,51.8,Unlimited Time,e,40.29229346212549,46.925874861400914,41.49552412337487,51.752163178013795,51.752163178013795,46.925874861400914,41.49552412337487,40.29229346212549,0,0,0,0,55,55,55,55,55,3.1622776601683795,6.324555320336759,8.366600265340756,10
7,19,0.03976640000473708,w,44.1,Unlimited Time,e,58.87155370582825,44.101737868494205,61.60670273658147,53.33478494809777,53.33478494809777,44.101737868494205,61.60670273658147,58.87155370582825,0,0,0,0,55,55,55,55,55,3.1622776601683795,6.324555320336759,8.366600265340756,10
7,20,0.039776800011168234,q,50.7,Unlimited Time,e,50.65297268298652,56.981769856149185,57.21123180257146,56.371354359880165,56.371354359880165,56.981769856149185,57.21123180257146,50.65297268298652,0,0,0,0,55,55,55,55,55,3.1622776601683795,6.324555320336759,8.366600265340756,10
8,1,0.24036619999969844,o,60.9,Limited Time - 400ms,h,50.04943910269716,46.701530898669965,60.89698570461742,45.98061918295146,46.701530898669965,60.89698570461742,50.04943910269716,45.98061918295146,-10,-0.33,0.33,10,55,45,54.67,55.33,65,10,10,10,10
8,2,0.07106800000474323,o,57.4,Limited Time - 400ms,h,42.38346181088664,23.143587088830525,57.390390672367424,63.271224126627985,23.143587088830525,57.390390672367424,42.38346181088664,63.271224126627985,-10,-0.33,0.33,10,55,45,54.67,55.33,65,10,10,10,10
8,3,0.0601201000099536,q,41.2,Limited Time - 400ms,h,41.19795823431197,51.1172796033469,51.75992003689723,77.89619598564384,51.1172796033469,51.75992003689723,41.19795823431197,77.89619598564384,-10,-0.33,0.33,10,55,45,54.67,55.33,65,10,10,10,10
8,4,0.07753369999409188,o,44.0,Limited Time - 400ms,h,60.60977458286732,46.97367995409689,44.03400762213654,70.33211097316524,46.97367995409689,44.03400762213654,60.60977458286732,70.33211097316524,-10,-0.33,0.33,10,55,45,54.67,55.33,65,10,10,10,10
8,5,0.03837170000770129,w,54.1,Limited Time - 400ms,h,60.80270884548825,54.0902827981466,60.65171519749642,52.251796237488904,54.0902827981466,60.65171519749642,60.80270884548825,52.251796237488904,-10,-0.33,0.33,10,55,45,54.67,55.33,65,10,10,10,10
8,6,0.0027415999938966706,p,61.0,Limited Time - 400ms,h,61.36940510340288,51.370386679587845,56.09100832473476,61.01826806555178,51.370386679587845,56.09100832473476,61.36940510340288,61.01826806555178,-10,-0.33,0.33,10,55,45,54.67,55.33,65,10,10,10,10
8,7,0.04512830000021495,w,44.7,Limited Time - 400ms,h,50.36819178481168,44.734711335100386,50.94295823998621,65.68752640424051,44.734711335100386,50.94295823998621,50.36819178481168,65.68752640424051,-10,-0.33,0.33,10,55,45,54.67,55.33,65,10,10,10,10
8,8,0.013406099998974241,q,56.7,Limited Time - 400ms,h,56.65091740725891,55.79653340931361,54.137934736125544,89.69292102853186,55.79653340931361,54.137934736125544,56.65091740725891,89.69292102853186,-10,-0.33,0.33,10,55,45,54.67,55.33,65,10,10,10,10
8,9,0.006421600002795458,w,25.0,Limited Time - 400ms,h,77.18038960705275,24.994110223794923,64.28469541444323,82.23236054311917,24.994110223794923,64.28469541444323,77.18038960705275,82.23236054311917,-10,-0.33,0.33,10,55,45,54.67,55.33,65,10,10,10,10
8,10,0.06479610000678804,q,48.5,Limited Time - 400ms,h,48.48682500353985,47.08931785425506,65.59478008117824,71.6994258506602,47.08931785425506,65.59478008117824,48.48682500353985,71.6994258506602,-10,-0.33,0.33,10,55,45,54.67,55.33,65,10,10,10,10
8,11,0.0012428000045474619,o,43.4,Limited Time - 400ms,h,45.32333800888665,48.19494756096778,43.412977680780735,62.29900631087525,48.19494756096778,43.412977680780735,45.32333800888665,62.29900631087525,-10,-0.33,0.33,10,55,45,54.67,55.33,65,10,10,10,10
8,12,0.0255442000052426,p,77.1,Limited Time - 400ms,h,54.505588824572726,47.31307054824608,42.124320415749146,77.06349135147435,47.31307054824608,42.124320415749146,54.505588824572726,77.06349135147435,-10,-0.33,0.33,10,55,45,54.67,55.33,65,10,10,10,10
8,13,0.08181259999400936,q,56.2,Limited Time - 400ms,h,56.173106613507564,36.68768116105591,59.54389428016827,87.9848656577413,36.68768116105591,59.54389428016827,56.173106613507564,87.9848656577413,-10,-0.33,0.33,10,55,45,54.67,55.33,65,10,10,10,10
8,14,0.06587619999481831,p,84.1,Limited Time - 400ms,h,45.752564837040524,52.057776728285766,63.678641025474384,84.08297480015099,52.057776728285766,63.678641025474384,45.752564837040524,84.08297480015099,-10,-0.33,0.33,10,55,45,54.67,55.33,65,10,10,10,10
8,15,0.025514499997370876,p,60.1,Limited Time - 400ms,h,41.4333979493622,53.515540672178446,55.03732518488033,60.054328236313566,53.515540672178446,55.03732518488033,41.4333979493622,60.054328236313566,-10,-0.33,0.33,10,55,45,54.67,55.33,65,10,10,10,10
8,16,0.035393400001339614,p,75.4,Limited Time - 400ms,h,50.924085408044405,38.02660838447605,31.300999516619008,75.44844403727035,38.02660838447605,31.300999516619008,50.924085408044405,75.44844403727035,-10,-0.33,0.33,10,55,45,54.67,55.33,65,10,10,10,10
8,17,0.029504799997084774,p,63.4,Limited Time - 400ms,h,48.32879400757632,33.2788883203666,52.620818457358375,63.364550838116855,33.2788883203666,52.620818457358375,48.32879400757632,63.364550838116855,-10,-0.33,0.33,10,55,45,54.67,55.33,65,10,10,10,10
8,18,0.05948609999904875,p,61.5,Limited Time - 400ms,h,54.67820754624112,53.39385316090191,72.18960699428179,61.54069697858305,53.39385316090191,72.18960699428179,54.67820754624112,61.54069697858305,-10,-0.33,0.33,10,55,45,54.67,55.33,65,10,10,10,10
8,19,0.007531600000220351,p,79.8,Limited Time - 400ms,h,69.18460012862265,65.37067070244834,54.39762847848189,79.82313666686294,65.37067070244834,54.39762847848189,69.18460012862265,79.82313666686294,-10,-0.33,0.33,10,55,45,54.67,55.33,65,10,10,10,10
8,20,0.017217800006619655,p,68.6,Limited Time - 400ms,h,65.33384144404236,56.45052803581377,60.89973561313181,68.58654537290853,56.45052803581377,60.89973561313181,65.33384144404236,68.58654537290853,-10,-0.33,0.33,10,55,45,54.67,55.33,65,10,10,10,10
9,1,0.0963835000002291,o,46.9,Limited Time - 800ms,e,66.45305393687448,55.61282922596537,46.89208452312081,53.41895769270283,53.41895769270283,55.61282922596537,46.89208452312081,66.45305393687448,0,0,0,0,55,55,55,55,55,3.1622776601683795,6.324555320336759,8.366600265340756,10
9,2,0.04086470000038389,o,59.3,Limited Time - 800ms,e,37.49774622337975,61.48071963771939,59.33976200180749,59.35280387101972,59.35280387101972,61.48071963771939,59.33976200180749,37.49774622337975,0,0,0,0,55,55,55,55,55,3.1622776601683795,6.324555320336759,8.366600265340756,10
9,3,0.0008438000077148899,o,46.3,Limited Time - 800ms,e,47.107028098269254,54.66199115147056,46.33532577213404,53.79361614109377,53.79361614109377,54.66199115147056,46.33532577213404,47.107028098269254,0,0,0,0,55,55,55,55,55,3.1622776601683795,6.324555320336759,8.366600265340756,10
9,4,0.012195999996038154,o,66.1,Limited Time - 800ms,e,52.212571613210116,64.19074387288397,66.08799060761638,55.55742825205776,55.55742825205776,64.19074387288397,66.08799060761638,52.212571613210116,0,0,0,0,55,55,55,55,55,3.1622776601683795,6.324555320336759,8.366600265340756,10
9,5,0.07604850000643637,o,55.8,Limited Time - 800ms,e,44.4327360977819,65.5299819234341,55.79897241684089,60.27481425148603,60.27481425148603,65.5299819234341,55.79897241684089,44.4327360977819,0,0,0,0,55,55,55,55,55,3.1622776601683795,6.324555320336759,8.366600265340756,10
9,6,0.039939499998581596,o,58.4,Limited Time - 800ms,e,63.948564176200335,57.80623377531905,58.417472663016454,51.054421627153786,51.054421627153786,57.80623377531905,58.417472663016454,63.948564176200335,0,0,0,0,55,55,55,55,55,3.1622776601683795,6.324555320336759,8.366600265340756,10
9,7,0.04223029999411665,o,68.8,Limited Time - 800ms,e,43.949268453184615,59.3029407868912,68.83942465375598,59.088238054077884,59.088238054077884,59.3029407868912,68.83942465375598,43.949268453184615,0,0,0,0,55,55,55,55,55,3.1622776601683795,6.324555320336759,8.366600265340756,10
9,8,0.040019000007305294,o,54.2,Limited Time - 800ms,e,40.750360008674456,44.78335618236045,54.18211035391091,51.64436120123832,51.64436120123832,44.78335618236045,54.18211035391091,40.750360008674456,0,0,0,0,55,55,55,55,55,3.1622776601683795,6.324555320336759,8.366600265340756,10
9,9,0.04665699999895878,o,41.2,Limited Time - 800ms,e,56.01787032124365,50.91690510219715,41.234747394867085,54.77905859813648,54.77905859813648,50.91690510219715,41.234747394867085,56.01787032124365,0,0,0,0,55,55,55,55,55,3.1622776601683795,6.324555320336759,8.366600265340756,10
9,10,0.03467429999727756,o,45.6,Limited Time - 800ms,e,58.336228465891196,57.51725584777188,45.628768590995186,55.21817181627049,55.21817181627049,57.51725584777188,45.628768590995186,58.336228465891196,0,0,0,0,55,55,55,55,55,3.1622776601683795,6.324555320336759,8.366600265340756,10
9,11,0.051250699994852766,o,65.4,Limited Time - 800ms,e,37.3188965715539,57.532496436587316,65.39416452956564,59.31634447860293,59.31634447860293,57.532496436587316,65.39416452956564,37.3188965715539,0,0,0,0,55,55,55,55,55,3.1622776601683795,6.324555320336759,8.366600265340756,10
9,12,0.051021099992794916,o,67.5,Limited Time - 800ms,e,66.23130833720015,52.75014313182513,67.52133091575926,57.27189987753609,57.27189987753609,52.75014313182513,67.52133091575926,66.23130833720015,0,0,0,0,55,55,55,55,55,3.1622776601683795,6.324555320336759,8.366600265340756,10
9,13,0.03183039999566972,o,70.5,Limited Time - 800ms,e,45.389926471183514,69.30234710797264,70.46314330707676,60.66462605194058,60.66462605194058,69.30234710797264,70.46314330707676,45.389926471183514,0,0,0,0,55,55,55,55,55,3.1622776601683795,6.324555320336759,8.366600265340756,10
9,14,0.041524799991748296,o,61.9,Limited Time - 800ms,e,49.44585788967225,53.62153555252892,61.88352770522904,52.51349639923249,52.51349639923249,53.62153555252892,61.88352770522904,49.44585788967225,0,0,0,0,55,55,55,55,55,3.1622776601683795,6.324555320336759,8.366600265340756,10
9,15,0.06260069999552798,o,53.8,Limited Time - 800ms,e,46.47025441825824,59.74754404858653,53.84216969260644,55.97159308164557,55.97159308164557,59.74754404858653,53.84216969260644,46.47025441825824,0,0,0,0,55,55,55,55,55,3.1622776601683795,6.324555320336759,8.366600265340756,10
9,16,0.046989700000267476,o,76.8,Limited Time - 800ms,e,33.49645356544421,58.946658653418304,76.79612402651426,57.019286180080506,57.019286180080506,58.946658653418304,76.79612402651426,33.49645356544421,0,0,0,0,55,55,55,55,55,3.1622776601683795,6.324555320336759,8.366600265340756,10
9,17,0.07093319999694359,p,53.3,Limited Time - 800ms,e,49.352507786647074,58.306466392137075,52.203891187874305,53.33487895510942,53.33487895510942,58.306466392137075,52.203891187874305,49.352507786647074,0,0,0,0,55,55,55,55,55,3.1622776601683795,6.324555320336759,8.366600265340756,10
9,18,0.03172389999963343,p,51.8,Limited Time - 800ms,e,40.29229346212549,46.925874861400914,41.49552412337487,51.752163178013795,51.752163178013795,46.925874861400914,41.49552412337487,40.29229346212549,0,0,0,0,55,55,55,55,55,3.1622776601683795,6.324555320336759,8.366600265340756,10
9,19,0.02947380000841804,p,53.3,Limited Time - 800ms,e,58.87155370582825,44.101737868494205,61.60670273658147,53.33478494809777,53.33478494809777,44.101737868494205,61.60670273658147,58.87155370582825,0,0,0,0,55,55,55,55,55,3.1622776601683795,6.324555320336759,8.366600265340756,10
9,20,0.07399630000873003,o,57.2,Limited Time - 800ms,e,50.65297268298652,56.981769856149185,57.21123180257146,56.371354359880165,56.371354359880165,56.981769856149185,57.21123180257146,50.65297268298652,0,0,0,0,55,55,55,55,55,3.1622776601683795,6.324555320336759,8.366600265340756,10
10,1,0.15841980000550393,o,64.7,Unlimited Time,l,54.2752847570154,58.97634657706779,64.69187155813886,48.66372880331731,48.66372880331731,54.2752847570154,58.97634657706779,64.69187155813886,-10,-0.33,0.33,10,55,45,54.67,55.33,65,3.1622776601683795,3.1622776601683795,3.1622776601683795,3.1622776601683795
10,2,0.11045630001171958,o,60.0,Unlimited Time,l,48.2968579926621,50.6881671268751,60.00762705544562,44.7784572378026,44.7784572378026,48.2968579926621,50.6881671268751,60.00762705544562,-10,-0.33,0.33,10,55,45,54.67,55.33,65,3.1622776601683795,3.1622776601683795,3.1622776601683795,3.1622776601683795
10,3,0.001647400000365451,w,56.8,Unlimited Time,l,58.7477969340195,56.77729349894645,63.31831637421894,48.8837372195181,48.8837372195181,58.7477969340195,56.77729349894645,63.31831637421894,-10,-0.33,0.33,10,55,45,54.67,55.33,65,3.1622776601683795,3.1622776601683795,3.1622776601683795,3.1622776601683795
10,4,0.018586500009405427,o,64.9,Unlimited Time,l,49.569136017131136,60.657784141178595,64.85227223613894,45.82141232999466,45.82141232999466,49.569136017131136,60.657784141178595,64.85227223613894,-10,-0.33,0.33,10,55,45,54.67,55.33,65,3.1622776601683795,3.1622776601683795,3.1622776601683795,3.1622776601683795
10,5,0.041703399998368695,p,48.0,Unlimited Time,l,60.14942025634073,53.24650754074046,65.0412786787725,47.99868325707443,47.99868325707443,60.14942025634073,53.24650754074046,65.0412786787725,-10,-0.33,0.33,10,55,45,54.67,55.33,65,3.1622776601683795,3.1622776601683795,3.1622776601683795,3.1622776601683795
10,6,0.10787290000007488,q,53.8,Unlimited Time,l,53.8236731488463,55.35590920991202,68.18446587688547,43.206333578699834,43.206333578699834,53.8236731488463,55.35590920991202,68.18446587688547,-10,-0.33,0.33,10,55,45,54.67,55.33,65,3.1622776601683795,3.1622776601683795,3.1622776601683795,3.1622776601683795
10,7,0.07073760000639595,q,53.9,Unlimited Time,l,53.89159765438428,62.54104862634358,73.22547964590433,45.637401868781744,45.637401868781744,53.89159765438428,62.54104862634358,73.22547964590433,-10,-0.33,0.33,10,55,45,54.67,55.33,65,3.1622776601683795,3.1622776601683795,3.1622776601683795,3.1622776601683795
10,8,0.007865099993068725,p,43.1,Unlimited Time,l,56.09060698700678,56.74005665893095,64.05406307752979,43.05188392576867,43.05188392576867,56.09060698700678,56.74005665893095,64.05406307752979,-10,-0.33,0.33,10,55,45,54.67,55.33,65,3.1622776601683795,3.1622776601683795,3.1622776601683795,3.1622776601683795
10,9,0.015615600001183338,o,63.8,Unlimited Time,l,54.25062581724758,57.100903044964035,63.84128051413324,44.6378237023631,44.6378237023631,54.25062581724758,57.100903044964035,63.84128051413324,-10,-0.33,0.33,10,55,45,54.67,55.33,65,3.1622776601683795,3.1622776601683795,3.1622776601683795,3.1622776601683795
10,10,0.004882799999904819,w,58.4,Unlimited Time,l,54.331735434440006,58.43477907812277,61.13341591528625,43.3039128243765,43.3039128243765,54.331735434440006,58.43477907812277,61.13341591528625,-10,-0.33,0.33,10,55,45,54.67,55.33,65,3.1622776601683795,3.1622776601683795,3.1622776601683795,3.1622776601683795
10,11,0.031480300007387996,q,48.9,Unlimited Time,l,48.90012462438234,54.00313509450496,62.51104149406763,38.975163852135076,38.975163852135076,48.90012462438234,54.00313509450496,62.51104149406763,-10,-0.33,0.33,10,55,45,54.67,55.33,65,3.1622776601683795,3.1622776601683795,3.1622776601683795,3.1622776601683795
10,12,0.07273279999208171,o,68.9,Unlimited Time,l,55.726198258115524,48.70211580751507,68.86942950046279,38.635915951747776,38.635915951747776,55.726198258115524,48.70211580751507,68.86942950046279,-10,-0.33,0.33,10,55,45,54.67,55.33,65,3.1622776601683795,3.1622776601683795,3.1622776601683795,3.1622776601683795
10,13,0.018738200000370853,p,44.1,Unlimited Time,l,53.25601492931689,53.78994932478702,58.80208443052948,44.14550987978096,44.14550987978096,53.25601492931689,53.78994932478702,58.80208443052948,-10,-0.33,0.33,10,55,45,54.67,55.33,65,3.1622776601683795,3.1622776601683795,3.1622776601683795,3.1622776601683795
10,14,0.05469219999213237,q,53.4,Unlimited Time,l,53.42373677451056,50.5017288017257,65.12247474462553,47.34458600579791,47.34458600579791,53.42373677451056,50.5017288017257,65.12247474462553,-10,-0.33,0.33,10,55,45,54.67,55.33,65,3.1622776601683795,3.1622776601683795,3.1622776601683795,3.1622776601683795
10,15,0.05959380000422243,o,62.6,Unlimited Time,l,56.65596422305217,57.90236389699811,62.55279255537139,45.43356696980828,45.43356696980828,56.65596422305217,57.90236389699811,62.55279255537139,-10,-0.33,0.33,10,55,45,54.67,55.33,65,3.1622776601683795,3.1622776601683795,3.1622776601683795,3.1622776601683795
10,16,0.000865699999849312,p,43.3,Unlimited Time,l,55.172627805247465,56.77060341179223,65.01511079617866,43.31293268795905,43.31293268795905,55.172627805247465,56.77060341179223,65.01511079617866,-10,-0.33,0.33,10,55,45,54.67,55.33,65,3.1622776601683795,3.1622776601683795,3.1622776601683795,3.1622776601683795
10,17,0.021610500014503486,o,70.0,Unlimited Time,l,57.34386640438425,53.23770565065964,69.95211863029547,45.367013723941064,45.367013723941064,57.34386640438425,53.23770565065964,69.95211863029547,-10,-0.33,0.33,10,55,45,54.67,55.33,65,3.1622776601683795,3.1622776601683795,3.1622776601683795,3.1622776601683795
10,18,0.16535140000632964,p,48.1,Unlimited Time,l,56.73156892688445,61.29042550646241,65.61482781694349,48.14575050773835,48.14575050773835,56.73156892688445,61.29042550646241,65.61482781694349,-10,-0.33,0.33,10,55,45,54.67,55.33,65,3.1622776601683795,3.1622776601683795,3.1622776601683795,3.1622776601683795
10,19,0.029212099994765595,o,67.2,Unlimited Time,l,57.261748076072614,58.051359915037125,67.20056563295913,42.40581374087159,42.40581374087159,57.261748076072614,58.051359915037125,67.20056563295913,-10,-0.33,0.33,10,55,45,54.67,55.33,65,3.1622776601683795,3.1622776601683795,3.1622776601683795,3.1622776601683795
10,20,0.02016590000130236,q,51.1,Unlimited Time,l,51.1019713793703,54.28164096303956,64.35665095666772,40.20159197441857,40.20159197441857,51.1019713793703,54.28164096303956,64.35665095666772,-10,-0.33,0.33,10,55,45,54.67,55.33,65,3.1622776601683795,3.1622776601683795,3.1622776601683795,3.1622776601683795
11,1,0.14354000000457745,o,46.7,Limited Time - 400ms,h,60.89698570461742,50.04943910269716,46.701530898669965,45.98061918295146,46.701530898669965,60.89698570461742,50.04943910269716,45.98061918295146,-10,-0.33,0.33,10,55,45,54.67,55.33,65,10,10,10,10
11,2,0.06275389999791514,o,23.1,Limited Time - 400ms,h,57.390390672367424,42.38346181088664,23.143587088830525,63.271224126627985,23.143587088830525,57.390390672367424,42.38346181088664,63.271224126627985,-10,-0.33,0.33,10,55,45,54.67,55.33,65,10,10,10,10
11,3,0.07749320000584703,q,51.8,Limited Time - 400ms,h,51.75992003689723,41.19795823431197,51.1172796033469,77.89619598564384,51.1172796033469,51.75992003689723,41.19795823431197,77.89619598564384,-10,-0.33,0.33,10,55,45,54.67,55.33,65,10,10,10,10
11,4,0.03768589999526739,q,44.0,Limited Time - 400ms,h,44.03400762213654,60.60977458286732,46.97367995409689,70.33211097316524,46.97367995409689,44.03400762213654,60.60977458286732,70.33211097316524,-10,-0.33,0.33,10,55,45,54.67,55.33,65,10,10,10,10
11,5,0.13896540000860114,p,52.3,Limited Time - 400ms,h,60.65171519749642,60.80270884548825,54.0902827981466,52.251796237488904,54.0902827981466,60.65171519749642,60.80270884548825,52.251796237488904,-10,-0.33,0.33,10,55,45,54.67,55.33,65,10,10,10,10
11,6,0.046815599998808466,w,61.4,Limited Time - 400ms,h,56.09100832473476,61.36940510340288,51.370386679587845,61.01826806555178,51.370386679587845,56.09100832473476,61.36940510340288,61.01826806555178,-10,-0.33,0.33,10,55,45,54.67,55.33,65,10,10,10,10
11,7,0.04977030000009108,p,65.7,Limited Time - 400ms,h,50.94295823998621,50.36819178481168,44.734711335100386,65.68752640424051,44.734711335100386,50.94295823998621,50.36819178481168,65.68752640424051,-10,-0.33,0.33,10,55,45,54.67,55.33,65,10,10,10,10
11,8,0.03693510001176037,q,54.1,Limited Time - 400ms,h,54.137934736125544,56.65091740725891,55.79653340931361,89.69292102853186,55.79653340931361,54.137934736125544,56.65091740725891,89.69292102853186,-10,-0.33,0.33,10,55,45,54.67,55.33,65,10,10,10,10
11,9,0.01775610000186134,w,77.2,Limited Time - 400ms,h,64.28469541444323,77.18038960705275,24.994110223794923,82.23236054311917,24.994110223794923,64.28469541444323,77.18038960705275,82.23236054311917,-10,-0.33,0.33,10,55,45,54.67,55.33,65,10,10,10,10
11,10,0.09310960001312196,p,71.7,Limited Time - 400ms,h,65.59478008117824,48.48682500353985,47.08931785425506,71.6994258506602,47.08931785425506,65.59478008117824,48.48682500353985,71.6994258506602,-10,-0.33,0.33,10,55,45,54.67,55.33,65,10,10,10,10
11,11,0.14202270000532735,p,62.3,Limited Time - 400ms,h,43.412977680780735,45.32333800888665,48.19494756096778,62.29900631087525,48.19494756096778,43.412977680780735,45.32333800888665,62.29900631087525,-10,-0.33,0.33,10,55,45,54.67,55.33,65,10,10,10,10
11,12,0.05193840000720229,w,54.5,Limited Time - 400ms,h,42.124320415749146,54.505588824572726,47.31307054824608,77.06349135147435,47.31307054824608,42.124320415749146,54.505588824572726,77.06349135147435,-10,-0.33,0.33,10,55,45,54.67,55.33,65,10,10,10,10
11,13,0.04005429999961052,q,59.5,Limited Time - 400ms,h,59.54389428016827,56.173106613507564,36.68768116105591,87.9848656577413,36.68768116105591,59.54389428016827,56.173106613507564,87.9848656577413,-10,-0.33,0.33,10,55,45,54.67,55.33,65,10,10,10,10
11,14,0.0242570000118576,w,45.8,Limited Time - 400ms,h,63.678641025474384,45.752564837040524,52.057776728285766,84.08297480015099,52.057776728285766,63.678641025474384,45.752564837040524,84.08297480015099,-10,-0.33,0.33,10,55,45,54.67,55.33,65,10,10,10,10
11,15,0.017957199990632944,q,55.0,Limited Time - 400ms,h,55.03732518488033,41.4333979493622,53.515540672178446,60.054328236313566,53.515540672178446,55.03732518488033,41.4333979493622,60.054328236313566,-10,-0.33,0.33,10,55,45,54.67,55.33,65,10,10,10,10
11,16,0.15352590000838973,o,38.0,Limited Time - 400ms,h,31.300999516619008,50.924085408044405,38.02660838447605,75.44844403727035,38.02660838447605,31.300999516619008,50.924085408044405,75.44844403727035,-10,-0.33,0.33,10,55,45,54.67,55.33,65,10,10,10,10
11,17,0.043426000003819354,q,52.6,Limited Time - 400ms,h,52.620818457358375,48.32879400757632,33.2788883203666,63.364550838116855,33.2788883203666,52.620818457358375,48.32879400757632,63.364550838116855,-10,-0.33,0.33,10,55,45,54.67,55.33,65,10,10,10,10
11,18,0.12847170000895858,p,61.5,Limited Time - 400ms,h,72.18960699428179,54.67820754624112,53.39385316090191,61.54069697858305,53.39385316090191,72.18960699428179,54.67820754624112,61.54069697858305,-10,-0.33,0.33,10,55,45,54.67,55.33,65,10,10,10,10
11,19,0.11813760000222828,o,65.4,Limited Time - 400ms,h,54.39762847848189,69.18460012862265,65.37067070244834,79.82313666686294,65.37067070244834,54.39762847848189,69.18460012862265,79.82313666686294,-10,-0.33,0.33,10,55,45,54.67,55.33,65,10,10,10,10
11,20,0.005803299995022826,o,56.5,Limited Time - 400ms,h,60.89973561313181,65.33384144404236,56.45052803581377,68.58654537290853,56.45052803581377,60.89973561313181,65.33384144404236,68.58654537290853,-10,-0.33,0.33,10,55,45,54.67,55.33,65,10,10,10,10
12,1,0.1188871000049403,o,63.0,Limited Time - 800ms,i,47.88846799323958,67.17083288003245,63.02169885529943,41.79802844078747,47.88846799323958,41.79802844078747,63.02169885529943,67.17083288003245,-10,-10,10,10,55,45,45,65,65,3.1622776601683795,10,3.1622776601683795,10
12,2,0.08938180000404827,o,63.0,Limited Time - 800ms,i,50.732298124807414,61.50974799056099,63.01247526250506,54.76607418702029,50.732298124807414,54.76607418702029,63.01247526250506,61.50974799056099,-10,-10,10,10,55,45,45,65,65,3.1622776601683795,10,3.1622776601683795,10
12,3,0.006008600001223385,p,39.2,Limited Time - 800ms,i,46.02520172189166,59.808950063483664,61.21443872895767,39.211970831029134,46.02520172189166,39.211970831029134,61.21443872895767,59.808950063483664,-10,-10,10,10,55,45,45,65,65,3.1622776601683795,10,3.1622776601683795,10
12,4,0.013638499993248843,w,70.3,Limited Time - 800ms,i,52.794721798754125,70.31549404766902,62.980262318004606,58.68495595963644,52.794721798754125,58.68495595963644,62.980262318004606,70.31549404766902,-10,-10,10,10,55,45,45,65,65,3.1622776601683795,10,3.1622776601683795,10
12,5,0.02910090000659693,o,65.3,Limited Time - 800ms,i,46.50812166236865,67.54908902167637,65.31994154795208,51.5027582347862,46.50812166236865,51.5027582347862,65.31994154795208,67.54908902167637,-10,-10,10,10,55,45,45,65,65,3.1622776601683795,10,3.1622776601683795,10
12,6,0.04366860000300221,o,63.8,Limited Time - 800ms,i,46.35929087500456,84.53960590324567,63.845612280705126,48.79769039201364,46.35929087500456,48.79769039201364,63.845612280705126,84.53960590324567,-10,-10,10,10,55,45,45,65,65,3.1622776601683795,10,3.1622776601683795,10
12,7,0.016053600003942847,o,64.5,Limited Time - 800ms,i,41.22489729804702,66.1261289184689,64.4637762337565,41.82419598197433,41.22489729804702,41.82419598197433,64.4637762337565,66.1261289184689,-10,-10,10,10,55,45,45,65,65,3.1622776601683795,10,3.1622776601683795,10
12,8,0.04018039999937173,o,63.2,Limited Time - 800ms,i,47.94689593065083,53.39909979929455,63.21255629915885,42.335129751994856,47.94689593065083,42.335129751994856,63.21255629915885,53.39909979929455,-10,-10,10,10,55,45,45,65,65,3.1622776601683795,10,3.1622776601683795,10
12,9,0.051633999988553114,q,41.5,Limited Time - 800ms,i,41.53587995911177,91.62968716096893,67.44108300431914,46.71046416094735,41.53587995911177,46.71046416094735,67.44108300431914,91.62968716096893,-10,-10,10,10,55,45,45,65,65,3.1622776601683795,10,3.1622776601683795,10
12,10,0.037309100007405505,o,70.6,Limited Time - 800ms,i,45.3465184054664,88.60372453422573,70.58893593182209,31.982294625625407,45.3465184054664,31.982294625625407,70.58893593182209,88.60372453422573,-10,-10,10,10,55,45,45,65,65,3.1622776601683795,10,3.1622776601683795,10
12,11,0.05009799999243114,q,45.4,Limited Time - 800ms,i,45.37590916308154,58.191400081393326,64.57606964529388,48.3830869144859,45.37590916308154,48.3830869144859,64.57606964529388,58.191400081393326,-10,-10,10,10,55,45,45,65,65,3.1622776601683795,10,3.1622776601683795,10
12,12,0.07504039999912493,o,69.4,Limited Time - 800ms,i,43.998047769303724,71.256125719631,69.3875539517878,38.53642865759777,43.998047769303724,38.53642865759777,69.3875539517878,71.256125719631,-10,-10,10,10,55,45,45,65,65,3.1622776601683795,10,3.1622776601683795,10
12,13,0.07086800000979565,w,56.1,Limited Time - 800ms,i,35.44764896705006,56.08233396899744,65.25970124672233,57.72653322934852,35.44764896705006,57.72653322934852,65.25970124672233,56.08233396899744,-10,-10,10,10,55,45,45,65,65,3.1622776601683795,10,3.1622776601683795,10
12,14,0.05609019999974407,o,65.2,Limited Time - 800ms,i,47.01814577803177,69.83609598779482,65.19960735032359,46.96476537044854,47.01814577803177,46.96476537044854,65.19960735032359,69.83609598779482,-10,-10,10,10,55,45,45,65,65,3.1622776601683795,10,3.1622776601683795,10
12,15,0.061980900005437434,p,30.1,Limited Time - 800ms,i,44.21936955014057,62.140004923055194,63.93982144747122,30.12505900020006,44.21936955014057,30.12505900020006,63.93982144747122,62.140004923055194,-10,-10,10,10,55,45,45,65,65,3.1622776601683795,10,3.1622776601683795,10
12,16,0.012765699997544289,q,49.7,Limited Time - 800ms,i,49.70921346899049,56.72983092953605,65.72010072917239,31.016588901323242,49.70921346899049,31.016588901323242,65.72010072917239,56.72983092953605,-10,-10,10,10,55,45,45,65,65,3.1622776601683795,10,3.1622776601683795,10
12,17,0.14915220001421403,o,65.2,Limited Time - 800ms,i,44.04534989009521,75.9545808527293,65.24610869202384,45.421644799396255,44.04534989009521,45.421644799396255,65.24610869202384,75.9545808527293,-10,-10,10,10,55,45,45,65,65,3.1622776601683795,10,3.1622776601683795,10
12,18,0.025291600002674386,w,57.7,Limited Time - 800ms,i,41.263820273996636,57.68105823897973,61.94690440398347,56.274337162130664,41.263820273996636,56.274337162130664,61.94690440398347,57.68105823897973,-10,-10,10,10,55,45,45,65,65,3.1622776601683795,10,3.1622776601683795,10
12,19,0.05328170000575483,w,74.7,Limited Time - 800ms,i,45.721532916235745,74.66614641147682,68.91380498604546,60.59229143452588,45.721532916235745,60.59229143452588,68.91380498604546,74.66614641147682,-10,-10,10,10,55,45,45,65,65,3.1622776601683795,10,3.1622776601683795,10
12,20,0.028104099998017773,q,45.0,Limited Time - 800ms,i,45.00524940083106,67.23970352187293,69.67944584715794,38.21445125584163,45.00524940083106,38.21445125584163,69.67944584715794,67.23970352187293,-10,-10,10,10,55,45,45,65,65,3.1622776601683795,10,3.1622776601683795,10
13,1,0.1084335000050487,o,60.9,Unlimited Time,h,50.04943910269716,46.701530898669965,60.89698570461742,45.98061918295146,46.701530898669965,60.89698570461742,50.04943910269716,45.98061918295146,-10,-0.33,0.33,10,55,45,54.67,55.33,65,10,10,10,10
13,2,0.024092399995424785,o,57.4,Unlimited Time,h,42.38346181088664,23.143587088830525,57.390390672367424,63.271224126627985,23.143587088830525,57.390390672367424,42.38346181088664,63.271224126627985,-10,-0.33,0.33,10,55,45,54.67,55.33,65,10,10,10,10
13,3,0.028643300000112504,w,51.1,Unlimited Time,h,41.19795823431197,51.1172796033469,51.75992003689723,77.89619598564384,51.1172796033469,51.75992003689723,41.19795823431197,77.89619598564384,-10,-0.33,0.33,10,55,45,54.67,55.33,65,10,10,10,10
13,4,0.01729920000070706,q,60.6,Unlimited Time,h,60.60977458286732,46.97367995409689,44.03400762213654,70.33211097316524,46.97367995409689,44.03400762213654,60.60977458286732,70.33211097316524,-10,-0.33,0.33,10,55,45,54.67,55.33,65,10,10,10,10
13,5,0.010062799992738292,w,54.1,Unlimited Time,h,60.80270884548825,54.0902827981466,60.65171519749642,52.251796237488904,54.0902827981466,60.65171519749642,60.80270884548825,52.251796237488904,-10,-0.33,0.33,10,55,45,54.67,55.33,65,10,10,10,10
13,6,0.03176440000243019,q,61.4,Unlimited Time,h,61.36940510340288,51.370386679587845,56.09100832473476,61.01826806555178,51.370386679587845,56.09100832473476,61.36940510340288,61.01826806555178,-10,-0.33,0.33,10,55,45,54.67,55.33,65,10,10,10,10
13,7,0.13109429999894928,o,50.9,Unlimited Time,h,50.36819178481168,44.734711335100386,50.94295823998621,65.68752640424051,44.734711335100386,50.94295823998621,50.36819178481168,65.68752640424051,-10,-0.33,0.33,10,55,45,54.67,55.33,65,10,10,10,10
13,8,0.02459149999776855,o,54.1,Unlimited Time,h,56.65091740725891,55.79653340931361,54.137934736125544,89.69292102853186,55.79653340931361,54.137934736125544,56.65091740725891,89.69292102853186,-10,-0.33,0.33,10,55,45,54.67,55.33,65,10,10,10,10
13,9,0.007917300012195483,p,82.2,Unlimited Time,h,77.18038960705275,24.994110223794923,64.28469541444323,82.23236054311917,24.994110223794923,64.28469541444323,77.18038960705275,82.23236054311917,-10,-0.33,0.33,10,55,45,54.67,55.33,65,10,10,10,10
13,10,0.02308509999420494,o,65.6,Unlimited Time,h,48.48682500353985,47.08931785425506,65.59478008117824,71.6994258506602,47.08931785425506,65.59478008117824,48.48682500353985,71.6994258506602,-10,-0.33,0.33,10,55,45,54.67,55.33,65,10,10,10,10
13,11,0.03706410000449978,q,45.3,Unlimited Time,h,45.32333800888665,48.19494756096778,43.412977680780735,62.29900631087525,48.19494756096778,43.412977680780735,45.32333800888665,62.29900631087525,-10,-0.33,0.33,10,55,45,54.67,55.33,65,10,10,10,10
13,12,0.009295299998484552,w,47.3,Unlimited Time,h,54.505588824572726,47.31307054824608,42.124320415749146,77.06349135147435,47.31307054824608,42.124320415749146,54.505588824572726,77.06349135147435,-10,-0.33,0.33,10,55,45,54.67,55.33,65,10,10,10,10
13,13,0.03641670000797603,w,36.7,Unlimited Time,h,56.173106613507564,36.68768116105591,59.54389428016827,87.9848656577413,36.68768116105591,59.54389428016827,56.173106613507564,87.9848656577413,-10,-0.33,0.33,10,55,45,54.67,55.33,65,10,10,10,10
13,14,0.020113100006710738,q,45.8,Unlimited Time,h,45.752564837040524,52.057776728285766,63.678641025474384,84.08297480015099,52.057776728285766,63.678641025474384,45.752564837040524,84.08297480015099,-10,-0.33,0.33,10,55,45,54.67,55.33,65,10,10,10,10
13,15,0.042259800000465475,w,53.5,Unlimited Time,h,41.4333979493622,53.515540672178446,55.03732518488033,60.054328236313566,53.515540672178446,55.03732518488033,41.4333979493622,60.054328236313566,-10,-0.33,0.33,10,55,45,54.67,55.33,65,10,10,10,10
13,16,0.04272549999586772,q,50.9,Unlimited Time,h,50.924085408044405,38.02660838447605,31.300999516619008,75.44844403727035,38.02660838447605,31.300999516619008,50.924085408044405,75.44844403727035,-10,-0.33,0.33,10,55,45,54.67,55.33,65,10,10,10,10
13,17,0.012496199997258373,w,33.3,Unlimited Time,h,48.32879400757632,33.2788883203666,52.620818457358375,63.364550838116855,33.2788883203666,52.620818457358375,48.32879400757632,63.364550838116855,-10,-0.33,0.33,10,55,45,54.67,55.33,65,10,10,10,10
13,18,0.042917800004943274,w,53.4,Unlimited Time,h,54.67820754624112,53.39385316090191,72.18960699428179,61.54069697858305,53.39385316090191,72.18960699428179,54.67820754624112,61.54069697858305,-10,-0.33,0.33,10,55,45,54.67,55.33,65,10,10,10,10
13,19,0.05698219999612775,q,69.2,Unlimited Time,h,69.18460012862265,65.37067070244834,54.39762847848189,79.82313666686294,65.37067070244834,54.39762847848189,69.18460012862265,79.82313666686294,-10,-0.33,0.33,10,55,45,54.67,55.33,65,10,10,10,10
13,20,0.043606600011116825,o,60.9,Unlimited Time,h,65.33384144404236,56.45052803581377,60.89973561313181,68.58654537290853,56.45052803581377,60.89973561313181,65.33384144404236,68.58654537290853,-10,-0.33,0.33,10,55,45,54.67,55.33,65,10,10,10,10
14,1,0.12614620001113508,o,41.8,Limited Time - 400ms,i,63.02169885529943,47.88846799323958,41.79802844078747,67.17083288003245,47.88846799323958,41.79802844078747,63.02169885529943,67.17083288003245,-10,-10,10,10,55,45,45,65,65,3.1622776601683795,10,3.1622776601683795,10
14,2,0.011003400009940378,q,63.0,Limited Time - 400ms,i,63.01247526250506,50.732298124807414,54.76607418702029,61.50974799056099,50.732298124807414,54.76607418702029,63.01247526250506,61.50974799056099,-10,-10,10,10,55,45,45,65,65,3.1622776601683795,10,3.1622776601683795,10
14,3,0.010491499997442588,o,39.2,Limited Time - 400ms,i,61.21443872895767,46.02520172189166,39.211970831029134,59.808950063483664,46.02520172189166,39.211970831029134,61.21443872895767,59.808950063483664,-10,-10,10,10,55,45,45,65,65,3.1622776601683795,10,3.1622776601683795,10
14,4,0.14144200000737328,q,63.0,Limited Time - 400ms,i,62.980262318004606,52.794721798754125,58.68495595963644,70.31549404766902,52.794721798754125,58.68495595963644,62.980262318004606,70.31549404766902,-10,-10,10,10,55,45,45,65,65,3.1622776601683795,10,3.1622776601683795,10
14,5,0.05428179999580607,q,65.3,Limited Time - 400ms,i,65.31994154795208,46.50812166236865,51.5027582347862,67.54908902167637,46.50812166236865,51.5027582347862,65.31994154795208,67.54908902167637,-10,-10,10,10,55,45,45,65,65,3.1622776601683795,10,3.1622776601683795,10
14,6,0.02797340000688564,q,63.8,Limited Time - 400ms,i,63.845612280705126,46.35929087500456,48.79769039201364,84.53960590324567,46.35929087500456,48.79769039201364,63.845612280705126,84.53960590324567,-10,-10,10,10,55,45,45,65,65,3.1622776601683795,10,3.1622776601683795,10
14,7,0.0324720999924466,w,41.2,Limited Time - 400ms,i,64.4637762337565,41.22489729804702,41.82419598197433,66.1261289184689,41.22489729804702,41.82419598197433,64.4637762337565,66.1261289184689,-10,-10,10,10,55,45,45,65,65,3.1622776601683795,10,3.1622776601683795,10
14,8,0.15717700000095647,w,47.9,Limited Time - 400ms,i,63.21255629915885,47.94689593065083,42.335129751994856,53.39909979929455,47.94689593065083,42.335129751994856,63.21255629915885,53.39909979929455,-10,-10,10,10,55,45,45,65,65,3.1622776601683795,10,3.1622776601683795,10
14,9,0.0387021999922581,q,67.4,Limited Time - 400ms,i,67.44108300431914,41.53587995911177,46.71046416094735,91.62968716096893,41.53587995911177,46.71046416094735,67.44108300431914,91.62968716096893,-10,-10,10,10,55,45,45,65,65,3.1622776601683795,10,3.1622776601683795,10
14,10,0.14359940000576898,q,70.6,Limited Time - 400ms,i,70.58893593182209,45.3465184054664,31.982294625625407,88.60372453422573,45.3465184054664,31.982294625625407,70.58893593182209,88.60372453422573,-10,-10,10,10,55,45,45,65,65,3.1622776601683795,10,3.1622776601683795,10
14,11,0.05004070000723004,w,45.4,Limited Time - 400ms,i,64.57606964529388,45.37590916308154,48.3830869144859,58.191400081393326,45.37590916308154,48.3830869144859,64.57606964529388,58.191400081393326,-10,-10,10,10,55,45,45,65,65,3.1622776601683795,10,3.1622776601683795,10
14,12,0.1925351999962004,q,69.4,Limited Time - 400ms,i,69.3875539517878,43.998047769303724,38.53642865759777,71.256125719631,43.998047769303724,38.53642865759777,69.3875539517878,71.256125719631,-10,-10,10,10,55,45,45,65,65,3.1622776601683795,10,3.1622776601683795,10
14,13,0.12598900000739377,w,35.4,Limited Time - 400ms,i,65.25970124672233,35.44764896705006,57.72653322934852,56.08233396899744,35.44764896705006,57.72653322934852,65.25970124672233,56.08233396899744,-10,-10,10,10,55,45,45,65,65,3.1622776601683795,10,3.1622776601683795,10
14,14,0.03889169999456499,w,47.0,Limited Time - 400ms,i,65.19960735032359,47.01814577803177,46.96476537044854,69.83609598779482,47.01814577803177,46.96476537044854,65.19960735032359,69.83609598779482,-10,-10,10,10,55,45,45,65,65,3.1622776601683795,10,3.1622776601683795,10
14,15,0.05740390000573825,w,44.2,Limited Time - 400ms,i,63.93982144747122,44.21936955014057,30.12505900020006,62.140004923055194,44.21936955014057,30.12505900020006,63.93982144747122,62.140004923055194,-10,-10,10,10,55,45,45,65,65,3.1622776601683795,10,3.1622776601683795,10
14,16,0.07239359999948647,q,65.7,Limited Time - 400ms,i,65.72010072917239,49.70921346899049,31.016588901323242,56.72983092953605,49.70921346899049,31.016588901323242,65.72010072917239,56.72983092953605,-10,-10,10,10,55,45,45,65,65,3.1622776601683795,10,3.1622776601683795,10
14,17,0.07423690000723582,q,65.2,Limited Time - 400ms,i,65.24610869202384,44.04534989009521,45.421644799396255,75.9545808527293,44.04534989009521,45.421644799396255,65.24610869202384,75.9545808527293,-10,-10,10,10,55,45,45,65,65,3.1622776601683795,10,3.1622776601683795,10
14,18,0.03098100000352133,w,41.3,Limited Time - 400ms,i,61.94690440398347,41.263820273996636,56.274337162130664,57.68105823897973,41.263820273996636,56.274337162130664,61.94690440398347,57.68105823897973,-10,-10,10,10,55,45,45,65,65,3.1622776601683795,10,3.1622776601683795,10
14,19,0.010444699990330264,q,68.9,Limited Time - 400ms,i,68.91380498604546,45.721532916235745,60.59229143452588,74.66614641147682,45.721532916235745,60.59229143452588,68.91380498604546,74.66614641147682,-10,-10,10,10,55,45,45,65,65,3.1622776601683795,10,3.1622776601683795,10
14,20,0.02630450000287965,w,45.0,Limited Time - 400ms,i,69.67944584715794,45.00524940083106,38.21445125584163,67.23970352187293,45.00524940083106,38.21445125584163,69.67944584715794,67.23970352187293,-10,-10,10,10,55,45,45,65,65,3.1622776601683795,10,3.1622776601683795,10
15,1,0.0313970999995945,o,47.9,Limited Time - 800ms,i,67.17083288003245,63.02169885529943,47.88846799323958,41.79802844078747,47.88846799323958,41.79802844078747,63.02169885529943,67.17083288003245,-10,-10,10,10,55,45,45,65,65,3.1622776601683795,10,3.1622776601683795,10
15,2,0.18202389999350999,o,50.7,Limited Time - 800ms,i,61.50974799056099,63.01247526250506,50.732298124807414,54.76607418702029,50.732298124807414,54.76607418702029,63.01247526250506,61.50974799056099,-10,-10,10,10,55,45,45,65,65,3.1622776601683795,10,3.1622776601683795,10
15,3,0.12616739999793936,o,46.0,Limited Time - 800ms,i,59.808950063483664,61.21443872895767,46.02520172189166,39.211970831029134,46.02520172189166,39.211970831029134,61.21443872895767,59.808950063483664,-10,-10,10,10,55,45,45,65,65,3.1622776601683795,10,3.1622776601683795,10
15,4,0.12695090001216158,o,52.8,Limited Time - 800ms,i,70.31549404766902,62.980262318004606,52.794721798754125,58.68495595963644,52.794721798754125,58.68495595963644,62.980262318004606,70.31549404766902,-10,-10,10,10,55,45,45,65,65,3.1622776601683795,10,3.1622776601683795,10
15,5,0.11440750000474509,o,46.5,Limited Time - 800ms,i,67.54908902167637,65.31994154795208,46.50812166236865,51.5027582347862,46.50812166236865,51.5027582347862,65.31994154795208,67.54908902167637,-10,-10,10,10,55,45,45,65,65,3.1622776601683795,10,3.1622776601683795,10
15,6,0.12079079999239184,o,46.4,Limited Time - 800ms,i,84.53960590324567,63.845612280705126,46.35929087500456,48.79769039201364,46.35929087500456,48.79769039201364,63.845612280705126,84.53960590324567,-10,-10,10,10,55,45,45,65,65,3.1622776601683795,10,3.1622776601683795,10
15,7,0.0726217000046745,o,41.2,Limited Time - 800ms,i,66.1261289184689,64.4637762337565,41.22489729804702,41.82419598197433,41.22489729804702,41.82419598197433,64.4637762337565,66.1261289184689,-10,-10,10,10,55,45,45,65,65,3.1622776601683795,10,3.1622776601683795,10
15,8,0.10462669999105856,o,47.9,Limited Time - 800ms,i,53.39909979929455,63.21255629915885,47.94689593065083,42.335129751994856,47.94689593065083,42.335129751994856,63.21255629915885,53.39909979929455,-10,-10,10,10,55,45,45,65,65,3.1622776601683795,10,3.1622776601683795,10
15,9,0.13794230000348762,o,41.5,Limited Time - 800ms,i,91.62968716096893,67.44108300431914,41.53587995911177,46.71046416094735,41.53587995911177,46.71046416094735,67.44108300431914,91.62968716096893,-10,-10,10,10,55,45,45,65,65,3.1622776601683795,10,3.1622776601683795,10
15,10,0.13170560001162812,o,45.3,Limited Time - 800ms,i,88.60372453422573,70.58893593182209,45.3465184054664,31.982294625625407,45.3465184054664,31.982294625625407,70.58893593182209,88.60372453422573,-10,-10,10,10,55,45,45,65,65,3.1622776601683795,10,3.1622776601683795,10
15,11,0.12914469999668654,o,45.4,Limited Time - 800ms,i,58.191400081393326,64.57606964529388,45.37590916308154,48.3830869144859,45.37590916308154,48.3830869144859,64.57606964529388,58.191400081393326,-10,-10,10,10,55,45,45,65,65,3.1622776601683795,10,3.1622776601683795,10
15,12,0.1281714000069769,o,44.0,Limited Time - 800ms,i,71.256125719631,69.3875539517878,43.998047769303724,38.53642865759777,43.998047769303724,38.53642865759777,69.3875539517878,71.256125719631,-10,-10,10,10,55,45,45,65,65,3.1622776601683795,10,3.1622776601683795,10
15,13,0.11512430000584573,o,35.4,Limited Time - 800ms,i,56.08233396899744,65.25970124672233,35.44764896705006,57.72653322934852,35.44764896705006,57.72653322934852,65.25970124672233,56.08233396899744,-10,-10,10,10,55,45,45,65,65,3.1622776601683795,10,3.1622776601683795,10
15,14,0.11757880001096055,p,47.0,Limited Time - 800ms,i,69.83609598779482,65.19960735032359,47.01814577803177,46.96476537044854,47.01814577803177,46.96476537044854,65.19960735032359,69.83609598779482,-10,-10,10,10,55,45,45,65,65,3.1622776601683795,10,3.1622776601683795,10
15,15,0.13617389999853913,p,30.1,Limited Time - 800ms,i,62.140004923055194,63.93982144747122,44.21936955014057,30.12505900020006,44.21936955014057,30.12505900020006,63.93982144747122,62.140004923055194,-10,-10,10,10,55,45,45,65,65,3.1622776601683795,10,3.1622776601683795,10
15,16,0.13078010000754148,p,31.0,Limited Time - 800ms,i,56.72983092953605,65.72010072917239,49.70921346899049,31.016588901323242,49.70921346899049,31.016588901323242,65.72010072917239,56.72983092953605,-10,-10,10,10,55,45,45,65,65,3.1622776601683795,10,3.1622776601683795,10
15,17,0.1278011999966111,p,45.4,Limited Time - 800ms,i,75.9545808527293,65.24610869202384,44.04534989009521,45.421644799396255,44.04534989009521,45.421644799396255,65.24610869202384,75.9545808527293,-10,-10,10,10,55,45,45,65,65,3.1622776601683795,10,3.1622776601683795,10
15,18,0.14240489999065176,o,41.3,Limited Time - 800ms,i,57.68105823897973,61.94690440398347,41.263820273996636,56.274337162130664,41.263820273996636,56.274337162130664,61.94690440398347,57.68105823897973,-10,-10,10,10,55,45,45,65,65,3.1622776601683795,10,3.1622776601683795,10
15,19,0.15121670000371523,o,45.7,Limited Time - 800ms,i,74.66614641147682,68.91380498604546,45.721532916235745,60.59229143452588,45.721532916235745,60.59229143452588,68.91380498604546,74.66614641147682,-10,-10,10,10,55,45,45,65,65,3.1622776601683795,10,3.1622776601683795,10
15,20,0.12757960001181345,o,45.0,Limited Time - 800ms,i,67.23970352187293,69.67944584715794,45.00524940083106,38.21445125584163,45.00524940083106,38.21445125584163,69.67944584715794,67.23970352187293,-10,-10,10,10,55,45,45,65,65,3.1622776601683795,10,3.1622776601683795,10
16,1,0.12314570001035463,w,46.0,Unlimited Time,h,46.701530898669965,45.98061918295146,60.89698570461742,50.04943910269716,46.701530898669965,60.89698570461742,50.04943910269716,45.98061918295146,-10,-0.33,0.33,10,55,45,54.67,55.33,65,10,10,10,10
16,2,0.005386999997426756,w,63.3,Unlimited Time,h,23.143587088830525,63.271224126627985,57.390390672367424,42.38346181088664,23.143587088830525,57.390390672367424,42.38346181088664,63.271224126627985,-10,-0.33,0.33,10,55,45,54.67,55.33,65,10,10,10,10
16,3,0.13848810001218226,w,77.9,Unlimited Time,h,51.1172796033469,77.89619598564384,51.75992003689723,41.19795823431197,51.1172796033469,51.75992003689723,41.19795823431197,77.89619598564384,-10,-0.33,0.33,10,55,45,54.67,55.33,65,10,10,10,10
16,4,0.1318881000042893,q,47.0,Unlimited Time,h,46.97367995409689,70.33211097316524,44.03400762213654,60.60977458286732,46.97367995409689,44.03400762213654,60.60977458286732,70.33211097316524,-10,-0.33,0.33,10,55,45,54.67,55.33,65,10,10,10,10
16,5,0.0052657000051112846,o,60.7,Unlimited Time,h,54.0902827981466,52.251796237488904,60.65171519749642,60.80270884548825,54.0902827981466,60.65171519749642,60.80270884548825,52.251796237488904,-10,-0.33,0.33,10,55,45,54.67,55.33,65,10,10,10,10
16,6,0.006251300001167692,p,61.4,Unlimited Time,h,51.370386679587845,61.01826806555178,56.09100832473476,61.36940510340288,51.370386679587845,56.09100832473476,61.36940510340288,61.01826806555178,-10,-0.33,0.33,10,55,45,54.67,55.33,65,10,10,10,10
16,7,0.0513381000055233,q,44.7,Unlimited Time,h,44.734711335100386,65.68752640424051,50.94295823998621,50.36819178481168,44.734711335100386,50.94295823998621,50.36819178481168,65.68752640424051,-10,-0.33,0.33,10,55,45,54.67,55.33,65,10,10,10,10
16,8,0.020886099999188446,p,56.7,Unlimited Time,h,55.79653340931361,89.69292102853186,54.137934736125544,56.65091740725891,55.79653340931361,54.137934736125544,56.65091740725891,89.69292102853186,-10,-0.33,0.33,10,55,45,54.67,55.33,65,10,10,10,10
16,9,0.0662064000061946,o,64.3,Unlimited Time,h,24.994110223794923,82.23236054311917,64.28469541444323,77.18038960705275,24.994110223794923,64.28469541444323,77.18038960705275,82.23236054311917,-10,-0.33,0.33,10,55,45,54.67,55.33,65,10,10,10,10
16,10,0.004505400007474236,w,71.7,Unlimited Time,h,47.08931785425506,71.6994258506602,65.59478008117824,48.48682500353985,47.08931785425506,65.59478008117824,48.48682500353985,71.6994258506602,-10,-0.33,0.33,10,55,45,54.67,55.33,65,10,10,10,10
16,11,0.03415580000728369,p,45.3,Unlimited Time,h,48.19494756096778,62.29900631087525,43.412977680780735,45.32333800888665,48.19494756096778,43.412977680780735,45.32333800888665,62.29900631087525,-10,-0.33,0.33,10,55,45,54.67,55.33,65,10,10,10,10
16,12,0.07767100000637583,o,42.1,Unlimited Time,h,47.31307054824608,77.06349135147435,42.124320415749146,54.505588824572726,47.31307054824608,42.124320415749146,54.505588824572726,77.06349135147435,-10,-0.33,0.33,10,55,45,54.67,55.33,65,10,10,10,10
16,13,0.02462070000183303,w,88.0,Unlimited Time,h,36.68768116105591,87.9848656577413,59.54389428016827,56.173106613507564,36.68768116105591,59.54389428016827,56.173106613507564,87.9848656577413,-10,-0.33,0.33,10,55,45,54.67,55.33,65,10,10,10,10
16,14,0.061354899997240864,p,45.8,Unlimited Time,h,52.057776728285766,84.08297480015099,63.678641025474384,45.752564837040524,52.057776728285766,63.678641025474384,45.752564837040524,84.08297480015099,-10,-0.33,0.33,10,55,45,54.67,55.33,65,10,10,10,10
16,15,0.3416012999950908,o,55.0,Unlimited Time,h,53.515540672178446,60.054328236313566,55.03732518488033,41.4333979493622,53.515540672178446,55.03732518488033,41.4333979493622,60.054328236313566,-10,-0.33,0.33,10,55,45,54.67,55.33,65,10,10,10,10
16,16,0.43204189999960363,p,50.9,Unlimited Time,h,38.02660838447605,75.44844403727035,31.300999516619008,50.924085408044405,38.02660838447605,31.300999516619008,50.924085408044405,75.44844403727035,-10,-0.33,0.33,10,55,45,54.67,55.33,65,10,10,10,10
16,17,0.06188270001439378,w,63.4,Unlimited Time,h,33.2788883203666,63.364550838116855,52.620818457358375,48.32879400757632,33.2788883203666,52.620818457358375,48.32879400757632,63.364550838116855,-10,-0.33,0.33,10,55,45,54.67,55.33,65,10,10,10,10
16,18,0.14531790000910405,q,53.4,Unlimited Time,h,53.39385316090191,61.54069697858305,72.18960699428179,54.67820754624112,53.39385316090191,72.18960699428179,54.67820754624112,61.54069697858305,-10,-0.33,0.33,10,55,45,54.67,55.33,65,10,10,10,10
16,19,0.14956279999751132,p,69.2,Unlimited Time,h,65.37067070244834,79.82313666686294,54.39762847848189,69.18460012862265,65.37067070244834,54.39762847848189,69.18460012862265,79.82313666686294,-10,-0.33,0.33,10,55,45,54.67,55.33,65,10,10,10,10
16,20,0.03387690000818111,w,68.6,Unlimited Time,h,56.45052803581377,68.58654537290853,60.89973561313181,65.33384144404236,56.45052803581377,60.89973561313181,65.33384144404236,68.58654537290853,-10,-0.33,0.33,10,55,45,54.67,55.33,65,10,10,10,10
17,1,0.2096939999901224,o,46.9,Limited Time - 400ms,e,55.61282922596537,53.41895769270283,46.89208452312081,66.45305393687448,53.41895769270283,55.61282922596537,46.89208452312081,66.45305393687448,0,0,0,0,55,55,55,55,55,3.1622776601683795,6.324555320336759,8.366600265340756,10
17,2,0.050771499998518266,o,59.3,Limited Time - 400ms,e,61.48071963771939,59.35280387101972,59.33976200180749,37.49774622337975,59.35280387101972,61.48071963771939,59.33976200180749,37.49774622337975,0,0,0,0,55,55,55,55,55,3.1622776601683795,6.324555320336759,8.366600265340756,10
17,3,0.0006678000063402578,o,46.3,Limited Time - 400ms,e,54.66199115147056,53.79361614109377,46.33532577213404,47.107028098269254,53.79361614109377,54.66199115147056,46.33532577213404,47.107028098269254,0,0,0,0,55,55,55,55,55,3.1622776601683795,6.324555320336759,8.366600265340756,10
17,4,0.03913970000576228,o,66.1,Limited Time - 400ms,e,64.19074387288397,55.55742825205776,66.08799060761638,52.212571613210116,55.55742825205776,64.19074387288397,66.08799060761638,52.212571613210116,0,0,0,0,55,55,55,55,55,3.1622776601683795,6.324555320336759,8.366600265340756,10
17,5,0.001916299996082671,o,55.8,Limited Time - 400ms,e,65.5299819234341,60.27481425148603,55.79897241684089,44.4327360977819,60.27481425148603,65.5299819234341,55.79897241684089,44.4327360977819,0,0,0,0,55,55,55,55,55,3.1622776601683795,6.324555320336759,8.366600265340756,10
17,6,0.015881600003922358,o,58.4,Limited Time - 400ms,e,57.80623377531905,51.054421627153786,58.417472663016454,63.948564176200335,51.054421627153786,57.80623377531905,58.417472663016454,63.948564176200335,0,0,0,0,55,55,55,55,55,3.1622776601683795,6.324555320336759,8.366600265340756,10
17,7,0.031249699997715652,o,68.8,Limited Time - 400ms,e,59.3029407868912,59.088238054077884,68.83942465375598,43.949268453184615,59.088238054077884,59.3029407868912,68.83942465375598,43.949268453184615,0,0,0,0,55,55,55,55,55,3.1622776601683795,6.324555320336759,8.366600265340756,10
17,8,0.029724299994995818,o,54.2,Limited Time - 400ms,e,44.78335618236045,51.64436120123832,54.18211035391091,40.750360008674456,51.64436120123832,44.78335618236045,54.18211035391091,40.750360008674456,0,0,0,0,55,55,55,55,55,3.1622776601683795,6.324555320336759,8.366600265340756,10
17,9,0.06316000000515487,o,41.2,Limited Time - 400ms,e,50.91690510219715,54.77905859813648,41.234747394867085,56.01787032124365,54.77905859813648,50.91690510219715,41.234747394867085,56.01787032124365,0,0,0,0,55,55,55,55,55,3.1622776601683795,6.324555320336759,8.366600265340756,10
17,10,0.04702359999646433,o,45.6,Limited Time - 400ms,e,57.51725584777188,55.21817181627049,45.628768590995186,58.336228465891196,55.21817181627049,57.51725584777188,45.628768590995186,58.336228465891196,0,0,0,0,55,55,55,55,55,3.1622776601683795,6.324555320336759,8.366600265340756,10
17,11,0.0179162999993423,w,59.3,Limited Time - 400ms,e,57.532496436587316,59.31634447860293,65.39416452956564,37.3188965715539,59.31634447860293,57.532496436587316,65.39416452956564,37.3188965715539,0,0,0,0,55,55,55,55,55,3.1622776601683795,6.324555320336759,8.366600265340756,10
17,12,0.08689120000053663,o,67.5,Limited Time - 400ms,e,52.75014313182513,57.27189987753609,67.52133091575926,66.23130833720015,57.27189987753609,52.75014313182513,67.52133091575926,66.23130833720015,0,0,0,0,55,55,55,55,55,3.1622776601683795,6.324555320336759,8.366600265340756,10
17,13,0.04658160000690259,o,70.5,Limited Time - 400ms,e,69.30234710797264,60.66462605194058,70.46314330707676,45.389926471183514,60.66462605194058,69.30234710797264,70.46314330707676,45.389926471183514,0,0,0,0,55,55,55,55,55,3.1622776601683795,6.324555320336759,8.366600265340756,10
17,14,0.035933399994974025,w,52.5,Limited Time - 400ms,e,53.62153555252892,52.51349639923249,61.88352770522904,49.44585788967225,52.51349639923249,53.62153555252892,61.88352770522904,49.44585788967225,0,0,0,0,55,55,55,55,55,3.1622776601683795,6.324555320336759,8.366600265340756,10
17,15,0.053675000002840534,o,53.8,Limited Time - 400ms,e,59.74754404858653,55.97159308164557,53.84216969260644,46.47025441825824,55.97159308164557,59.74754404858653,53.84216969260644,46.47025441825824,0,0,0,0,55,55,55,55,55,3.1622776601683795,6.324555320336759,8.366600265340756,10
17,16,0.011976900001172908,q,58.9,Limited Time - 400ms,e,58.946658653418304,57.019286180080506,76.79612402651426,33.49645356544421,57.019286180080506,58.946658653418304,76.79612402651426,33.49645356544421,0,0,0,0,55,55,55,55,55,3.1622776601683795,6.324555320336759,8.366600265340756,10
17,17,0.03704460000153631,p,49.4,Limited Time - 400ms,e,58.306466392137075,53.33487895510942,52.203891187874305,49.352507786647074,53.33487895510942,58.306466392137075,52.203891187874305,49.352507786647074,0,0,0,0,55,55,55,55,55,3.1622776601683795,6.324555320336759,8.366600265340756,10
17,18,0.0251845000020694,q,46.9,Limited Time - 400ms,e,46.925874861400914,51.752163178013795,41.49552412337487,40.29229346212549,51.752163178013795,46.925874861400914,41.49552412337487,40.29229346212549,0,0,0,0,55,55,55,55,55,3.1622776601683795,6.324555320336759,8.366600265340756,10
17,19,0.0047774999984540045,o,61.6,Limited Time - 400ms,e,44.101737868494205,53.33478494809777,61.60670273658147,58.87155370582825,53.33478494809777,44.101737868494205,61.60670273658147,58.87155370582825,0,0,0,0,55,55,55,55,55,3.1622776601683795,6.324555320336759,8.366600265340756,10
17,20,0.023028900002827868,w,56.4,Limited Time - 400ms,e,56.981769856149185,56.371354359880165,57.21123180257146,50.65297268298652,56.371354359880165,56.981769856149185,57.21123180257146,50.65297268298652,0,0,0,0,55,55,55,55,55,3.1622776601683795,6.324555320336759,8.366600265340756,10
18,1,0.21037970000179484,o,59.0,Limited Time - 800ms,l,64.69187155813886,48.66372880331731,58.97634657706779,54.2752847570154,48.66372880331731,54.2752847570154,58.97634657706779,64.69187155813886,-10,-0.33,0.33,10,55,45,54.67,55.33,65,3.1622776601683795,3.1622776601683795,3.1622776601683795,3.1622776601683795
18,2,0.0032418000046163797,w,44.8,Limited Time - 800ms,l,60.00762705544562,44.7784572378026,50.6881671268751,48.2968579926621,44.7784572378026,48.2968579926621,50.6881671268751,60.00762705544562,-10,-0.33,0.33,10,55,45,54.67,55.33,65,3.1622776601683795,3.1622776601683795,3.1622776601683795,3.1622776601683795
18,3,0.06160549999913201,p,58.7,Limited Time - 800ms,l,63.31831637421894,48.8837372195181,56.77729349894645,58.7477969340195,48.8837372195181,58.7477969340195,56.77729349894645,63.31831637421894,-10,-0.33,0.33,10,55,45,54.67,55.33,65,3.1622776601683795,3.1622776601683795,3.1622776601683795,3.1622776601683795
18,4,0.07912429999851156,p,49.6,Limited Time - 800ms,l,64.85227223613894,45.82141232999466,60.657784141178595,49.569136017131136,45.82141232999466,49.569136017131136,60.657784141178595,64.85227223613894,-10,-0.33,0.33,10,55,45,54.67,55.33,65,3.1622776601683795,3.1622776601683795,3.1622776601683795,3.1622776601683795
18,5,0.046145999993314035,p,60.1,Limited Time - 800ms,l,65.0412786787725,47.99868325707443,53.24650754074046,60.14942025634073,47.99868325707443,60.14942025634073,53.24650754074046,65.0412786787725,-10,-0.33,0.33,10,55,45,54.67,55.33,65,3.1622776601683795,3.1622776601683795,3.1622776601683795,3.1622776601683795
18,6,0.06761719999485649,p,53.8,Limited Time - 800ms,l,68.18446587688547,43.206333578699834,55.35590920991202,53.8236731488463,43.206333578699834,53.8236731488463,55.35590920991202,68.18446587688547,-10,-0.33,0.33,10,55,45,54.67,55.33,65,3.1622776601683795,3.1622776601683795,3.1622776601683795,3.1622776601683795
18,7,0.01268759999948088,q,73.2,Limited Time - 800ms,l,73.22547964590433,45.637401868781744,62.54104862634358,53.89159765438428,45.637401868781744,53.89159765438428,62.54104862634358,73.22547964590433,-10,-0.33,0.33,10,55,45,54.67,55.33,65,3.1622776601683795,3.1622776601683795,3.1622776601683795,3.1622776601683795
18,8,0.05477940000128001,o,56.7,Limited Time - 800ms,l,64.05406307752979,43.05188392576867,56.74005665893095,56.09060698700678,43.05188392576867,56.09060698700678,56.74005665893095,64.05406307752979,-10,-0.33,0.33,10,55,45,54.67,55.33,65,3.1622776601683795,3.1622776601683795,3.1622776601683795,3.1622776601683795
18,9,0.09286679999786429,o,57.1,Limited Time - 800ms,l,63.84128051413324,44.6378237023631,57.100903044964035,54.25062581724758,44.6378237023631,54.25062581724758,57.100903044964035,63.84128051413324,-10,-0.33,0.33,10,55,45,54.67,55.33,65,3.1622776601683795,3.1622776601683795,3.1622776601683795,3.1622776601683795
18,10,0.003915599998435937,p,54.3,Limited Time - 800ms,l,61.13341591528625,43.3039128243765,58.43477907812277,54.331735434440006,43.3039128243765,54.331735434440006,58.43477907812277,61.13341591528625,-10,-0.33,0.33,10,55,45,54.67,55.33,65,3.1622776601683795,3.1622776601683795,3.1622776601683795,3.1622776601683795
18,11,0.1278961999923922,p,48.9,Limited Time - 800ms,l,62.51104149406763,38.975163852135076,54.00313509450496,48.90012462438234,38.975163852135076,48.90012462438234,54.00313509450496,62.51104149406763,-10,-0.33,0.33,10,55,45,54.67,55.33,65,3.1622776601683795,3.1622776601683795,3.1622776601683795,3.1622776601683795
18,12,0.03723899999749847,o,48.7,Limited Time - 800ms,l,68.86942950046279,38.635915951747776,48.70211580751507,55.726198258115524,38.635915951747776,55.726198258115524,48.70211580751507,68.86942950046279,-10,-0.33,0.33,10,55,45,54.67,55.33,65,3.1622776601683795,3.1622776601683795,3.1622776601683795,3.1622776601683795
18,13,0.04113699999288656,p,53.3,Limited Time - 800ms,l,58.80208443052948,44.14550987978096,53.78994932478702,53.25601492931689,44.14550987978096,53.25601492931689,53.78994932478702,58.80208443052948,-10,-0.33,0.33,10,55,45,54.67,55.33,65,3.1622776601683795,3.1622776601683795,3.1622776601683795,3.1622776601683795
18,14,0.027018099994165823,o,50.5,Limited Time - 800ms,l,65.12247474462553,47.34458600579791,50.5017288017257,53.42373677451056,47.34458600579791,53.42373677451056,50.5017288017257,65.12247474462553,-10,-0.33,0.33,10,55,45,54.67,55.33,65,3.1622776601683795,3.1622776601683795,3.1622776601683795,3.1622776601683795
18,15,0.03727400000207126,p,56.7,Limited Time - 800ms,l,62.55279255537139,45.43356696980828,57.90236389699811,56.65596422305217,45.43356696980828,56.65596422305217,57.90236389699811,62.55279255537139,-10,-0.33,0.33,10,55,45,54.67,55.33,65,3.1622776601683795,3.1622776601683795,3.1622776601683795,3.1622776601683795
18,16,0.025034199992660433,o,56.8,Limited Time - 800ms,l,65.01511079617866,43.31293268795905,56.77060341179223,55.172627805247465,43.31293268795905,55.172627805247465,56.77060341179223,65.01511079617866,-10,-0.33,0.33,10,55,45,54.67,55.33,65,3.1622776601683795,3.1622776601683795,3.1622776601683795,3.1622776601683795
