Round Number,Trial Number,Reaction Time,Choice,Reward (Health Points),Time Condition,Payoff Condition,Q mapped,W mapped,O mapped,P mapped,One value,Two value,Three value,Four value,One mean,Two mean,Three mean,Four mean,Mean Shift,One shifted mean,Two shifted mean,Three shifted mean,Four shifted mean,One SD,Two SD,Three SD,Four SD
1,1,0.6726531999884173,q,54.9,Unlimited Time,i,54.94600126431474,48.51193917285531,51.45765211880461,32.422228953864675,32.422228953864675,48.51193917285531,54.94600126431474,51.45765211880461,-10,-10,10,10,46,36,36,56,56,3.1622776601683795,10,3.1622776601683795,10
1,2,0.51590070000384,o,62.8,Unlimited Time,i,54.55763969056881,37.45796566745072,62.80929174108067,36.204291200594774,36.204291200594774,37.45796566745072,54.55763969056881,62.80929174108067,-10,-10,10,10,46,36,36,56,56,3.1622776601683795,10,3.1622776601683795,10
1,3,0.4971847999840975,o,65.6,Unlimited Time,i,51.58006110719999,31.388843575262065,65.55672899636886,32.5619382096162,32.5619382096162,31.388843575262065,51.58006110719999,65.55672899636886,-10,-10,10,10,46,36,36,56,56,3.1622776601683795,10,3.1622776601683795,10
1,4,0.2424540999927558,o,50.2,Unlimited Time,i,57.34801485508071,46.934933567646006,50.159422182349495,39.479168265372195,39.479168265372195,46.934933567646006,57.34801485508071,50.159422182349495,-10,-10,10,10,46,36,36,56,56,3.1622776601683795,10,3.1622776601683795,10
1,5,0.20744760002708063,o,77.1,Unlimited Time,i,51.9538256976968,27.908477676047763,77.1263189856426,37.81210912859118,37.81210912859118,27.908477676047763,51.9538256976968,77.1263189856426,-10,-10,10,10,46,36,36,56,56,3.1622776601683795,10,3.1622776601683795,10
1,6,0.2422853999887593,o,41.7,Unlimited Time,i,50.92482033814202,30.075063445892248,41.7340942707739,36.95129566403464,36.95129566403464,30.075063445892248,50.92482033814202,41.7340942707739,-10,-10,10,10,46,36,36,56,56,3.1622776601683795,10,3.1622776601683795,10
1,7,0.5795976999797858,o,46.2,Unlimited Time,i,53.81363778690966,35.281251783984516,46.168429434134005,33.26185772808712,33.26185772808712,35.281251783984516,53.81363778690966,46.168429434134005,-10,-10,10,10,46,36,36,56,56,3.1622776601683795,10,3.1622776601683795,10
1,8,0.5132820000289939,q,53.6,Unlimited Time,i,53.595316132630124,44.969852519093834,48.03092485992059,37.44206778532072,37.44206778532072,44.969852519093834,53.595316132630124,48.03092485992059,-10,-10,10,10,46,36,36,56,56,3.1622776601683795,10,3.1622776601683795,10
1,9,0.42094310000538826,w,46.0,Unlimited Time,i,56.16040481611464,46.04186237573596,58.13688100393792,34.442292478159665,34.442292478159665,46.04186237573596,56.16040481611464,58.13688100393792,-10,-10,10,10,46,36,36,56,56,3.1622776601683795,10,3.1622776601683795,10
1,10,0.011524899979121983,o,66.5,Unlimited Time,i,60.93468360686296,15.189282773191362,66.51486723883026,37.214571529485596,37.214571529485596,15.189282773191362,60.93468360686296,66.51486723883026,-10,-10,10,10,46,36,36,56,56,3.1622776601683795,10,3.1622776601683795,10
1,11,0.18208080000476912,o,52.9,Unlimited Time,i,55.631754457432336,46.8390503965219,52.890722075073256,32.47120749484593,32.47120749484593,46.8390503965219,55.631754457432336,52.890722075073256,-10,-10,10,10,46,36,36,56,56,3.1622776601683795,10,3.1622776601683795,10
1,12,0.008246400044299662,o,52.7,Unlimited Time,i,56.168894795754895,19.263675244873326,52.687647888073805,35.847826631143676,35.847826631143676,19.263675244873326,56.168894795754895,52.687647888073805,-10,-10,10,10,46,36,36,56,56,3.1622776601683795,10,3.1622776601683795,10
1,13,0.09003000002121553,o,44.3,Unlimited Time,i,48.66016756089972,34.803429604193894,44.34199132564321,33.92263732597417,33.92263732597417,34.803429604193894,48.66016756089972,44.34199132564321,-10,-10,10,10,46,36,36,56,56,3.1622776601683795,10,3.1622776601683795,10
1,14,0.0511823000269942,o,63.4,Unlimited Time,i,51.53399112658039,26.187381260349543,63.397555317562066,37.73970067906487,37.73970067906487,26.187381260349543,51.53399112658039,63.397555317562066,-10,-10,10,10,46,36,36,56,56,3.1622776601683795,10,3.1622776601683795,10
1,15,0.07067190000088885,o,53.4,Unlimited Time,i,54.836573702498285,36.38491102230671,53.39397912440499,38.4600140908135,38.4600140908135,36.38491102230671,54.836573702498285,53.39397912440499,-10,-10,10,10,46,36,36,56,56,3.1622776601683795,10,3.1622776601683795,10
1,16,0.07788140000775456,o,59.7,Unlimited Time,i,48.23754371178572,38.0500554778106,59.72077468389769,37.95429613797934,37.95429613797934,38.0500554778106,48.23754371178572,59.72077468389769,-10,-10,10,10,46,36,36,56,56,3.1622776601683795,10,3.1622776601683795,10
1,17,0.0629079999634996,o,45.9,Unlimited Time,i,57.67289700750999,45.24700664812581,45.90245568289512,44.04673730020754,44.04673730020754,45.24700664812581,57.67289700750999,45.90245568289512,-10,-10,10,10,46,36,36,56,56,3.1622776601683795,10,3.1622776601683795,10
1,18,0.06049800000619143,o,63.4,Unlimited Time,i,60.391004273568875,23.1435261796109,63.43229927914126,33.324408642217804,33.324408642217804,23.1435261796109,60.391004273568875,63.43229927914126,-10,-10,10,10,46,36,36,56,56,3.1622776601683795,10,3.1622776601683795,10
1,19,0.11372940003639087,o,64.5,Unlimited Time,i,53.990990795170866,27.755899906867537,64.47865183209906,34.8839612380563,34.8839612380563,27.755899906867537,53.990990795170866,64.47865183209906,-10,-10,10,10,46,36,36,56,56,3.1622776601683795,10,3.1622776601683795,10
1,20,0.06624960002955049,o,58.1,Unlimited Time,i,49.20592825057065,37.06465180304162,58.05790809637056,34.692369012401386,34.692369012401386,37.06465180304162,49.20592825057065,58.05790809637056,-10,-10,10,10,46,36,36,56,56,3.1622776601683795,10,3.1622776601683795,10
2,1,,,0.0,Limited Time - 400ms,i,32.422228953864675,54.94600126431474,48.51193917285531,51.45765211880461,32.422228953864675,48.51193917285531,54.94600126431474,51.45765211880461,-10,-10,10,10,46,36,36,56,56,3.1622776601683795,10,3.1622776601683795,10
2,2,,,0.0,Limited Time - 400ms,i,36.204291200594774,54.55763969056881,37.45796566745072,62.80929174108067,36.204291200594774,37.45796566745072,54.55763969056881,62.80929174108067,-10,-10,10,10,46,36,36,56,56,3.1622776601683795,10,3.1622776601683795,10
2,3,0.050688099989201874,p,65.6,Limited Time - 400ms,i,32.5619382096162,51.58006110719999,31.388843575262065,65.55672899636886,32.5619382096162,31.388843575262065,51.58006110719999,65.55672899636886,-10,-10,10,10,46,36,36,56,56,3.1622776601683795,10,3.1622776601683795,10
2,4,0.21767260000342503,p,50.2,Limited Time - 400ms,i,39.479168265372195,57.34801485508071,46.934933567646006,50.159422182349495,39.479168265372195,46.934933567646006,57.34801485508071,50.159422182349495,-10,-10,10,10,46,36,36,56,56,3.1622776601683795,10,3.1622776601683795,10
2,5,0.14952430000994354,p,77.1,Limited Time - 400ms,i,37.81210912859118,51.9538256976968,27.908477676047763,77.1263189856426,37.81210912859118,27.908477676047763,51.9538256976968,77.1263189856426,-10,-10,10,10,46,36,36,56,56,3.1622776601683795,10,3.1622776601683795,10
2,6,0.2833155000116676,p,41.7,Limited Time - 400ms,i,36.95129566403464,50.92482033814202,30.075063445892248,41.7340942707739,36.95129566403464,30.075063445892248,50.92482033814202,41.7340942707739,-10,-10,10,10,46,36,36,56,56,3.1622776601683795,10,3.1622776601683795,10
2,7,0.2238501999527216,p,46.2,Limited Time - 400ms,i,33.26185772808712,53.81363778690966,35.281251783984516,46.168429434134005,33.26185772808712,35.281251783984516,53.81363778690966,46.168429434134005,-10,-10,10,10,46,36,36,56,56,3.1622776601683795,10,3.1622776601683795,10
2,8,0.05096309998771176,p,48.0,Limited Time - 400ms,i,37.44206778532072,53.595316132630124,44.969852519093834,48.03092485992059,37.44206778532072,44.969852519093834,53.595316132630124,48.03092485992059,-10,-10,10,10,46,36,36,56,56,3.1622776601683795,10,3.1622776601683795,10
2,9,0.15351770003326237,p,58.1,Limited Time - 400ms,i,34.442292478159665,56.16040481611464,46.04186237573596,58.13688100393792,34.442292478159665,46.04186237573596,56.16040481611464,58.13688100393792,-10,-10,10,10,46,36,36,56,56,3.1622776601683795,10,3.1622776601683795,10
2,10,0.13697079999838024,w,60.9,Limited Time - 400ms,i,37.214571529485596,60.93468360686296,15.189282773191362,66.51486723883026,37.214571529485596,15.189282773191362,60.93468360686296,66.51486723883026,-10,-10,10,10,46,36,36,56,56,3.1622776601683795,10,3.1622776601683795,10
2,11,0.075984499999322,w,55.6,Limited Time - 400ms,i,32.47120749484593,55.631754457432336,46.8390503965219,52.890722075073256,32.47120749484593,46.8390503965219,55.631754457432336,52.890722075073256,-10,-10,10,10,46,36,36,56,56,3.1622776601683795,10,3.1622776601683795,10
2,12,0.19263710000086576,q,35.8,Limited Time - 400ms,i,35.847826631143676,56.168894795754895,19.263675244873326,52.687647888073805,35.847826631143676,19.263675244873326,56.168894795754895,52.687647888073805,-10,-10,10,10,46,36,36,56,56,3.1622776601683795,10,3.1622776601683795,10
2,13,0.2054086000425741,w,48.7,Limited Time - 400ms,i,33.92263732597417,48.66016756089972,34.803429604193894,44.34199132564321,33.92263732597417,34.803429604193894,48.66016756089972,44.34199132564321,-10,-10,10,10,46,36,36,56,56,3.1622776601683795,10,3.1622776601683795,10
2,14,0.11736480001127347,w,51.5,Limited Time - 400ms,i,37.73970067906487,51.53399112658039,26.187381260349543,63.397555317562066,37.73970067906487,26.187381260349543,51.53399112658039,63.397555317562066,-10,-10,10,10,46,36,36,56,56,3.1622776601683795,10,3.1622776601683795,10
2,15,0.15550860000075772,p,53.4,Limited Time - 400ms,i,38.4600140908135,54.836573702498285,36.38491102230671,53.39397912440499,38.4600140908135,36.38491102230671,54.836573702498285,53.39397912440499,-10,-10,10,10,46,36,36,56,56,3.1622776601683795,10,3.1622776601683795,10
2,16,0.14076969999587163,p,59.7,Limited Time - 400ms,i,37.95429613797934,48.23754371178572,38.0500554778106,59.72077468389769,37.95429613797934,38.0500554778106,48.23754371178572,59.72077468389769,-10,-10,10,10,46,36,36,56,56,3.1622776601683795,10,3.1622776601683795,10
2,17,0.214710499974899,p,45.9,Limited Time - 400ms,i,44.04673730020754,57.67289700750999,45.24700664812581,45.90245568289512,44.04673730020754,45.24700664812581,57.67289700750999,45.90245568289512,-10,-10,10,10,46,36,36,56,56,3.1622776601683795,10,3.1622776601683795,10
2,18,0.09965879999799654,p,63.4,Limited Time - 400ms,i,33.324408642217804,60.391004273568875,23.1435261796109,63.43229927914126,33.324408642217804,23.1435261796109,60.391004273568875,63.43229927914126,-10,-10,10,10,46,36,36,56,56,3.1622776601683795,10,3.1622776601683795,10
2,19,,,0.0,Limited Time - 400ms,i,34.8839612380563,53.990990795170866,27.755899906867537,64.47865183209906,34.8839612380563,27.755899906867537,53.990990795170866,64.47865183209906,-10,-10,10,10,46,36,36,56,56,3.1622776601683795,10,3.1622776601683795,10
2,20,,,0.0,Limited Time - 400ms,i,34.692369012401386,49.20592825057065,37.06465180304162,58.05790809637056,34.692369012401386,37.06465180304162,49.20592825057065,58.05790809637056,-10,-10,10,10,46,36,36,56,56,3.1622776601683795,10,3.1622776601683795,10
3,1,0.5865936999907717,q,39.9,Limited Time - 800ms,e,39.88479265411856,53.36800040486436,42.12125633343295,50.09286748931431,50.09286748931431,42.12125633343295,53.36800040486436,39.88479265411856,0,0,0,0,46,46,46,46,46,3.1622776601683795,6.324555320336759,8.366600265340756,10
3,2,0.14936199999647215,w,37.9,Limited Time - 800ms,e,36.258308650632216,37.88980200074037,59.22887299793425,48.465481130747236,48.465481130747236,59.22887299793425,37.88980200074037,36.258308650632216,0,0,0,0,46,46,46,46,46,3.1622776601683795,6.324555320336759,8.366600265340756,10
3,3,0.08479360002093017,w,48.0,Limited Time - 800ms,e,44.271339745506715,47.96534141194727,50.68882136789704,46.37615978176008,46.37615978176008,50.68882136789704,47.96534141194727,44.271339745506715,0,0,0,0,46,46,46,46,46,3.1622776601683795,6.324555320336759,8.366600265340756,10
3,4,0.08314470003824681,p,46.2,Limited Time - 800ms,e,29.90286814325359,44.77212821972901,56.88188022855612,46.20982196918158,46.20982196918158,56.88188022855612,44.77212821972901,29.90286814325359,0,0,0,0,46,46,46,46,46,3.1622776601683795,6.324555320336759,8.366600265340756,10
3,5,0.022833499999251217,p,46.9,Limited Time - 800ms,e,46.50012339135648,42.337216817636815,37.5091200475058,46.86553450285744,46.86553450285744,37.5091200475058,42.337216817636815,46.50012339135648,0,0,0,0,46,46,46,46,46,3.1622776601683795,6.324555320336759,8.366600265340756,10
3,6,0.24612309999065474,w,41.7,Limited Time - 800ms,e,37.287329141081685,41.73156142391939,54.20581534871451,46.26040138615086,46.26040138615086,54.20581534871451,41.73156142391939,37.287329141081685,0,0,0,0,46,46,46,46,46,3.1622776601683795,6.324555320336759,8.366600265340756,10
3,7,0.15610999998170882,p,45.4,Limited Time - 800ms,e,49.943321576719924,42.46057555767461,46.81778782648364,45.36356585298304,45.36356585298304,46.81778782648364,42.46057555767461,49.943321576719924,0,0,0,0,46,46,46,46,46,3.1622776601683795,6.324555320336759,8.366600265340756,10
3,8,0.07877820002613589,p,44.7,Limited Time - 800ms,e,40.636801499791346,44.06014012567813,54.61392783681531,44.674240490622864,44.674240490622864,54.61392783681531,44.06014012567813,40.636801499791346,0,0,0,0,46,46,46,46,46,3.1622776601683795,6.324555320336759,8.366600265340756,10
3,9,0.03466080001089722,p,42.9,Limited Time - 800ms,e,55.48725662189487,39.290959131215,45.32811852021248,42.88221654546259,42.88221654546259,45.32811852021248,39.290959131215,55.48725662189487,0,0,0,0,46,46,46,46,46,3.1622776601683795,6.324555320336759,8.366600265340756,10
3,10,0.030455100000835955,w,41.5,Limited Time - 800ms,e,49.2853751996048,41.46169868302569,45.75846394108153,42.88401125560382,42.88401125560382,45.75846394108153,41.46169868302569,49.2853751996048,0,0,0,0,46,46,46,46,46,3.1622776601683795,6.324555320336759,8.366600265340756,10
3,11,0.16881880001164973,q,36.7,Limited Time - 800ms,e,36.691247046565955,49.81448893403865,43.86203777009883,50.21217279202632,50.21217279202632,43.86203777009883,49.81448893403865,36.691247046565955,0,0,0,0,46,46,46,46,46,3.1622776601683795,6.324555320336759,8.366600265340756,10
3,12,0.026456599996890873,q,48.1,Limited Time - 800ms,e,48.10060523094703,31.574186671161407,39.14277514518131,45.73326746226756,45.73326746226756,39.14277514518131,31.574186671161407,48.10060523094703,0,0,0,0,46,46,46,46,46,3.1622776601683795,6.324555320336759,8.366600265340756,10
3,13,0.2084239000105299,w,39.5,Limited Time - 800ms,e,35.58815893814712,39.541683543660184,43.2326267751295,41.964358611659335,41.964358611659335,43.2326267751295,39.541683543660184,35.58815893814712,0,0,0,0,46,46,46,46,46,3.1622776601683795,6.324555320336759,8.366600265340756,10
3,14,0.035231799993198365,w,53.5,Limited Time - 800ms,e,45.237630355432735,53.47642196457019,37.917289699364346,46.854549583196686,46.854549583196686,37.917289699364346,53.47642196457019,45.237630355432735,0,0,0,0,46,46,46,46,46,3.1622776601683795,6.324555320336759,8.366600265340756,10
3,15,0.34785880002891645,w,44.5,Limited Time - 800ms,e,52.60417185869883,44.5199564136387,52.161185486852105,45.92555417216419,45.92555417216419,52.161185486852105,44.5199564136387,52.60417185869883,0,0,0,0,46,46,46,46,46,3.1622776601683795,6.324555320336759,8.366600265340756,10
3,16,0.020466100017074496,w,43.0,Limited Time - 800ms,e,46.50879044035791,42.97152358078307,44.09277851651553,41.528599123262524,41.528599123262524,44.09277851651553,42.97152358078307,46.50879044035791,0,0,0,0,46,46,46,46,46,3.1622776601683795,6.324555320336759,8.366600265340756,10
3,17,0.19946870004059747,w,40.3,Limited Time - 800ms,e,39.85960123239285,40.33229861881548,47.88193004149338,43.419894070846865,43.419894070846865,47.88193004149338,40.33229861881548,39.85960123239285,0,0,0,0,46,46,46,46,46,3.1622776601683795,6.324555320336759,8.366600265340756,10
3,18,0.06680949998553842,w,29.6,Limited Time - 800ms,e,48.862109390629044,29.592579237349547,54.71306596260065,46.526364136955856,46.526364136955856,54.71306596260065,29.592579237349547,48.862109390629044,0,0,0,0,46,46,46,46,46,3.1622776601683795,6.324555320336759,8.366600265340756,10
3,19,0.20260289998259395,w,43.2,Limited Time - 800ms,e,38.63614582518775,43.15946387867493,47.63913155912688,49.89790850065246,49.89790850065246,47.63913155912688,43.15946387867493,38.63614582518775,0,0,0,0,46,46,46,46,46,3.1622776601683795,6.324555320336759,8.366600265340756,10
3,20,0.023509400023613125,w,35.5,Limited Time - 800ms,e,58.83611029751961,35.544964256022155,48.20300816255313,40.70222285721744,40.70222285721744,48.20300816255313,35.544964256022155,58.83611029751961,0,0,0,0,46,46,46,46,46,3.1622776601683795,6.324555320336759,8.366600265340756,10
4,1,0.3605027999728918,w,48.5,Unlimited Time,i,54.94600126431474,48.51193917285531,51.45765211880461,32.422228953864675,32.422228953864675,48.51193917285531,54.94600126431474,51.45765211880461,-10,-10,10,10,46,36,36,56,56,3.1622776601683795,10,3.1622776601683795,10
4,2,0.06044110003858805,w,37.5,Unlimited Time,i,54.55763969056881,37.45796566745072,62.80929174108067,36.204291200594774,36.204291200594774,37.45796566745072,54.55763969056881,62.80929174108067,-10,-10,10,10,46,36,36,56,56,3.1622776601683795,10,3.1622776601683795,10
4,3,0.0615556999691762,w,31.4,Unlimited Time,i,51.58006110719999,31.388843575262065,65.55672899636886,32.5619382096162,32.5619382096162,31.388843575262065,51.58006110719999,65.55672899636886,-10,-10,10,10,46,36,36,56,56,3.1622776601683795,10,3.1622776601683795,10
4,4,0.156093499972485,q,57.3,Unlimited Time,i,57.34801485508071,46.934933567646006,50.159422182349495,39.479168265372195,39.479168265372195,46.934933567646006,57.34801485508071,50.159422182349495,-10,-10,10,10,46,36,36,56,56,3.1622776601683795,10,3.1622776601683795,10
4,5,0.6612120000063442,q,52.0,Unlimited Time,i,51.9538256976968,27.908477676047763,77.1263189856426,37.81210912859118,37.81210912859118,27.908477676047763,51.9538256976968,77.1263189856426,-10,-10,10,10,46,36,36,56,56,3.1622776601683795,10,3.1622776601683795,10
4,6,0.4495407000067644,w,30.1,Unlimited Time,i,50.92482033814202,30.075063445892248,41.7340942707739,36.95129566403464,36.95129566403464,30.075063445892248,50.92482033814202,41.7340942707739,-10,-10,10,10,46,36,36,56,56,3.1622776601683795,10,3.1622776601683795,10
4,7,0.24917019996792078,p,33.3,Unlimited Time,i,53.81363778690966,35.281251783984516,46.168429434134005,33.26185772808712,33.26185772808712,35.281251783984516,53.81363778690966,46.168429434134005,-10,-10,10,10,46,36,36,56,56,3.1622776601683795,10,3.1622776601683795,10
4,8,0.11940650001633912,p,37.4,Unlimited Time,i,53.595316132630124,44.969852519093834,48.03092485992059,37.44206778532072,37.44206778532072,44.969852519093834,53.595316132630124,48.03092485992059,-10,-10,10,10,46,36,36,56,56,3.1622776601683795,10,3.1622776601683795,10
4,9,0.19118799996795133,p,34.4,Unlimited Time,i,56.16040481611464,46.04186237573596,58.13688100393792,34.442292478159665,34.442292478159665,46.04186237573596,56.16040481611464,58.13688100393792,-10,-10,10,10,46,36,36,56,56,3.1622776601683795,10,3.1622776601683795,10
4,10,0.13005300000077114,o,66.5,Unlimited Time,i,60.93468360686296,15.189282773191362,66.51486723883026,37.214571529485596,37.214571529485596,15.189282773191362,60.93468360686296,66.51486723883026,-10,-10,10,10,46,36,36,56,56,3.1622776601683795,10,3.1622776601683795,10
4,11,0.2362800999544561,o,52.9,Unlimited Time,i,55.631754457432336,46.8390503965219,52.890722075073256,32.47120749484593,32.47120749484593,46.8390503965219,55.631754457432336,52.890722075073256,-10,-10,10,10,46,36,36,56,56,3.1622776601683795,10,3.1622776601683795,10
4,12,0.20548120001330972,o,52.7,Unlimited Time,i,56.168894795754895,19.263675244873326,52.687647888073805,35.847826631143676,35.847826631143676,19.263675244873326,56.168894795754895,52.687647888073805,-10,-10,10,10,46,36,36,56,56,3.1622776601683795,10,3.1622776601683795,10
4,13,0.18922030000248924,o,44.3,Unlimited Time,i,48.66016756089972,34.803429604193894,44.34199132564321,33.92263732597417,33.92263732597417,34.803429604193894,48.66016756089972,44.34199132564321,-10,-10,10,10,46,36,36,56,56,3.1622776601683795,10,3.1622776601683795,10
4,14,0.18170599994482473,o,63.4,Unlimited Time,i,51.53399112658039,26.187381260349543,63.397555317562066,37.73970067906487,37.73970067906487,26.187381260349543,51.53399112658039,63.397555317562066,-10,-10,10,10,46,36,36,56,56,3.1622776601683795,10,3.1622776601683795,10
4,15,0.09509880002588034,o,53.4,Unlimited Time,i,54.836573702498285,36.38491102230671,53.39397912440499,38.4600140908135,38.4600140908135,36.38491102230671,54.836573702498285,53.39397912440499,-10,-10,10,10,46,36,36,56,56,3.1622776601683795,10,3.1622776601683795,10
4,16,0.16104870004346594,o,59.7,Unlimited Time,i,48.23754371178572,38.0500554778106,59.72077468389769,37.95429613797934,37.95429613797934,38.0500554778106,48.23754371178572,59.72077468389769,-10,-10,10,10,46,36,36,56,56,3.1622776601683795,10,3.1622776601683795,10
4,17,0.16953300003660843,o,45.9,Unlimited Time,i,57.67289700750999,45.24700664812581,45.90245568289512,44.04673730020754,44.04673730020754,45.24700664812581,57.67289700750999,45.90245568289512,-10,-10,10,10,46,36,36,56,56,3.1622776601683795,10,3.1622776601683795,10
4,18,0.1205070000141859,o,63.4,Unlimited Time,i,60.391004273568875,23.1435261796109,63.43229927914126,33.324408642217804,33.324408642217804,23.1435261796109,60.391004273568875,63.43229927914126,-10,-10,10,10,46,36,36,56,56,3.1622776601683795,10,3.1622776601683795,10
4,19,0.09812539996346459,o,64.5,Unlimited Time,i,53.990990795170866,27.755899906867537,64.47865183209906,34.8839612380563,34.8839612380563,27.755899906867537,53.990990795170866,64.47865183209906,-10,-10,10,10,46,36,36,56,56,3.1622776601683795,10,3.1622776601683795,10
4,20,0.06100679998053238,o,58.1,Unlimited Time,i,49.20592825057065,37.06465180304162,58.05790809637056,34.692369012401386,34.692369012401386,37.06465180304162,49.20592825057065,58.05790809637056,-10,-10,10,10,46,36,36,56,56,3.1622776601683795,10,3.1622776601683795,10
5,1,0.34099669998977333,w,48.7,Limited Time - 400ms,l,39.49390054314894,48.70845731757242,62.263276025471804,46.50225386129207,39.49390054314894,46.50225386129207,48.70845731757242,62.263276025471804,-10,-0.33,0.33,10,46,36,45.67,46.33,56,3.1622776601683795,3.1622776601683795,3.1622776601683795,3.1622776601683795
5,2,0.10228110000025481,w,48.2,Limited Time - 400ms,l,32.99191700602556,48.185683093143304,57.745237556129744,47.77747174895699,32.99191700602556,47.77747174895699,48.185683093143304,57.745237556129744,-10,-0.33,0.33,10,46,36,45.67,46.33,56,3.1622776601683795,3.1622776601683795,3.1622776601683795,3.1622776601683795
5,3,0.1718076000106521,q,34.0,Limited Time - 400ms,l,34.02333738860699,41.47086007521893,55.002749939821825,36.78719361160327,34.02333738860699,36.78719361160327,41.47086007521893,55.002749939821825,-10,-0.33,0.33,10,46,36,45.67,46.33,56,3.1622776601683795,3.1622776601683795,3.1622776601683795,3.1622776601683795
5,4,0.08466019999468699,p,48.8,Limited Time - 400ms,l,33.706020967493735,43.146505562891754,57.70897496856027,48.76134648709691,33.706020967493735,48.76134648709691,43.146505562891754,57.70897496856027,-10,-0.33,0.33,10,46,36,45.67,46.33,56,3.1622776601683795,3.1622776601683795,3.1622776601683795,3.1622776601683795
5,5,0.017886299989186227,p,44.6,Limited Time - 400ms,l,32.82977884579512,47.961358672532384,54.46789737517344,44.6349644855234,32.82977884579512,44.6349644855234,47.961358672532384,54.46789737517344,-10,-0.33,0.33,10,46,36,45.67,46.33,56,3.1622776601683795,3.1622776601683795,3.1622776601683795,3.1622776601683795
5,6,0.19919399998616427,p,42.6,Limited Time - 400ms,l,33.491786504883684,44.93876139103133,52.340822327446524,42.63897710250568,33.491786504883684,42.63897710250568,44.93876139103133,52.340822327446524,-10,-0.33,0.33,10,46,36,45.67,46.33,56,3.1622776601683795,3.1622776601683795,3.1622776601683795,3.1622776601683795
5,7,0.08294230001047254,p,44.0,Limited Time - 400ms,l,38.71669275318313,43.70671675423468,59.593345285691456,44.03419791810591,38.71669275318313,44.03419791810591,43.70671675423468,59.593345285691456,-10,-0.33,0.33,10,46,36,45.67,46.33,56,3.1622776601683795,3.1622776601683795,3.1622776601683795,3.1622776601683795
5,8,0.1257589000160806,p,45.6,Limited Time - 400ms,l,29.319456192620322,50.4291126424466,51.39505088453223,45.622780732237,29.319456192620322,45.622780732237,50.4291126424466,51.39505088453223,-10,-0.33,0.33,10,46,36,45.67,46.33,56,3.1622776601683795,3.1622776601683795,3.1622776601683795,3.1622776601683795
5,9,0.1432543999981135,p,48.1,Limited Time - 400ms,l,37.63071992298621,43.7327935268938,56.53352593021589,48.125231477934165,37.63071992298621,48.125231477934165,43.7327935268938,56.53352593021589,-10,-0.33,0.33,10,46,36,45.67,46.33,56,3.1622776601683795,3.1622776601683795,3.1622776601683795,3.1622776601683795
5,10,0.09292840003035963,p,46.6,Limited Time - 400ms,l,39.34939940841541,38.31081753992787,55.793398095792696,46.61665205622763,39.34939940841541,46.61665205622763,38.31081753992787,55.793398095792696,-10,-0.33,0.33,10,46,36,45.67,46.33,56,3.1622776601683795,3.1622776601683795,3.1622776601683795,3.1622776601683795
5,11,0.05387539998628199,p,47.2,Limited Time - 400ms,l,29.709603976386163,49.33347141219863,60.2020705864908,47.24453776373376,29.709603976386163,47.24453776373376,49.33347141219863,60.2020705864908,-10,-0.33,0.33,10,46,36,45.67,46.33,56,3.1622776601683795,3.1622776601683795,3.1622776601683795,3.1622776601683795
5,12,0.1652128000278026,o,54.7,Limited Time - 400ms,l,33.3921960186601,45.83908496311532,54.73495999858504,46.49426686609709,33.3921960186601,46.49426686609709,45.83908496311532,54.73495999858504,-10,-0.33,0.33,10,46,36,45.67,46.33,56,3.1622776601683795,3.1622776601683795,3.1622776601683795,3.1622776601683795
5,13,0.14688860002206638,o,60.4,Limited Time - 400ms,l,37.43391145248504,39.533097277467895,60.43942965514567,47.64738618593124,37.43391145248504,47.64738618593124,39.533097277467895,60.43942965514567,-10,-0.33,0.33,10,46,36,45.67,46.33,56,3.1622776601683795,3.1622776601683795,3.1622776601683795,3.1622776601683795
5,14,0.2114916000282392,o,58.7,Limited Time - 400ms,l,36.502121453512174,43.74871819296645,58.69625009732144,40.55740745231301,36.502121453512174,40.55740745231301,43.74871819296645,58.69625009732144,-10,-0.33,0.33,10,46,36,45.67,46.33,56,3.1622776601683795,3.1622776601683795,3.1622776601683795,3.1622776601683795
5,15,0.055186200013849884,o,55.1,Limited Time - 400ms,l,36.41094383840317,48.274868235278625,55.1358322485853,47.268337134742104,36.41094383840317,47.268337134742104,48.274868235278625,55.1358322485853,-10,-0.33,0.33,10,46,36,45.67,46.33,56,3.1622776601683795,3.1622776601683795,3.1622776601683795,3.1622776601683795
5,16,0.12126440001884475,o,53.8,Limited Time - 400ms,l,36.59752260045097,41.78187271809452,53.79755430110273,43.54273821328101,36.59752260045097,43.54273821328101,41.78187271809452,53.79755430110273,-10,-0.33,0.33,10,46,36,45.67,46.33,56,3.1622776601683795,3.1622776601683795,3.1622776601683795,3.1622776601683795
5,17,0.18128680001245812,o,54.1,Limited Time - 400ms,l,37.544223190394966,46.34944475453674,54.11219724540108,40.24743692135974,37.544223190394966,40.24743692135974,46.34944475453674,54.11219724540108,-10,-0.33,0.33,10,46,36,45.67,46.33,56,3.1622776601683795,3.1622776601683795,3.1622776601683795,3.1622776601683795
5,18,0.23487770004430786,o,57.5,Limited Time - 400ms,l,33.54328148182223,51.36312484144581,57.4922561159065,43.56192110701008,33.54328148182223,43.56192110701008,51.36312484144581,57.4922561159065,-10,-0.33,0.33,10,46,36,45.67,46.33,56,3.1622776601683795,3.1622776601683795,3.1622776601683795,3.1622776601683795
5,19,0.03342689998680726,o,62.6,Limited Time - 400ms,l,37.8830848307527,44.259020721043306,62.57600111944524,44.35913963620501,37.8830848307527,44.35913963620501,44.259020721043306,62.57600111944524,-10,-0.33,0.33,10,46,36,45.67,46.33,56,3.1622776601683795,3.1622776601683795,3.1622776601683795,3.1622776601683795
5,20,0.16407810000237077,o,63.8,Limited Time - 400ms,l,35.068167318230564,48.63357452884726,63.816878334489566,47.24525417953355,35.068167318230564,47.24525417953355,48.63357452884726,63.816878334489566,-10,-0.33,0.33,10,46,36,45.67,46.33,56,3.1622776601683795,3.1622776601683795,3.1622776601683795,3.1622776601683795
6,1,0.45026000001234934,w,39.5,Limited Time - 800ms,l,46.50225386129207,39.49390054314894,62.263276025471804,48.70845731757242,39.49390054314894,46.50225386129207,48.70845731757242,62.263276025471804,-10,-0.33,0.33,10,46,36,45.67,46.33,56,3.1622776601683795,3.1622776601683795,3.1622776601683795,3.1622776601683795
6,2,0.16109379997942597,p,48.2,Limited Time - 800ms,l,47.77747174895699,32.99191700602556,57.745237556129744,48.185683093143304,32.99191700602556,47.77747174895699,48.185683093143304,57.745237556129744,-10,-0.33,0.33,10,46,36,45.67,46.33,56,3.1622776601683795,3.1622776601683795,3.1622776601683795,3.1622776601683795
6,3,0.16888819995801896,o,55.0,Limited Time - 800ms,l,36.78719361160327,34.02333738860699,55.002749939821825,41.47086007521893,34.02333738860699,36.78719361160327,41.47086007521893,55.002749939821825,-10,-0.33,0.33,10,46,36,45.67,46.33,56,3.1622776601683795,3.1622776601683795,3.1622776601683795,3.1622776601683795
6,4,0.11559750005835667,o,57.7,Limited Time - 800ms,l,48.76134648709691,33.706020967493735,57.70897496856027,43.146505562891754,33.706020967493735,48.76134648709691,43.146505562891754,57.70897496856027,-10,-0.33,0.33,10,46,36,45.67,46.33,56,3.1622776601683795,3.1622776601683795,3.1622776601683795,3.1622776601683795
6,5,0.11037169996416196,o,54.5,Limited Time - 800ms,l,44.6349644855234,32.82977884579512,54.46789737517344,47.961358672532384,32.82977884579512,44.6349644855234,47.961358672532384,54.46789737517344,-10,-0.33,0.33,10,46,36,45.67,46.33,56,3.1622776601683795,3.1622776601683795,3.1622776601683795,3.1622776601683795
6,6,0.05919639999046922,o,52.3,Limited Time - 800ms,l,42.63897710250568,33.491786504883684,52.340822327446524,44.93876139103133,33.491786504883684,42.63897710250568,44.93876139103133,52.340822327446524,-10,-0.33,0.33,10,46,36,45.67,46.33,56,3.1622776601683795,3.1622776601683795,3.1622776601683795,3.1622776601683795
6,7,0.11530559998936951,o,59.6,Limited Time - 800ms,l,44.03419791810591,38.71669275318313,59.593345285691456,43.70671675423468,38.71669275318313,44.03419791810591,43.70671675423468,59.593345285691456,-10,-0.33,0.33,10,46,36,45.67,46.33,56,3.1622776601683795,3.1622776601683795,3.1622776601683795,3.1622776601683795
6,8,0.16446840000571683,o,51.4,Limited Time - 800ms,l,45.622780732237,29.319456192620322,51.39505088453223,50.4291126424466,29.319456192620322,45.622780732237,50.4291126424466,51.39505088453223,-10,-0.33,0.33,10,46,36,45.67,46.33,56,3.1622776601683795,3.1622776601683795,3.1622776601683795,3.1622776601683795
6,9,0.02382269996451214,o,56.5,Limited Time - 800ms,l,48.125231477934165,37.63071992298621,56.53352593021589,43.7327935268938,37.63071992298621,48.125231477934165,43.7327935268938,56.53352593021589,-10,-0.33,0.33,10,46,36,45.67,46.33,56,3.1622776601683795,3.1622776601683795,3.1622776601683795,3.1622776601683795
6,10,0.16335399996023625,o,55.8,Limited Time - 800ms,l,46.61665205622763,39.34939940841541,55.793398095792696,38.31081753992787,39.34939940841541,46.61665205622763,38.31081753992787,55.793398095792696,-10,-0.33,0.33,10,46,36,45.67,46.33,56,3.1622776601683795,3.1622776601683795,3.1622776601683795,3.1622776601683795
6,11,0.04204219998791814,o,60.2,Limited Time - 800ms,l,47.24453776373376,29.709603976386163,60.2020705864908,49.33347141219863,29.709603976386163,47.24453776373376,49.33347141219863,60.2020705864908,-10,-0.33,0.33,10,46,36,45.67,46.33,56,3.1622776601683795,3.1622776601683795,3.1622776601683795,3.1622776601683795
6,12,0.1512009000289254,p,45.8,Limited Time - 800ms,l,46.49426686609709,33.3921960186601,54.73495999858504,45.83908496311532,33.3921960186601,46.49426686609709,45.83908496311532,54.73495999858504,-10,-0.33,0.33,10,46,36,45.67,46.33,56,3.1622776601683795,3.1622776601683795,3.1622776601683795,3.1622776601683795
6,13,0.3472053000004962,o,60.4,Limited Time - 800ms,l,47.64738618593124,37.43391145248504,60.43942965514567,39.533097277467895,37.43391145248504,47.64738618593124,39.533097277467895,60.43942965514567,-10,-0.33,0.33,10,46,36,45.67,46.33,56,3.1622776601683795,3.1622776601683795,3.1622776601683795,3.1622776601683795
6,14,0.0955172999529168,o,58.7,Limited Time - 800ms,l,40.55740745231301,36.502121453512174,58.69625009732144,43.74871819296645,36.502121453512174,40.55740745231301,43.74871819296645,58.69625009732144,-10,-0.33,0.33,10,46,36,45.67,46.33,56,3.1622776601683795,3.1622776601683795,3.1622776601683795,3.1622776601683795
6,15,0.19578359997831285,o,55.1,Limited Time - 800ms,l,47.268337134742104,36.41094383840317,55.1358322485853,48.274868235278625,36.41094383840317,47.268337134742104,48.274868235278625,55.1358322485853,-10,-0.33,0.33,10,46,36,45.67,46.33,56,3.1622776601683795,3.1622776601683795,3.1622776601683795,3.1622776601683795
6,16,0.08526720001827925,o,53.8,Limited Time - 800ms,l,43.54273821328101,36.59752260045097,53.79755430110273,41.78187271809452,36.59752260045097,43.54273821328101,41.78187271809452,53.79755430110273,-10,-0.33,0.33,10,46,36,45.67,46.33,56,3.1622776601683795,3.1622776601683795,3.1622776601683795,3.1622776601683795
6,17,0.15141300001414493,o,54.1,Limited Time - 800ms,l,40.24743692135974,37.544223190394966,54.11219724540108,46.34944475453674,37.544223190394966,40.24743692135974,46.34944475453674,54.11219724540108,-10,-0.33,0.33,10,46,36,45.67,46.33,56,3.1622776601683795,3.1622776601683795,3.1622776601683795,3.1622776601683795
6,18,0.05154389998642728,o,57.5,Limited Time - 800ms,l,43.56192110701008,33.54328148182223,57.4922561159065,51.36312484144581,33.54328148182223,43.56192110701008,51.36312484144581,57.4922561159065,-10,-0.33,0.33,10,46,36,45.67,46.33,56,3.1622776601683795,3.1622776601683795,3.1622776601683795,3.1622776601683795
6,19,0.2649754000012763,o,62.6,Limited Time - 800ms,l,44.35913963620501,37.8830848307527,62.57600111944524,44.259020721043306,37.8830848307527,44.35913963620501,44.259020721043306,62.57600111944524,-10,-0.33,0.33,10,46,36,45.67,46.33,56,3.1622776601683795,3.1622776601683795,3.1622776601683795,3.1622776601683795
6,20,0.13367020001169294,o,63.8,Limited Time - 800ms,l,47.24525417953355,35.068167318230564,63.816878334489566,48.63357452884726,35.068167318230564,47.24525417953355,48.63357452884726,63.816878334489566,-10,-0.33,0.33,10,46,36,45.67,46.33,56,3.1622776601683795,3.1622776601683795,3.1622776601683795,3.1622776601683795
7,1,0.3843042000080459,o,50.1,Unlimited Time,e,39.88479265411856,42.12125633343295,50.09286748931431,53.36800040486436,50.09286748931431,42.12125633343295,53.36800040486436,39.88479265411856,0,0,0,0,46,46,46,46,46,3.1622776601683795,6.324555320336759,8.366600265340756,10
7,2,0.1132396999746561,o,48.5,Unlimited Time,e,36.258308650632216,59.22887299793425,48.465481130747236,37.88980200074037,48.465481130747236,59.22887299793425,37.88980200074037,36.258308650632216,0,0,0,0,46,46,46,46,46,3.1622776601683795,6.324555320336759,8.366600265340756,10
7,3,0.17284479999216273,o,46.4,Unlimited Time,e,44.271339745506715,50.68882136789704,46.37615978176008,47.96534141194727,46.37615978176008,50.68882136789704,47.96534141194727,44.271339745506715,0,0,0,0,46,46,46,46,46,3.1622776601683795,6.324555320336759,8.366600265340756,10
7,4,0.14842349995160475,o,46.2,Unlimited Time,e,29.90286814325359,56.88188022855612,46.20982196918158,44.77212821972901,46.20982196918158,56.88188022855612,44.77212821972901,29.90286814325359,0,0,0,0,46,46,46,46,46,3.1622776601683795,6.324555320336759,8.366600265340756,10
7,5,0.11648869997588918,o,46.9,Unlimited Time,e,46.50012339135648,37.5091200475058,46.86553450285744,42.337216817636815,46.86553450285744,37.5091200475058,42.337216817636815,46.50012339135648,0,0,0,0,46,46,46,46,46,3.1622776601683795,6.324555320336759,8.366600265340756,10
7,6,0.08357210003305227,o,46.3,Unlimited Time,e,37.287329141081685,54.20581534871451,46.26040138615086,41.73156142391939,46.26040138615086,54.20581534871451,41.73156142391939,37.287329141081685,0,0,0,0,46,46,46,46,46,3.1622776601683795,6.324555320336759,8.366600265340756,10
7,7,0.0716396999778226,p,42.5,Unlimited Time,e,49.943321576719924,46.81778782648364,45.36356585298304,42.46057555767461,45.36356585298304,46.81778782648364,42.46057555767461,49.943321576719924,0,0,0,0,46,46,46,46,46,3.1622776601683795,6.324555320336759,8.366600265340756,10
7,8,0.17855409998446703,p,44.1,Unlimited Time,e,40.636801499791346,54.61392783681531,44.674240490622864,44.06014012567813,44.674240490622864,54.61392783681531,44.06014012567813,40.636801499791346,0,0,0,0,46,46,46,46,46,3.1622776601683795,6.324555320336759,8.366600265340756,10
7,9,0.004034300043713301,p,39.3,Unlimited Time,e,55.48725662189487,45.32811852021248,42.88221654546259,39.290959131215,42.88221654546259,45.32811852021248,39.290959131215,55.48725662189487,0,0,0,0,46,46,46,46,46,3.1622776601683795,6.324555320336759,8.366600265340756,10
7,10,0.15748739999253303,q,49.3,Unlimited Time,e,49.2853751996048,45.75846394108153,42.88401125560382,41.46169868302569,42.88401125560382,45.75846394108153,41.46169868302569,49.2853751996048,0,0,0,0,46,46,46,46,46,3.1622776601683795,6.324555320336759,8.366600265340756,10
7,11,0.047407700039912015,w,43.9,Unlimited Time,e,36.691247046565955,43.86203777009883,50.21217279202632,49.81448893403865,50.21217279202632,43.86203777009883,49.81448893403865,36.691247046565955,0,0,0,0,46,46,46,46,46,3.1622776601683795,6.324555320336759,8.366600265340756,10
7,12,0.07206069998210296,w,39.1,Unlimited Time,e,48.10060523094703,39.14277514518131,45.73326746226756,31.574186671161407,45.73326746226756,39.14277514518131,31.574186671161407,48.10060523094703,0,0,0,0,46,46,46,46,46,3.1622776601683795,6.324555320336759,8.366600265340756,10
7,13,0.07078980002552271,w,43.2,Unlimited Time,e,35.58815893814712,43.2326267751295,41.964358611659335,39.541683543660184,41.964358611659335,43.2326267751295,39.541683543660184,35.58815893814712,0,0,0,0,46,46,46,46,46,3.1622776601683795,6.324555320336759,8.366600265340756,10
7,14,0.061672700045164675,o,46.9,Unlimited Time,e,45.237630355432735,37.917289699364346,46.854549583196686,53.47642196457019,46.854549583196686,37.917289699364346,53.47642196457019,45.237630355432735,0,0,0,0,46,46,46,46,46,3.1622776601683795,6.324555320336759,8.366600265340756,10
7,15,0.0004962999955751002,o,45.9,Unlimited Time,e,52.60417185869883,52.161185486852105,45.92555417216419,44.5199564136387,45.92555417216419,52.161185486852105,44.5199564136387,52.60417185869883,0,0,0,0,46,46,46,46,46,3.1622776601683795,6.324555320336759,8.366600265340756,10
7,16,0.06858169997576624,o,41.5,Unlimited Time,e,46.50879044035791,44.09277851651553,41.528599123262524,42.97152358078307,41.528599123262524,44.09277851651553,42.97152358078307,46.50879044035791,0,0,0,0,46,46,46,46,46,3.1622776601683795,6.324555320336759,8.366600265340756,10
7,17,0.15177110000513494,o,43.4,Unlimited Time,e,39.85960123239285,47.88193004149338,43.419894070846865,40.33229861881548,43.419894070846865,47.88193004149338,40.33229861881548,39.85960123239285,0,0,0,0,46,46,46,46,46,3.1622776601683795,6.324555320336759,8.366600265340756,10
7,18,0.14546100003644824,o,46.5,Unlimited Time,e,48.862109390629044,54.71306596260065,46.526364136955856,29.592579237349547,46.526364136955856,54.71306596260065,29.592579237349547,48.862109390629044,0,0,0,0,46,46,46,46,46,3.1622776601683795,6.324555320336759,8.366600265340756,10
7,19,0.15076370001770556,o,49.9,Unlimited Time,e,38.63614582518775,47.63913155912688,49.89790850065246,43.15946387867493,49.89790850065246,47.63913155912688,43.15946387867493,38.63614582518775,0,0,0,0,46,46,46,46,46,3.1622776601683795,6.324555320336759,8.366600265340756,10
7,20,0.16499099996872246,o,40.7,Unlimited Time,e,58.83611029751961,48.20300816255313,40.70222285721744,35.544964256022155,40.70222285721744,48.20300816255313,35.544964256022155,58.83611029751961,0,0,0,0,46,46,46,46,46,3.1622776601683795,6.324555320336759,8.366600265340756,10
8,1,0.23533520003547892,w,39.9,Limited Time - 400ms,e,50.09286748931431,39.88479265411856,53.36800040486436,42.12125633343295,50.09286748931431,42.12125633343295,53.36800040486436,39.88479265411856,0,0,0,0,46,46,46,46,46,3.1622776601683795,6.324555320336759,8.366600265340756,10
8,2,0.19064220000291243,q,48.5,Limited Time - 400ms,e,48.465481130747236,36.258308650632216,37.88980200074037,59.22887299793425,48.465481130747236,59.22887299793425,37.88980200074037,36.258308650632216,0,0,0,0,46,46,46,46,46,3.1622776601683795,6.324555320336759,8.366600265340756,10
8,3,0.24168210005154833,p,50.7,Limited Time - 400ms,e,46.37615978176008,44.271339745506715,47.96534141194727,50.68882136789704,46.37615978176008,50.68882136789704,47.96534141194727,44.271339745506715,0,0,0,0,46,46,46,46,46,3.1622776601683795,6.324555320336759,8.366600265340756,10
8,4,0.019825599971227348,p,56.9,Limited Time - 400ms,e,46.20982196918158,29.90286814325359,44.77212821972901,56.88188022855612,46.20982196918158,56.88188022855612,44.77212821972901,29.90286814325359,0,0,0,0,46,46,46,46,46,3.1622776601683795,6.324555320336759,8.366600265340756,10
8,5,0.19520439999178052,p,37.5,Limited Time - 400ms,e,46.86553450285744,46.50012339135648,42.337216817636815,37.5091200475058,46.86553450285744,37.5091200475058,42.337216817636815,46.50012339135648,0,0,0,0,46,46,46,46,46,3.1622776601683795,6.324555320336759,8.366600265340756,10
8,6,0.14660670002922416,o,41.7,Limited Time - 400ms,e,46.26040138615086,37.287329141081685,41.73156142391939,54.20581534871451,46.26040138615086,54.20581534871451,41.73156142391939,37.287329141081685,0,0,0,0,46,46,46,46,46,3.1622776601683795,6.324555320336759,8.366600265340756,10
8,7,0.06307380000362173,o,42.5,Limited Time - 400ms,e,45.36356585298304,49.943321576719924,42.46057555767461,46.81778782648364,45.36356585298304,46.81778782648364,42.46057555767461,49.943321576719924,0,0,0,0,46,46,46,46,46,3.1622776601683795,6.324555320336759,8.366600265340756,10
8,8,0.1564224999747239,o,44.1,Limited Time - 400ms,e,44.674240490622864,40.636801499791346,44.06014012567813,54.61392783681531,44.674240490622864,54.61392783681531,44.06014012567813,40.636801499791346,0,0,0,0,46,46,46,46,46,3.1622776601683795,6.324555320336759,8.366600265340756,10
8,9,0.1509817999904044,o,39.3,Limited Time - 400ms,e,42.88221654546259,55.48725662189487,39.290959131215,45.32811852021248,42.88221654546259,45.32811852021248,39.290959131215,55.48725662189487,0,0,0,0,46,46,46,46,46,3.1622776601683795,6.324555320336759,8.366600265340756,10
8,10,0.222111799987033,o,41.5,Limited Time - 400ms,e,42.88401125560382,49.2853751996048,41.46169868302569,45.75846394108153,42.88401125560382,45.75846394108153,41.46169868302569,49.2853751996048,0,0,0,0,46,46,46,46,46,3.1622776601683795,6.324555320336759,8.366600265340756,10
8,11,,,0.0,Limited Time - 400ms,e,50.21217279202632,36.691247046565955,49.81448893403865,43.86203777009883,50.21217279202632,43.86203777009883,49.81448893403865,36.691247046565955,0,0,0,0,46,46,46,46,46,3.1622776601683795,6.324555320336759,8.366600265340756,10
8,12,0.011321700003463775,p,39.1,Limited Time - 400ms,e,45.73326746226756,48.10060523094703,31.574186671161407,39.14277514518131,45.73326746226756,39.14277514518131,31.574186671161407,48.10060523094703,0,0,0,0,46,46,46,46,46,3.1622776601683795,6.324555320336759,8.366600265340756,10
8,13,0.009496200014837086,q,42.0,Limited Time - 400ms,e,41.964358611659335,35.58815893814712,39.541683543660184,43.2326267751295,41.964358611659335,43.2326267751295,39.541683543660184,35.58815893814712,0,0,0,0,46,46,46,46,46,3.1622776601683795,6.324555320336759,8.366600265340756,10
8,14,0.23351059999549761,w,45.2,Limited Time - 400ms,e,46.854549583196686,45.237630355432735,53.47642196457019,37.917289699364346,46.854549583196686,37.917289699364346,53.47642196457019,45.237630355432735,0,0,0,0,46,46,46,46,46,3.1622776601683795,6.324555320336759,8.366600265340756,10
8,15,0.08007490000454709,w,52.6,Limited Time - 400ms,e,45.92555417216419,52.60417185869883,44.5199564136387,52.161185486852105,45.92555417216419,52.161185486852105,44.5199564136387,52.60417185869883,0,0,0,0,46,46,46,46,46,3.1622776601683795,6.324555320336759,8.366600265340756,10
8,16,0.015944199985824525,w,46.5,Limited Time - 400ms,e,41.528599123262524,46.50879044035791,42.97152358078307,44.09277851651553,41.528599123262524,44.09277851651553,42.97152358078307,46.50879044035791,0,0,0,0,46,46,46,46,46,3.1622776601683795,6.324555320336759,8.366600265340756,10
8,17,0.22012270003324375,w,39.9,Limited Time - 400ms,e,43.419894070846865,39.85960123239285,40.33229861881548,47.88193004149338,43.419894070846865,47.88193004149338,40.33229861881548,39.85960123239285,0,0,0,0,46,46,46,46,46,3.1622776601683795,6.324555320336759,8.366600265340756,10
8,18,0.025674299977254122,w,48.9,Limited Time - 400ms,e,46.526364136955856,48.862109390629044,29.592579237349547,54.71306596260065,46.526364136955856,54.71306596260065,29.592579237349547,48.862109390629044,0,0,0,0,46,46,46,46,46,3.1622776601683795,6.324555320336759,8.366600265340756,10
8,19,0.06352259998675436,w,38.6,Limited Time - 400ms,e,49.89790850065246,38.63614582518775,43.15946387867493,47.63913155912688,49.89790850065246,47.63913155912688,43.15946387867493,38.63614582518775,0,0,0,0,46,46,46,46,46,3.1622776601683795,6.324555320336759,8.366600265340756,10
8,20,0.13862679997691885,w,58.8,Limited Time - 400ms,e,40.70222285721744,58.83611029751961,35.544964256022155,48.20300816255313,40.70222285721744,48.20300816255313,35.544964256022155,58.83611029751961,0,0,0,0,46,46,46,46,46,3.1622776601683795,6.324555320336759,8.366600265340756,10
9,1,0.30510230001527816,o,54.9,Limited Time - 800ms,i,51.45765211880461,48.51193917285531,54.94600126431474,32.422228953864675,32.422228953864675,48.51193917285531,54.94600126431474,51.45765211880461,-10,-10,10,10,46,36,36,56,56,3.1622776601683795,10,3.1622776601683795,10
9,2,0.06972410000162199,o,54.6,Limited Time - 800ms,i,62.80929174108067,37.45796566745072,54.55763969056881,36.204291200594774,36.204291200594774,37.45796566745072,54.55763969056881,62.80929174108067,-10,-10,10,10,46,36,36,56,56,3.1622776601683795,10,3.1622776601683795,10
9,3,0.08162240003002807,o,51.6,Limited Time - 800ms,i,65.55672899636886,31.388843575262065,51.58006110719999,32.5619382096162,32.5619382096162,31.388843575262065,51.58006110719999,65.55672899636886,-10,-10,10,10,46,36,36,56,56,3.1622776601683795,10,3.1622776601683795,10
9,4,0.142664999992121,o,57.3,Limited Time - 800ms,i,50.159422182349495,46.934933567646006,57.34801485508071,39.479168265372195,39.479168265372195,46.934933567646006,57.34801485508071,50.159422182349495,-10,-10,10,10,46,36,36,56,56,3.1622776601683795,10,3.1622776601683795,10
9,5,0.17019999999320135,o,52.0,Limited Time - 800ms,i,77.1263189856426,27.908477676047763,51.9538256976968,37.81210912859118,37.81210912859118,27.908477676047763,51.9538256976968,77.1263189856426,-10,-10,10,10,46,36,36,56,56,3.1622776601683795,10,3.1622776601683795,10
9,6,0.15532980003627017,o,50.9,Limited Time - 800ms,i,41.7340942707739,30.075063445892248,50.92482033814202,36.95129566403464,36.95129566403464,30.075063445892248,50.92482033814202,41.7340942707739,-10,-10,10,10,46,36,36,56,56,3.1622776601683795,10,3.1622776601683795,10
9,7,0.20893660001456738,o,53.8,Limited Time - 800ms,i,46.168429434134005,35.281251783984516,53.81363778690966,33.26185772808712,33.26185772808712,35.281251783984516,53.81363778690966,46.168429434134005,-10,-10,10,10,46,36,36,56,56,3.1622776601683795,10,3.1622776601683795,10
9,8,0.19694840000011027,o,53.6,Limited Time - 800ms,i,48.03092485992059,44.969852519093834,53.595316132630124,37.44206778532072,37.44206778532072,44.969852519093834,53.595316132630124,48.03092485992059,-10,-10,10,10,46,36,36,56,56,3.1622776601683795,10,3.1622776601683795,10
9,9,0.19320679997326806,o,56.2,Limited Time - 800ms,i,58.13688100393792,46.04186237573596,56.16040481611464,34.442292478159665,34.442292478159665,46.04186237573596,56.16040481611464,58.13688100393792,-10,-10,10,10,46,36,36,56,56,3.1622776601683795,10,3.1622776601683795,10
9,10,0.22761599998921156,o,60.9,Limited Time - 800ms,i,66.51486723883026,15.189282773191362,60.93468360686296,37.214571529485596,37.214571529485596,15.189282773191362,60.93468360686296,66.51486723883026,-10,-10,10,10,46,36,36,56,56,3.1622776601683795,10,3.1622776601683795,10
9,11,0.1398611000040546,o,55.6,Limited Time - 800ms,i,52.890722075073256,46.8390503965219,55.631754457432336,32.47120749484593,32.47120749484593,46.8390503965219,55.631754457432336,52.890722075073256,-10,-10,10,10,46,36,36,56,56,3.1622776601683795,10,3.1622776601683795,10
9,12,0.13212969998130575,o,56.2,Limited Time - 800ms,i,52.687647888073805,19.263675244873326,56.168894795754895,35.847826631143676,35.847826631143676,19.263675244873326,56.168894795754895,52.687647888073805,-10,-10,10,10,46,36,36,56,56,3.1622776601683795,10,3.1622776601683795,10
9,13,0.0884751999983564,o,48.7,Limited Time - 800ms,i,44.34199132564321,34.803429604193894,48.66016756089972,33.92263732597417,33.92263732597417,34.803429604193894,48.66016756089972,44.34199132564321,-10,-10,10,10,46,36,36,56,56,3.1622776601683795,10,3.1622776601683795,10
9,14,0.15355789999011904,o,51.5,Limited Time - 800ms,i,63.397555317562066,26.187381260349543,51.53399112658039,37.73970067906487,37.73970067906487,26.187381260349543,51.53399112658039,63.397555317562066,-10,-10,10,10,46,36,36,56,56,3.1622776601683795,10,3.1622776601683795,10
9,15,0.12135420000413433,o,54.8,Limited Time - 800ms,i,53.39397912440499,36.38491102230671,54.836573702498285,38.4600140908135,38.4600140908135,36.38491102230671,54.836573702498285,53.39397912440499,-10,-10,10,10,46,36,36,56,56,3.1622776601683795,10,3.1622776601683795,10
9,16,0.012545899953693151,o,48.2,Limited Time - 800ms,i,59.72077468389769,38.0500554778106,48.23754371178572,37.95429613797934,37.95429613797934,38.0500554778106,48.23754371178572,59.72077468389769,-10,-10,10,10,46,36,36,56,56,3.1622776601683795,10,3.1622776601683795,10
9,17,0.1056325999670662,o,57.7,Limited Time - 800ms,i,45.90245568289512,45.24700664812581,57.67289700750999,44.04673730020754,44.04673730020754,45.24700664812581,57.67289700750999,45.90245568289512,-10,-10,10,10,46,36,36,56,56,3.1622776601683795,10,3.1622776601683795,10
9,18,0.1311790999607183,o,60.4,Limited Time - 800ms,i,63.43229927914126,23.1435261796109,60.391004273568875,33.324408642217804,33.324408642217804,23.1435261796109,60.391004273568875,63.43229927914126,-10,-10,10,10,46,36,36,56,56,3.1622776601683795,10,3.1622776601683795,10
9,19,0.019279100000858307,o,54.0,Limited Time - 800ms,i,64.47865183209906,27.755899906867537,53.990990795170866,34.8839612380563,34.8839612380563,27.755899906867537,53.990990795170866,64.47865183209906,-10,-10,10,10,46,36,36,56,56,3.1622776601683795,10,3.1622776601683795,10
9,20,0.17486379999900237,o,49.2,Limited Time - 800ms,i,58.05790809637056,37.06465180304162,49.20592825057065,34.692369012401386,34.692369012401386,37.06465180304162,49.20592825057065,58.05790809637056,-10,-10,10,10,46,36,36,56,56,3.1622776601683795,10,3.1622776601683795,10
10,1,0.29192370001692325,o,39.5,Unlimited Time,l,46.50225386129207,48.70845731757242,39.49390054314894,62.263276025471804,39.49390054314894,46.50225386129207,48.70845731757242,62.263276025471804,-10,-0.33,0.33,10,46,36,45.67,46.33,56,3.1622776601683795,3.1622776601683795,3.1622776601683795,3.1622776601683795
10,2,0.20201000000815839,o,33.0,Unlimited Time,l,47.77747174895699,48.185683093143304,32.99191700602556,57.745237556129744,32.99191700602556,47.77747174895699,48.185683093143304,57.745237556129744,-10,-0.33,0.33,10,46,36,45.67,46.33,56,3.1622776601683795,3.1622776601683795,3.1622776601683795,3.1622776601683795
10,3,0.18180410005152225,o,34.0,Unlimited Time,l,36.78719361160327,41.47086007521893,34.02333738860699,55.002749939821825,34.02333738860699,36.78719361160327,41.47086007521893,55.002749939821825,-10,-0.33,0.33,10,46,36,45.67,46.33,56,3.1622776601683795,3.1622776601683795,3.1622776601683795,3.1622776601683795
10,4,0.4074920000275597,w,43.1,Unlimited Time,l,48.76134648709691,43.146505562891754,33.706020967493735,57.70897496856027,33.706020967493735,48.76134648709691,43.146505562891754,57.70897496856027,-10,-0.33,0.33,10,46,36,45.67,46.33,56,3.1622776601683795,3.1622776601683795,3.1622776601683795,3.1622776601683795
10,5,0.057263099995907396,w,48.0,Unlimited Time,l,44.6349644855234,47.961358672532384,32.82977884579512,54.46789737517344,32.82977884579512,44.6349644855234,47.961358672532384,54.46789737517344,-10,-0.33,0.33,10,46,36,45.67,46.33,56,3.1622776601683795,3.1622776601683795,3.1622776601683795,3.1622776601683795
10,6,0.17741190001834184,w,44.9,Unlimited Time,l,42.63897710250568,44.93876139103133,33.491786504883684,52.340822327446524,33.491786504883684,42.63897710250568,44.93876139103133,52.340822327446524,-10,-0.33,0.33,10,46,36,45.67,46.33,56,3.1622776601683795,3.1622776601683795,3.1622776601683795,3.1622776601683795
10,7,0.062140900001395494,w,43.7,Unlimited Time,l,44.03419791810591,43.70671675423468,38.71669275318313,59.593345285691456,38.71669275318313,44.03419791810591,43.70671675423468,59.593345285691456,-10,-0.33,0.33,10,46,36,45.67,46.33,56,3.1622776601683795,3.1622776601683795,3.1622776601683795,3.1622776601683795
10,8,0.0900839000241831,w,50.4,Unlimited Time,l,45.622780732237,50.4291126424466,29.319456192620322,51.39505088453223,29.319456192620322,45.622780732237,50.4291126424466,51.39505088453223,-10,-0.33,0.33,10,46,36,45.67,46.33,56,3.1622776601683795,3.1622776601683795,3.1622776601683795,3.1622776601683795
10,9,0.07163830002536997,w,43.7,Unlimited Time,l,48.125231477934165,43.7327935268938,37.63071992298621,56.53352593021589,37.63071992298621,48.125231477934165,43.7327935268938,56.53352593021589,-10,-0.33,0.33,10,46,36,45.67,46.33,56,3.1622776601683795,3.1622776601683795,3.1622776601683795,3.1622776601683795
10,10,0.02286389999790117,w,38.3,Unlimited Time,l,46.61665205622763,38.31081753992787,39.34939940841541,55.793398095792696,39.34939940841541,46.61665205622763,38.31081753992787,55.793398095792696,-10,-0.33,0.33,10,46,36,45.67,46.33,56,3.1622776601683795,3.1622776601683795,3.1622776601683795,3.1622776601683795
10,11,0.1425868999795057,w,49.3,Unlimited Time,l,47.24453776373376,49.33347141219863,29.709603976386163,60.2020705864908,29.709603976386163,47.24453776373376,49.33347141219863,60.2020705864908,-10,-0.33,0.33,10,46,36,45.67,46.33,56,3.1622776601683795,3.1622776601683795,3.1622776601683795,3.1622776601683795
10,12,0.11712939996505156,q,46.5,Unlimited Time,l,46.49426686609709,45.83908496311532,33.3921960186601,54.73495999858504,33.3921960186601,46.49426686609709,45.83908496311532,54.73495999858504,-10,-0.33,0.33,10,46,36,45.67,46.33,56,3.1622776601683795,3.1622776601683795,3.1622776601683795,3.1622776601683795
10,13,0.3913042999920435,p,60.4,Unlimited Time,l,47.64738618593124,39.533097277467895,37.43391145248504,60.43942965514567,37.43391145248504,47.64738618593124,39.533097277467895,60.43942965514567,-10,-0.33,0.33,10,46,36,45.67,46.33,56,3.1622776601683795,3.1622776601683795,3.1622776601683795,3.1622776601683795
10,14,0.16024599998490885,p,58.7,Unlimited Time,l,40.55740745231301,43.74871819296645,36.502121453512174,58.69625009732144,36.502121453512174,40.55740745231301,43.74871819296645,58.69625009732144,-10,-0.33,0.33,10,46,36,45.67,46.33,56,3.1622776601683795,3.1622776601683795,3.1622776601683795,3.1622776601683795
10,15,0.20813709998037666,p,55.1,Unlimited Time,l,47.268337134742104,48.274868235278625,36.41094383840317,55.1358322485853,36.41094383840317,47.268337134742104,48.274868235278625,55.1358322485853,-10,-0.33,0.33,10,46,36,45.67,46.33,56,3.1622776601683795,3.1622776601683795,3.1622776601683795,3.1622776601683795
10,16,0.07017189997714013,p,53.8,Unlimited Time,l,43.54273821328101,41.78187271809452,36.59752260045097,53.79755430110273,36.59752260045097,43.54273821328101,41.78187271809452,53.79755430110273,-10,-0.33,0.33,10,46,36,45.67,46.33,56,3.1622776601683795,3.1622776601683795,3.1622776601683795,3.1622776601683795
10,17,0.19094569998560473,p,54.1,Unlimited Time,l,40.24743692135974,46.34944475453674,37.544223190394966,54.11219724540108,37.544223190394966,40.24743692135974,46.34944475453674,54.11219724540108,-10,-0.33,0.33,10,46,36,45.67,46.33,56,3.1622776601683795,3.1622776601683795,3.1622776601683795,3.1622776601683795
10,18,0.2253414000151679,p,57.5,Unlimited Time,l,43.56192110701008,51.36312484144581,33.54328148182223,57.4922561159065,33.54328148182223,43.56192110701008,51.36312484144581,57.4922561159065,-10,-0.33,0.33,10,46,36,45.67,46.33,56,3.1622776601683795,3.1622776601683795,3.1622776601683795,3.1622776601683795
10,19,0.15596830000868067,p,62.6,Unlimited Time,l,44.35913963620501,44.259020721043306,37.8830848307527,62.57600111944524,37.8830848307527,44.35913963620501,44.259020721043306,62.57600111944524,-10,-0.33,0.33,10,46,36,45.67,46.33,56,3.1622776601683795,3.1622776601683795,3.1622776601683795,3.1622776601683795
10,20,0.17853599996306002,p,63.8,Unlimited Time,l,47.24525417953355,48.63357452884726,35.068167318230564,63.816878334489566,35.068167318230564,47.24525417953355,48.63357452884726,63.816878334489566,-10,-0.33,0.33,10,46,36,45.67,46.33,56,3.1622776601683795,3.1622776601683795,3.1622776601683795,3.1622776601683795
11,1,,,0.0,Limited Time - 400ms,e,53.36800040486436,39.88479265411856,50.09286748931431,42.12125633343295,50.09286748931431,42.12125633343295,53.36800040486436,39.88479265411856,0,0,0,0,46,46,46,46,46,3.1622776601683795,6.324555320336759,8.366600265340756,10
11,2,0.02560680004535243,p,59.2,Limited Time - 400ms,e,37.88980200074037,36.258308650632216,48.465481130747236,59.22887299793425,48.465481130747236,59.22887299793425,37.88980200074037,36.258308650632216,0,0,0,0,46,46,46,46,46,3.1622776601683795,6.324555320336759,8.366600265340756,10
11,3,0.19859250000445172,o,46.4,Limited Time - 400ms,e,47.96534141194727,44.271339745506715,46.37615978176008,50.68882136789704,46.37615978176008,50.68882136789704,47.96534141194727,44.271339745506715,0,0,0,0,46,46,46,46,46,3.1622776601683795,6.324555320336759,8.366600265340756,10
11,4,0.02724080003099516,o,46.2,Limited Time - 400ms,e,44.77212821972901,29.90286814325359,46.20982196918158,56.88188022855612,46.20982196918158,56.88188022855612,44.77212821972901,29.90286814325359,0,0,0,0,46,46,46,46,46,3.1622776601683795,6.324555320336759,8.366600265340756,10
11,5,0.015264599991496652,p,37.5,Limited Time - 400ms,e,42.337216817636815,46.50012339135648,46.86553450285744,37.5091200475058,46.86553450285744,37.5091200475058,42.337216817636815,46.50012339135648,0,0,0,0,46,46,46,46,46,3.1622776601683795,6.324555320336759,8.366600265340756,10
11,6,0.1646766000194475,p,54.2,Limited Time - 400ms,e,41.73156142391939,37.287329141081685,46.26040138615086,54.20581534871451,46.26040138615086,54.20581534871451,41.73156142391939,37.287329141081685,0,0,0,0,46,46,46,46,46,3.1622776601683795,6.324555320336759,8.366600265340756,10
11,7,0.1062472999910824,p,46.8,Limited Time - 400ms,e,42.46057555767461,49.943321576719924,45.36356585298304,46.81778782648364,45.36356585298304,46.81778782648364,42.46057555767461,49.943321576719924,0,0,0,0,46,46,46,46,46,3.1622776601683795,6.324555320336759,8.366600265340756,10
11,8,0.0750283999950625,p,54.6,Limited Time - 400ms,e,44.06014012567813,40.636801499791346,44.674240490622864,54.61392783681531,44.674240490622864,54.61392783681531,44.06014012567813,40.636801499791346,0,0,0,0,46,46,46,46,46,3.1622776601683795,6.324555320336759,8.366600265340756,10
11,9,0.0347440000041388,p,45.3,Limited Time - 400ms,e,39.290959131215,55.48725662189487,42.88221654546259,45.32811852021248,42.88221654546259,45.32811852021248,39.290959131215,55.48725662189487,0,0,0,0,46,46,46,46,46,3.1622776601683795,6.324555320336759,8.366600265340756,10
11,10,0.2718102000071667,p,45.8,Limited Time - 400ms,e,41.46169868302569,49.2853751996048,42.88401125560382,45.75846394108153,42.88401125560382,45.75846394108153,41.46169868302569,49.2853751996048,0,0,0,0,46,46,46,46,46,3.1622776601683795,6.324555320336759,8.366600265340756,10
11,11,0.02778330002911389,p,43.9,Limited Time - 400ms,e,49.81448893403865,36.691247046565955,50.21217279202632,43.86203777009883,50.21217279202632,43.86203777009883,49.81448893403865,36.691247046565955,0,0,0,0,46,46,46,46,46,3.1622776601683795,6.324555320336759,8.366600265340756,10
11,12,0.1775760999880731,w,48.1,Limited Time - 400ms,e,31.574186671161407,48.10060523094703,45.73326746226756,39.14277514518131,45.73326746226756,39.14277514518131,31.574186671161407,48.10060523094703,0,0,0,0,46,46,46,46,46,3.1622776601683795,6.324555320336759,8.366600265340756,10
11,13,0.06305089994566515,o,42.0,Limited Time - 400ms,e,39.541683543660184,35.58815893814712,41.964358611659335,43.2326267751295,41.964358611659335,43.2326267751295,39.541683543660184,35.58815893814712,0,0,0,0,46,46,46,46,46,3.1622776601683795,6.324555320336759,8.366600265340756,10
11,14,0.0783967999741435,o,46.9,Limited Time - 400ms,e,53.47642196457019,45.237630355432735,46.854549583196686,37.917289699364346,46.854549583196686,37.917289699364346,53.47642196457019,45.237630355432735,0,0,0,0,46,46,46,46,46,3.1622776601683795,6.324555320336759,8.366600265340756,10
11,15,0.12764130003051832,o,45.9,Limited Time - 400ms,e,44.5199564136387,52.60417185869883,45.92555417216419,52.161185486852105,45.92555417216419,52.161185486852105,44.5199564136387,52.60417185869883,0,0,0,0,46,46,46,46,46,3.1622776601683795,6.324555320336759,8.366600265340756,10
11,16,0.13488879997748882,o,41.5,Limited Time - 400ms,e,42.97152358078307,46.50879044035791,41.528599123262524,44.09277851651553,41.528599123262524,44.09277851651553,42.97152358078307,46.50879044035791,0,0,0,0,46,46,46,46,46,3.1622776601683795,6.324555320336759,8.366600265340756,10
11,17,0.16062879998935387,o,43.4,Limited Time - 400ms,e,40.33229861881548,39.85960123239285,43.419894070846865,47.88193004149338,43.419894070846865,47.88193004149338,40.33229861881548,39.85960123239285,0,0,0,0,46,46,46,46,46,3.1622776601683795,6.324555320336759,8.366600265340756,10
11,18,0.22384429996600375,o,46.5,Limited Time - 400ms,e,29.592579237349547,48.862109390629044,46.526364136955856,54.71306596260065,46.526364136955856,54.71306596260065,29.592579237349547,48.862109390629044,0,0,0,0,46,46,46,46,46,3.1622776601683795,6.324555320336759,8.366600265340756,10
11,19,0.16062999999849126,o,49.9,Limited Time - 400ms,e,43.15946387867493,38.63614582518775,49.89790850065246,47.63913155912688,49.89790850065246,47.63913155912688,43.15946387867493,38.63614582518775,0,0,0,0,46,46,46,46,46,3.1622776601683795,6.324555320336759,8.366600265340756,10
11,20,0.15346220001811162,o,40.7,Limited Time - 400ms,e,35.544964256022155,58.83611029751961,40.70222285721744,48.20300816255313,40.70222285721744,48.20300816255313,35.544964256022155,58.83611029751961,0,0,0,0,46,46,46,46,46,3.1622776601683795,6.324555320336759,8.366600265340756,10
12,1,0.5427086999989115,o,48.7,Limited Time - 800ms,l,62.263276025471804,39.49390054314894,48.70845731757242,46.50225386129207,39.49390054314894,46.50225386129207,48.70845731757242,62.263276025471804,-10,-0.33,0.33,10,46,36,45.67,46.33,56,3.1622776601683795,3.1622776601683795,3.1622776601683795,3.1622776601683795
12,2,0.1092320999596268,o,48.2,Limited Time - 800ms,l,57.745237556129744,32.99191700602556,48.185683093143304,47.77747174895699,32.99191700602556,47.77747174895699,48.185683093143304,57.745237556129744,-10,-0.33,0.33,10,46,36,45.67,46.33,56,3.1622776601683795,3.1622776601683795,3.1622776601683795,3.1622776601683795
12,3,0.19760580000001937,o,41.5,Limited Time - 800ms,l,55.002749939821825,34.02333738860699,41.47086007521893,36.78719361160327,34.02333738860699,36.78719361160327,41.47086007521893,55.002749939821825,-10,-0.33,0.33,10,46,36,45.67,46.33,56,3.1622776601683795,3.1622776601683795,3.1622776601683795,3.1622776601683795
12,4,0.3763688000035472,o,43.1,Limited Time - 800ms,l,57.70897496856027,33.706020967493735,43.146505562891754,48.76134648709691,33.706020967493735,48.76134648709691,43.146505562891754,57.70897496856027,-10,-0.33,0.33,10,46,36,45.67,46.33,56,3.1622776601683795,3.1622776601683795,3.1622776601683795,3.1622776601683795
12,5,0.134078299975954,o,48.0,Limited Time - 800ms,l,54.46789737517344,32.82977884579512,47.961358672532384,44.6349644855234,32.82977884579512,44.6349644855234,47.961358672532384,54.46789737517344,-10,-0.33,0.33,10,46,36,45.67,46.33,56,3.1622776601683795,3.1622776601683795,3.1622776601683795,3.1622776601683795
12,6,0.05648620001738891,w,33.5,Limited Time - 800ms,l,52.340822327446524,33.491786504883684,44.93876139103133,42.63897710250568,33.491786504883684,42.63897710250568,44.93876139103133,52.340822327446524,-10,-0.33,0.33,10,46,36,45.67,46.33,56,3.1622776601683795,3.1622776601683795,3.1622776601683795,3.1622776601683795
12,7,0.277854899992235,q,59.6,Limited Time - 800ms,l,59.593345285691456,38.71669275318313,43.70671675423468,44.03419791810591,38.71669275318313,44.03419791810591,43.70671675423468,59.593345285691456,-10,-0.33,0.33,10,46,36,45.67,46.33,56,3.1622776601683795,3.1622776601683795,3.1622776601683795,3.1622776601683795
12,8,0.18588880001334473,q,51.4,Limited Time - 800ms,l,51.39505088453223,29.319456192620322,50.4291126424466,45.622780732237,29.319456192620322,45.622780732237,50.4291126424466,51.39505088453223,-10,-0.33,0.33,10,46,36,45.67,46.33,56,3.1622776601683795,3.1622776601683795,3.1622776601683795,3.1622776601683795
12,9,0.1855403000372462,q,56.5,Limited Time - 800ms,l,56.53352593021589,37.63071992298621,43.7327935268938,48.125231477934165,37.63071992298621,48.125231477934165,43.7327935268938,56.53352593021589,-10,-0.33,0.33,10,46,36,45.67,46.33,56,3.1622776601683795,3.1622776601683795,3.1622776601683795,3.1622776601683795
12,10,0.09951020003063604,q,55.8,Limited Time - 800ms,l,55.793398095792696,39.34939940841541,38.31081753992787,46.61665205622763,39.34939940841541,46.61665205622763,38.31081753992787,55.793398095792696,-10,-0.33,0.33,10,46,36,45.67,46.33,56,3.1622776601683795,3.1622776601683795,3.1622776601683795,3.1622776601683795
12,11,0.061029400036204606,q,60.2,Limited Time - 800ms,l,60.2020705864908,29.709603976386163,49.33347141219863,47.24453776373376,29.709603976386163,47.24453776373376,49.33347141219863,60.2020705864908,-10,-0.33,0.33,10,46,36,45.67,46.33,56,3.1622776601683795,3.1622776601683795,3.1622776601683795,3.1622776601683795
12,12,0.10647870000684634,q,54.7,Limited Time - 800ms,l,54.73495999858504,33.3921960186601,45.83908496311532,46.49426686609709,33.3921960186601,46.49426686609709,45.83908496311532,54.73495999858504,-10,-0.33,0.33,10,46,36,45.67,46.33,56,3.1622776601683795,3.1622776601683795,3.1622776601683795,3.1622776601683795
12,13,0.0012526000500656664,q,60.4,Limited Time - 800ms,l,60.43942965514567,37.43391145248504,39.533097277467895,47.64738618593124,37.43391145248504,47.64738618593124,39.533097277467895,60.43942965514567,-10,-0.33,0.33,10,46,36,45.67,46.33,56,3.1622776601683795,3.1622776601683795,3.1622776601683795,3.1622776601683795
12,14,0.08975790004478768,q,58.7,Limited Time - 800ms,l,58.69625009732144,36.502121453512174,43.74871819296645,40.55740745231301,36.502121453512174,40.55740745231301,43.74871819296645,58.69625009732144,-10,-0.33,0.33,10,46,36,45.67,46.33,56,3.1622776601683795,3.1622776601683795,3.1622776601683795,3.1622776601683795
12,15,0.14740750001510605,q,55.1,Limited Time - 800ms,l,55.1358322485853,36.41094383840317,48.274868235278625,47.268337134742104,36.41094383840317,47.268337134742104,48.274868235278625,55.1358322485853,-10,-0.33,0.33,10,46,36,45.67,46.33,56,3.1622776601683795,3.1622776601683795,3.1622776601683795,3.1622776601683795
12,16,0.30506480002077296,q,53.8,Limited Time - 800ms,l,53.79755430110273,36.59752260045097,41.78187271809452,43.54273821328101,36.59752260045097,43.54273821328101,41.78187271809452,53.79755430110273,-10,-0.33,0.33,10,46,36,45.67,46.33,56,3.1622776601683795,3.1622776601683795,3.1622776601683795,3.1622776601683795
12,17,0.22583709994796664,q,54.1,Limited Time - 800ms,l,54.11219724540108,37.544223190394966,46.34944475453674,40.24743692135974,37.544223190394966,40.24743692135974,46.34944475453674,54.11219724540108,-10,-0.33,0.33,10,46,36,45.67,46.33,56,3.1622776601683795,3.1622776601683795,3.1622776601683795,3.1622776601683795
12,18,0.19009150000056252,q,57.5,Limited Time - 800ms,l,57.4922561159065,33.54328148182223,51.36312484144581,43.56192110701008,33.54328148182223,43.56192110701008,51.36312484144581,57.4922561159065,-10,-0.33,0.33,10,46,36,45.67,46.33,56,3.1622776601683795,3.1622776601683795,3.1622776601683795,3.1622776601683795
12,19,0.11835409997729585,q,62.6,Limited Time - 800ms,l,62.57600111944524,37.8830848307527,44.259020721043306,44.35913963620501,37.8830848307527,44.35913963620501,44.259020721043306,62.57600111944524,-10,-0.33,0.33,10,46,36,45.67,46.33,56,3.1622776601683795,3.1622776601683795,3.1622776601683795,3.1622776601683795
12,20,0.2434829999692738,q,63.8,Limited Time - 800ms,l,63.816878334489566,35.068167318230564,48.63357452884726,47.24525417953355,35.068167318230564,47.24525417953355,48.63357452884726,63.816878334489566,-10,-0.33,0.33,10,46,36,45.67,46.33,56,3.1622776601683795,3.1622776601683795,3.1622776601683795,3.1622776601683795
13,1,0.5576473000110127,w,62.8,Unlimited Time,h,50.48702359673602,62.79784330417035,31.008083334738043,45.78212890831393,45.78212890831393,31.008083334738043,50.48702359673602,62.79784330417035,-10,-0.33,0.33,10,46,36,45.67,46.33,56,10,10,10,10
13,2,0.004951000039000064,w,61.9,Unlimited Time,h,53.57643868015247,61.85349349229562,35.40417248410055,29.027687720259422,29.027687720259422,35.40417248410055,53.57643868015247,61.85349349229562,-10,-0.33,0.33,10,46,36,45.67,46.33,56,10,10,10,10
13,3,0.14535299997078255,w,48.3,Unlimited Time,h,42.27427686083422,48.31435986464642,31.791017166113242,36.3371075346885,36.3371075346885,31.791017166113242,42.27427686083422,48.31435986464642,-10,-0.33,0.33,10,46,36,45.67,46.33,56,10,10,10,10
13,4,0.3323111000354402,w,61.7,Unlimited Time,h,38.90057126199779,61.73985907868201,34.95894081249432,30.336266234716877,30.336266234716877,34.95894081249432,38.90057126199779,61.73985907868201,-10,-0.33,0.33,10,46,36,45.67,46.33,56,10,10,10,10
13,5,0.17186390003189445,w,56.8,Unlimited Time,h,55.65979118350125,56.77931131691963,37.88895654835599,30.48413068984792,30.48413068984792,37.88895654835599,55.65979118350125,56.77931131691963,-10,-0.33,0.33,10,46,36,45.67,46.33,56,10,10,10,10
13,6,0.16132039995864034,w,43.9,Unlimited Time,h,41.23044673117137,43.931368726419564,44.538227405347584,51.60138470202078,51.60138470202078,44.538227405347584,41.23044673117137,43.931368726419564,-10,-0.33,0.33,10,46,36,45.67,46.33,56,10,10,10,10
13,7,0.12992340000346303,w,53.1,Unlimited Time,h,23.981426090494477,53.14980573125453,46.02682171036362,30.739368774431753,30.739368774431753,46.02682171036362,23.981426090494477,53.14980573125453,-10,-0.33,0.33,10,46,36,45.67,46.33,56,10,10,10,10
13,8,0.15998539997963235,w,51.2,Unlimited Time,h,56.32597293834918,51.18818205569937,37.47160714129728,19.92661990137672,19.92661990137672,37.47160714129728,56.32597293834918,51.18818205569937,-10,-0.33,0.33,10,46,36,45.67,46.33,56,10,10,10,10
13,9,0.20866379997460172,w,50.3,Unlimited Time,h,66.68550286236128,50.29908579860043,43.220361781412436,21.085712830153227,21.085712830153227,43.220361781412436,66.68550286236128,50.29908579860043,-10,-0.33,0.33,10,46,36,45.67,46.33,56,10,10,10,10
13,10,0.10195240000030026,w,61.8,Unlimited Time,h,56.77618156107083,61.77019897687971,52.73854765520671,34.63679255035373,34.63679255035373,52.73854765520671,56.77618156107083,61.77019897687971,-10,-0.33,0.33,10,46,36,45.67,46.33,56,10,10,10,10
13,11,0.09129270003177226,w,63.0,Unlimited Time,h,41.71342700067061,63.001735051340845,46.087080004730836,35.60565111993302,35.60565111993302,46.087080004730836,41.71342700067061,63.001735051340845,-10,-0.33,0.33,10,46,36,45.67,46.33,56,10,10,10,10
13,12,0.0814263999927789,w,42.4,Unlimited Time,h,54.26973447227757,42.43188118283934,50.61364384836276,8.81086165087607,8.81086165087607,50.61364384836276,54.26973447227757,42.43188118283934,-10,-0.33,0.33,10,46,36,45.67,46.33,56,10,10,10,10
13,13,0.1449057999998331,w,56.0,Unlimited Time,h,45.9347743392305,56.00170277460833,63.89052686682665,44.30165461265108,44.30165461265108,63.89052686682665,45.9347743392305,56.00170277460833,-10,-0.33,0.33,10,46,36,45.67,46.33,56,10,10,10,10
13,14,0.25292220001574606,q,40.8,Unlimited Time,h,40.752373221423476,63.62480623903568,62.69791921408715,32.284038171074606,32.284038171074606,62.69791921408715,40.752373221423476,63.62480623903568,-10,-0.33,0.33,10,46,36,45.67,46.33,56,10,10,10,10
13,15,0.2400787000078708,w,53.8,Unlimited Time,h,53.421808277766885,53.75836191333531,51.648000651306084,38.69088004942852,38.69088004942852,51.648000651306084,53.421808277766885,53.75836191333531,-10,-0.33,0.33,10,46,36,45.67,46.33,56,10,10,10,10
13,16,0.17664949997561052,w,56.2,Unlimited Time,h,44.842270226955755,56.151657178685774,55.585201830944314,40.028330158022804,40.028330158022804,55.585201830944314,44.842270226955755,56.151657178685774,-10,-0.33,0.33,10,46,36,45.67,46.33,56,10,10,10,10
13,17,0.12924880004720762,w,53.4,Unlimited Time,h,51.831989339189626,53.415198595902815,39.789284868654306,45.195858714320885,45.195858714320885,39.789284868654306,51.831989339189626,53.415198595902815,-10,-0.33,0.33,10,46,36,45.67,46.33,56,10,10,10,10
13,18,0.09046989999478683,w,57.0,Unlimited Time,h,54.31968472020582,56.9701154343525,42.187295353475015,46.55426398183807,46.55426398183807,42.187295353475015,54.31968472020582,56.9701154343525,-10,-0.33,0.33,10,46,36,45.67,46.33,56,10,10,10,10
13,19,0.1814425999764353,w,48.8,Unlimited Time,h,48.7474173214876,48.780393864296684,54.358615729563866,33.51883247555483,33.51883247555483,54.358615729563866,48.7474173214876,48.780393864296684,-10,-0.33,0.33,10,46,36,45.67,46.33,56,10,10,10,10
13,20,0.1301394000183791,w,47.6,Unlimited Time,h,47.284526665474935,47.55131924122356,54.00497090628709,36.836774310654945,36.836774310654945,54.00497090628709,47.284526665474935,47.55131924122356,-10,-0.33,0.33,10,46,36,45.67,46.33,56,10,10,10,10
14,1,0.3060486000031233,w,50.5,Limited Time - 400ms,h,45.78212890831393,50.48702359673602,62.79784330417035,31.008083334738043,45.78212890831393,31.008083334738043,50.48702359673602,62.79784330417035,-10,-0.33,0.33,10,46,36,45.67,46.33,56,10,10,10,10
14,2,0.17249919997993857,w,53.6,Limited Time - 400ms,h,29.027687720259422,53.57643868015247,61.85349349229562,35.40417248410055,29.027687720259422,35.40417248410055,53.57643868015247,61.85349349229562,-10,-0.33,0.33,10,46,36,45.67,46.33,56,10,10,10,10
14,3,0.04382610000902787,w,42.3,Limited Time - 400ms,h,36.3371075346885,42.27427686083422,48.31435986464642,31.791017166113242,36.3371075346885,31.791017166113242,42.27427686083422,48.31435986464642,-10,-0.33,0.33,10,46,36,45.67,46.33,56,10,10,10,10
14,4,0.2786299999570474,w,38.9,Limited Time - 400ms,h,30.336266234716877,38.90057126199779,61.73985907868201,34.95894081249432,30.336266234716877,34.95894081249432,38.90057126199779,61.73985907868201,-10,-0.33,0.33,10,46,36,45.67,46.33,56,10,10,10,10
14,5,0.05491690005874261,w,55.7,Limited Time - 400ms,h,30.48413068984792,55.65979118350125,56.77931131691963,37.88895654835599,30.48413068984792,37.88895654835599,55.65979118350125,56.77931131691963,-10,-0.33,0.33,10,46,36,45.67,46.33,56,10,10,10,10
14,6,0.07440219999989495,p,44.5,Limited Time - 400ms,h,51.60138470202078,41.23044673117137,43.931368726419564,44.538227405347584,51.60138470202078,44.538227405347584,41.23044673117137,43.931368726419564,-10,-0.33,0.33,10,46,36,45.67,46.33,56,10,10,10,10
14,7,0.09399120003217831,o,53.1,Limited Time - 400ms,h,30.739368774431753,23.981426090494477,53.14980573125453,46.02682171036362,30.739368774431753,46.02682171036362,23.981426090494477,53.14980573125453,-10,-0.33,0.33,10,46,36,45.67,46.33,56,10,10,10,10
14,8,0.1399115000385791,o,51.2,Limited Time - 400ms,h,19.92661990137672,56.32597293834918,51.18818205569937,37.47160714129728,19.92661990137672,37.47160714129728,56.32597293834918,51.18818205569937,-10,-0.33,0.33,10,46,36,45.67,46.33,56,10,10,10,10
14,9,0.16822250001132488,o,50.3,Limited Time - 400ms,h,21.085712830153227,66.68550286236128,50.29908579860043,43.220361781412436,21.085712830153227,43.220361781412436,66.68550286236128,50.29908579860043,-10,-0.33,0.33,10,46,36,45.67,46.33,56,10,10,10,10
14,10,0.23991940001724288,o,61.8,Limited Time - 400ms,h,34.63679255035373,56.77618156107083,61.77019897687971,52.73854765520671,34.63679255035373,52.73854765520671,56.77618156107083,61.77019897687971,-10,-0.33,0.33,10,46,36,45.67,46.33,56,10,10,10,10
14,11,0.05567869998048991,o,63.0,Limited Time - 400ms,h,35.60565111993302,41.71342700067061,63.001735051340845,46.087080004730836,35.60565111993302,46.087080004730836,41.71342700067061,63.001735051340845,-10,-0.33,0.33,10,46,36,45.67,46.33,56,10,10,10,10
14,12,0.13265290000708774,o,42.4,Limited Time - 400ms,h,8.81086165087607,54.26973447227757,42.43188118283934,50.61364384836276,8.81086165087607,50.61364384836276,54.26973447227757,42.43188118283934,-10,-0.33,0.33,10,46,36,45.67,46.33,56,10,10,10,10
14,13,0.2805403999518603,o,56.0,Limited Time - 400ms,h,44.30165461265108,45.9347743392305,56.00170277460833,63.89052686682665,44.30165461265108,63.89052686682665,45.9347743392305,56.00170277460833,-10,-0.33,0.33,10,46,36,45.67,46.33,56,10,10,10,10
14,14,0.1141776000149548,o,63.6,Limited Time - 400ms,h,32.284038171074606,40.752373221423476,63.62480623903568,62.69791921408715,32.284038171074606,62.69791921408715,40.752373221423476,63.62480623903568,-10,-0.33,0.33,10,46,36,45.67,46.33,56,10,10,10,10
14,15,0.14267490000929683,o,53.8,Limited Time - 400ms,h,38.69088004942852,53.421808277766885,53.75836191333531,51.648000651306084,38.69088004942852,51.648000651306084,53.421808277766885,53.75836191333531,-10,-0.33,0.33,10,46,36,45.67,46.33,56,10,10,10,10
14,16,0.01464130001841113,o,56.2,Limited Time - 400ms,h,40.028330158022804,44.842270226955755,56.151657178685774,55.585201830944314,40.028330158022804,55.585201830944314,44.842270226955755,56.151657178685774,-10,-0.33,0.33,10,46,36,45.67,46.33,56,10,10,10,10
14,17,0.07840890000807121,o,53.4,Limited Time - 400ms,h,45.195858714320885,51.831989339189626,53.415198595902815,39.789284868654306,45.195858714320885,39.789284868654306,51.831989339189626,53.415198595902815,-10,-0.33,0.33,10,46,36,45.67,46.33,56,10,10,10,10
14,18,0.009565100015606731,o,57.0,Limited Time - 400ms,h,46.55426398183807,54.31968472020582,56.9701154343525,42.187295353475015,46.55426398183807,42.187295353475015,54.31968472020582,56.9701154343525,-10,-0.33,0.33,10,46,36,45.67,46.33,56,10,10,10,10
14,19,0.17083640000782907,o,48.8,Limited Time - 400ms,h,33.51883247555483,48.7474173214876,48.780393864296684,54.358615729563866,33.51883247555483,54.358615729563866,48.7474173214876,48.780393864296684,-10,-0.33,0.33,10,46,36,45.67,46.33,56,10,10,10,10
14,20,0.13566490000812337,o,47.6,Limited Time - 400ms,h,36.836774310654945,47.284526665474935,47.55131924122356,54.00497090628709,36.836774310654945,54.00497090628709,47.284526665474935,47.55131924122356,-10,-0.33,0.33,10,46,36,45.67,46.33,56,10,10,10,10
15,1,0.4873234999831766,o,50.5,Limited Time - 800ms,h,45.78212890831393,62.79784330417035,50.48702359673602,31.008083334738043,45.78212890831393,31.008083334738043,50.48702359673602,62.79784330417035,-10,-0.33,0.33,10,46,36,45.67,46.33,56,10,10,10,10
15,2,0.04524840001249686,o,53.6,Limited Time - 800ms,h,29.027687720259422,61.85349349229562,53.57643868015247,35.40417248410055,29.027687720259422,35.40417248410055,53.57643868015247,61.85349349229562,-10,-0.33,0.33,10,46,36,45.67,46.33,56,10,10,10,10
15,3,0.027924800000619143,o,42.3,Limited Time - 800ms,h,36.3371075346885,48.31435986464642,42.27427686083422,31.791017166113242,36.3371075346885,31.791017166113242,42.27427686083422,48.31435986464642,-10,-0.33,0.33,10,46,36,45.67,46.33,56,10,10,10,10
15,4,0.02033179998397827,o,38.9,Limited Time - 800ms,h,30.336266234716877,61.73985907868201,38.90057126199779,34.95894081249432,30.336266234716877,34.95894081249432,38.90057126199779,61.73985907868201,-10,-0.33,0.33,10,46,36,45.67,46.33,56,10,10,10,10
15,5,0.032924999948590994,o,55.7,Limited Time - 800ms,h,30.48413068984792,56.77931131691963,55.65979118350125,37.88895654835599,30.48413068984792,37.88895654835599,55.65979118350125,56.77931131691963,-10,-0.33,0.33,10,46,36,45.67,46.33,56,10,10,10,10
15,6,0.0843301999848336,o,41.2,Limited Time - 800ms,h,51.60138470202078,43.931368726419564,41.23044673117137,44.538227405347584,51.60138470202078,44.538227405347584,41.23044673117137,43.931368726419564,-10,-0.33,0.33,10,46,36,45.67,46.33,56,10,10,10,10
15,7,0.04094249999616295,o,24.0,Limited Time - 800ms,h,30.739368774431753,53.14980573125453,23.981426090494477,46.02682171036362,30.739368774431753,46.02682171036362,23.981426090494477,53.14980573125453,-10,-0.33,0.33,10,46,36,45.67,46.33,56,10,10,10,10
15,8,0.23504609998781234,p,37.5,Limited Time - 800ms,h,19.92661990137672,51.18818205569937,56.32597293834918,37.47160714129728,19.92661990137672,37.47160714129728,56.32597293834918,51.18818205569937,-10,-0.33,0.33,10,46,36,45.67,46.33,56,10,10,10,10
15,9,0.14199510001344606,p,43.2,Limited Time - 800ms,h,21.085712830153227,50.29908579860043,66.68550286236128,43.220361781412436,21.085712830153227,43.220361781412436,66.68550286236128,50.29908579860043,-10,-0.33,0.33,10,46,36,45.67,46.33,56,10,10,10,10
15,10,0.04306769999675453,q,34.6,Limited Time - 800ms,h,34.63679255035373,61.77019897687971,56.77618156107083,52.73854765520671,34.63679255035373,52.73854765520671,56.77618156107083,61.77019897687971,-10,-0.33,0.33,10,46,36,45.67,46.33,56,10,10,10,10
15,11,0.12052729999413714,q,35.6,Limited Time - 800ms,h,35.60565111993302,63.001735051340845,41.71342700067061,46.087080004730836,35.60565111993302,46.087080004730836,41.71342700067061,63.001735051340845,-10,-0.33,0.33,10,46,36,45.67,46.33,56,10,10,10,10
15,12,0.0486322000506334,w,42.4,Limited Time - 800ms,h,8.81086165087607,42.43188118283934,54.26973447227757,50.61364384836276,8.81086165087607,50.61364384836276,54.26973447227757,42.43188118283934,-10,-0.33,0.33,10,46,36,45.67,46.33,56,10,10,10,10
15,13,0.05679289996623993,w,56.0,Limited Time - 800ms,h,44.30165461265108,56.00170277460833,45.9347743392305,63.89052686682665,44.30165461265108,63.89052686682665,45.9347743392305,56.00170277460833,-10,-0.33,0.33,10,46,36,45.67,46.33,56,10,10,10,10
15,14,0.10288979997858405,w,63.6,Limited Time - 800ms,h,32.284038171074606,63.62480623903568,40.752373221423476,62.69791921408715,32.284038171074606,62.69791921408715,40.752373221423476,63.62480623903568,-10,-0.33,0.33,10,46,36,45.67,46.33,56,10,10,10,10
15,15,0.005887500010430813,w,53.8,Limited Time - 800ms,h,38.69088004942852,53.75836191333531,53.421808277766885,51.648000651306084,38.69088004942852,51.648000651306084,53.421808277766885,53.75836191333531,-10,-0.33,0.33,10,46,36,45.67,46.33,56,10,10,10,10
15,16,0.19034560001455247,w,56.2,Limited Time - 800ms,h,40.028330158022804,56.151657178685774,44.842270226955755,55.585201830944314,40.028330158022804,55.585201830944314,44.842270226955755,56.151657178685774,-10,-0.33,0.33,10,46,36,45.67,46.33,56,10,10,10,10
15,17,0.017855899990536273,w,53.4,Limited Time - 800ms,h,45.195858714320885,53.415198595902815,51.831989339189626,39.789284868654306,45.195858714320885,39.789284868654306,51.831989339189626,53.415198595902815,-10,-0.33,0.33,10,46,36,45.67,46.33,56,10,10,10,10
15,18,0.08109920000424609,w,57.0,Limited Time - 800ms,h,46.55426398183807,56.9701154343525,54.31968472020582,42.187295353475015,46.55426398183807,42.187295353475015,54.31968472020582,56.9701154343525,-10,-0.33,0.33,10,46,36,45.67,46.33,56,10,10,10,10
15,19,0.08805099996970966,w,48.8,Limited Time - 800ms,h,33.51883247555483,48.780393864296684,48.7474173214876,54.358615729563866,33.51883247555483,54.358615729563866,48.7474173214876,48.780393864296684,-10,-0.33,0.33,10,46,36,45.67,46.33,56,10,10,10,10
15,20,0.24132609996013343,w,47.6,Limited Time - 800ms,h,36.836774310654945,47.55131924122356,47.284526665474935,54.00497090628709,36.836774310654945,54.00497090628709,47.284526665474935,47.55131924122356,-10,-0.33,0.33,10,46,36,45.67,46.33,56,10,10,10,10
16,1,0.6593898999853991,o,53.4,Unlimited Time,e,42.12125633343295,50.09286748931431,53.36800040486436,39.88479265411856,50.09286748931431,42.12125633343295,53.36800040486436,39.88479265411856,0,0,0,0,46,46,46,46,46,3.1622776601683795,6.324555320336759,8.366600265340756,10
16,2,0.10509139997884631,o,37.9,Unlimited Time,e,59.22887299793425,48.465481130747236,37.88980200074037,36.258308650632216,48.465481130747236,59.22887299793425,37.88980200074037,36.258308650632216,0,0,0,0,46,46,46,46,46,3.1622776601683795,6.324555320336759,8.366600265340756,10
16,3,0.13582090003183112,o,48.0,Unlimited Time,e,50.68882136789704,46.37615978176008,47.96534141194727,44.271339745506715,46.37615978176008,50.68882136789704,47.96534141194727,44.271339745506715,0,0,0,0,46,46,46,46,46,3.1622776601683795,6.324555320336759,8.366600265340756,10
16,4,0.13964890001807362,p,29.9,Unlimited Time,e,56.88188022855612,46.20982196918158,44.77212821972901,29.90286814325359,46.20982196918158,56.88188022855612,44.77212821972901,29.90286814325359,0,0,0,0,46,46,46,46,46,3.1622776601683795,6.324555320336759,8.366600265340756,10
16,5,0.37065090000396594,w,46.9,Unlimited Time,e,37.5091200475058,46.86553450285744,42.337216817636815,46.50012339135648,46.86553450285744,37.5091200475058,42.337216817636815,46.50012339135648,0,0,0,0,46,46,46,46,46,3.1622776601683795,6.324555320336759,8.366600265340756,10
16,6,0.14650350000010803,w,46.3,Unlimited Time,e,54.20581534871451,46.26040138615086,41.73156142391939,37.287329141081685,46.26040138615086,54.20581534871451,41.73156142391939,37.287329141081685,0,0,0,0,46,46,46,46,46,3.1622776601683795,6.324555320336759,8.366600265340756,10
16,7,0.18349429999943823,w,45.4,Unlimited Time,e,46.81778782648364,45.36356585298304,42.46057555767461,49.943321576719924,45.36356585298304,46.81778782648364,42.46057555767461,49.943321576719924,0,0,0,0,46,46,46,46,46,3.1622776601683795,6.324555320336759,8.366600265340756,10
16,8,0.09184320003259927,w,44.7,Unlimited Time,e,54.61392783681531,44.674240490622864,44.06014012567813,40.636801499791346,44.674240490622864,54.61392783681531,44.06014012567813,40.636801499791346,0,0,0,0,46,46,46,46,46,3.1622776601683795,6.324555320336759,8.366600265340756,10
16,9,0.09697939996840432,w,42.9,Unlimited Time,e,45.32811852021248,42.88221654546259,39.290959131215,55.48725662189487,42.88221654546259,45.32811852021248,39.290959131215,55.48725662189487,0,0,0,0,46,46,46,46,46,3.1622776601683795,6.324555320336759,8.366600265340756,10
16,10,0.07609739998588338,w,42.9,Unlimited Time,e,45.75846394108153,42.88401125560382,41.46169868302569,49.2853751996048,42.88401125560382,45.75846394108153,41.46169868302569,49.2853751996048,0,0,0,0,46,46,46,46,46,3.1622776601683795,6.324555320336759,8.366600265340756,10
16,11,0.05795129999751225,w,50.2,Unlimited Time,e,43.86203777009883,50.21217279202632,49.81448893403865,36.691247046565955,50.21217279202632,43.86203777009883,49.81448893403865,36.691247046565955,0,0,0,0,46,46,46,46,46,3.1622776601683795,6.324555320336759,8.366600265340756,10
16,12,0.036076500022318214,w,45.7,Unlimited Time,e,39.14277514518131,45.73326746226756,31.574186671161407,48.10060523094703,45.73326746226756,39.14277514518131,31.574186671161407,48.10060523094703,0,0,0,0,46,46,46,46,46,3.1622776601683795,6.324555320336759,8.366600265340756,10
16,13,0.06207060004817322,w,42.0,Unlimited Time,e,43.2326267751295,41.964358611659335,39.541683543660184,35.58815893814712,41.964358611659335,43.2326267751295,39.541683543660184,35.58815893814712,0,0,0,0,46,46,46,46,46,3.1622776601683795,6.324555320336759,8.366600265340756,10
16,14,0.06083910004235804,w,46.9,Unlimited Time,e,37.917289699364346,46.854549583196686,53.47642196457019,45.237630355432735,46.854549583196686,37.917289699364346,53.47642196457019,45.237630355432735,0,0,0,0,46,46,46,46,46,3.1622776601683795,6.324555320336759,8.366600265340756,10
16,15,0.0708345000166446,w,45.9,Unlimited Time,e,52.161185486852105,45.92555417216419,44.5199564136387,52.60417185869883,45.92555417216419,52.161185486852105,44.5199564136387,52.60417185869883,0,0,0,0,46,46,46,46,46,3.1622776601683795,6.324555320336759,8.366600265340756,10
16,16,0.12120140000479296,w,41.5,Unlimited Time,e,44.09277851651553,41.528599123262524,42.97152358078307,46.50879044035791,41.528599123262524,44.09277851651553,42.97152358078307,46.50879044035791,0,0,0,0,46,46,46,46,46,3.1622776601683795,6.324555320336759,8.366600265340756,10
16,17,0.10865760000888258,w,43.4,Unlimited Time,e,47.88193004149338,43.419894070846865,40.33229861881548,39.85960123239285,43.419894070846865,47.88193004149338,40.33229861881548,39.85960123239285,0,0,0,0,46,46,46,46,46,3.1622776601683795,6.324555320336759,8.366600265340756,10
16,18,0.10635999997612089,w,46.5,Unlimited Time,e,54.71306596260065,46.526364136955856,29.592579237349547,48.862109390629044,46.526364136955856,54.71306596260065,29.592579237349547,48.862109390629044,0,0,0,0,46,46,46,46,46,3.1622776601683795,6.324555320336759,8.366600265340756,10
16,19,0.11110909999115393,w,49.9,Unlimited Time,e,47.63913155912688,49.89790850065246,43.15946387867493,38.63614582518775,49.89790850065246,47.63913155912688,43.15946387867493,38.63614582518775,0,0,0,0,46,46,46,46,46,3.1622776601683795,6.324555320336759,8.366600265340756,10
16,20,0.12214390002191067,q,48.2,Unlimited Time,e,48.20300816255313,40.70222285721744,35.544964256022155,58.83611029751961,40.70222285721744,48.20300816255313,35.544964256022155,58.83611029751961,0,0,0,0,46,46,46,46,46,3.1622776601683795,6.324555320336759,8.366600265340756,10
17,1,,,0.0,Limited Time - 400ms,h,50.48702359673602,31.008083334738043,62.79784330417035,45.78212890831393,45.78212890831393,31.008083334738043,50.48702359673602,62.79784330417035,-10,-0.33,0.33,10,46,36,45.67,46.33,56,10,10,10,10
17,2,0.002909399976488203,w,35.4,Limited Time - 400ms,h,53.57643868015247,35.40417248410055,61.85349349229562,29.027687720259422,29.027687720259422,35.40417248410055,53.57643868015247,61.85349349229562,-10,-0.33,0.33,10,46,36,45.67,46.33,56,10,10,10,10
17,3,0.20825269998749718,o,48.3,Limited Time - 400ms,h,42.27427686083422,31.791017166113242,48.31435986464642,36.3371075346885,36.3371075346885,31.791017166113242,42.27427686083422,48.31435986464642,-10,-0.33,0.33,10,46,36,45.67,46.33,56,10,10,10,10
17,4,0.07800310000311583,o,61.7,Limited Time - 400ms,h,38.90057126199779,34.95894081249432,61.73985907868201,30.336266234716877,30.336266234716877,34.95894081249432,38.90057126199779,61.73985907868201,-10,-0.33,0.33,10,46,36,45.67,46.33,56,10,10,10,10
17,5,0.08585380000295117,o,56.8,Limited Time - 400ms,h,55.65979118350125,37.88895654835599,56.77931131691963,30.48413068984792,30.48413068984792,37.88895654835599,55.65979118350125,56.77931131691963,-10,-0.33,0.33,10,46,36,45.67,46.33,56,10,10,10,10
17,6,0.05526690004626289,o,43.9,Limited Time - 400ms,h,41.23044673117137,44.538227405347584,43.931368726419564,51.60138470202078,51.60138470202078,44.538227405347584,41.23044673117137,43.931368726419564,-10,-0.33,0.33,10,46,36,45.67,46.33,56,10,10,10,10
17,7,0.31735230004414916,p,30.7,Limited Time - 400ms,h,23.981426090494477,46.02682171036362,53.14980573125453,30.739368774431753,30.739368774431753,46.02682171036362,23.981426090494477,53.14980573125453,-10,-0.33,0.33,10,46,36,45.67,46.33,56,10,10,10,10
17,8,0.22996060003060848,o,51.2,Limited Time - 400ms,h,56.32597293834918,37.47160714129728,51.18818205569937,19.92661990137672,19.92661990137672,37.47160714129728,56.32597293834918,51.18818205569937,-10,-0.33,0.33,10,46,36,45.67,46.33,56,10,10,10,10
17,9,0.043844499974511564,o,50.3,Limited Time - 400ms,h,66.68550286236128,43.220361781412436,50.29908579860043,21.085712830153227,21.085712830153227,43.220361781412436,66.68550286236128,50.29908579860043,-10,-0.33,0.33,10,46,36,45.67,46.33,56,10,10,10,10
17,10,0.18161330005386844,o,61.8,Limited Time - 400ms,h,56.77618156107083,52.73854765520671,61.77019897687971,34.63679255035373,34.63679255035373,52.73854765520671,56.77618156107083,61.77019897687971,-10,-0.33,0.33,10,46,36,45.67,46.33,56,10,10,10,10
17,11,0.18730540003161877,o,63.0,Limited Time - 400ms,h,41.71342700067061,46.087080004730836,63.001735051340845,35.60565111993302,35.60565111993302,46.087080004730836,41.71342700067061,63.001735051340845,-10,-0.33,0.33,10,46,36,45.67,46.33,56,10,10,10,10
17,12,0.15093800000613555,o,42.4,Limited Time - 400ms,h,54.26973447227757,50.61364384836276,42.43188118283934,8.81086165087607,8.81086165087607,50.61364384836276,54.26973447227757,42.43188118283934,-10,-0.33,0.33,10,46,36,45.67,46.33,56,10,10,10,10
17,13,0.05374709999887273,o,56.0,Limited Time - 400ms,h,45.9347743392305,63.89052686682665,56.00170277460833,44.30165461265108,44.30165461265108,63.89052686682665,45.9347743392305,56.00170277460833,-10,-0.33,0.33,10,46,36,45.67,46.33,56,10,10,10,10
17,14,0.09770179999759421,o,63.6,Limited Time - 400ms,h,40.752373221423476,62.69791921408715,63.62480623903568,32.284038171074606,32.284038171074606,62.69791921408715,40.752373221423476,63.62480623903568,-10,-0.33,0.33,10,46,36,45.67,46.33,56,10,10,10,10
17,15,0.099614400009159,o,53.8,Limited Time - 400ms,h,53.421808277766885,51.648000651306084,53.75836191333531,38.69088004942852,38.69088004942852,51.648000651306084,53.421808277766885,53.75836191333531,-10,-0.33,0.33,10,46,36,45.67,46.33,56,10,10,10,10
17,16,0.07651079999050125,o,56.2,Limited Time - 400ms,h,44.842270226955755,55.585201830944314,56.151657178685774,40.028330158022804,40.028330158022804,55.585201830944314,44.842270226955755,56.151657178685774,-10,-0.33,0.33,10,46,36,45.67,46.33,56,10,10,10,10
17,17,0.015456699999049306,o,53.4,Limited Time - 400ms,h,51.831989339189626,39.789284868654306,53.415198595902815,45.195858714320885,45.195858714320885,39.789284868654306,51.831989339189626,53.415198595902815,-10,-0.33,0.33,10,46,36,45.67,46.33,56,10,10,10,10
17,18,0.14633260003756732,o,57.0,Limited Time - 400ms,h,54.31968472020582,42.187295353475015,56.9701154343525,46.55426398183807,46.55426398183807,42.187295353475015,54.31968472020582,56.9701154343525,-10,-0.33,0.33,10,46,36,45.67,46.33,56,10,10,10,10
17,19,,,0.0,Limited Time - 400ms,h,48.7474173214876,54.358615729563866,48.780393864296684,33.51883247555483,33.51883247555483,54.358615729563866,48.7474173214876,48.780393864296684,-10,-0.33,0.33,10,46,36,45.67,46.33,56,10,10,10,10
17,20,0.04753719997825101,o,47.6,Limited Time - 400ms,h,47.284526665474935,54.00497090628709,47.55131924122356,36.836774310654945,36.836774310654945,54.00497090628709,47.284526665474935,47.55131924122356,-10,-0.33,0.33,10,46,36,45.67,46.33,56,10,10,10,10
18,1,0.44574580003973097,o,32.4,Limited Time - 800ms,i,51.45765211880461,48.51193917285531,32.422228953864675,54.94600126431474,32.422228953864675,48.51193917285531,54.94600126431474,51.45765211880461,-10,-10,10,10,46,36,36,56,56,3.1622776601683795,10,3.1622776601683795,10
18,2,0.31987589999334887,p,54.6,Limited Time - 800ms,i,62.80929174108067,37.45796566745072,36.204291200594774,54.55763969056881,36.204291200594774,37.45796566745072,54.55763969056881,62.80929174108067,-10,-10,10,10,46,36,36,56,56,3.1622776601683795,10,3.1622776601683795,10
18,3,0.08403060003183782,p,51.6,Limited Time - 800ms,i,65.55672899636886,31.388843575262065,32.5619382096162,51.58006110719999,32.5619382096162,31.388843575262065,51.58006110719999,65.55672899636886,-10,-10,10,10,46,36,36,56,56,3.1622776601683795,10,3.1622776601683795,10
18,4,0.034628699999302626,p,57.3,Limited Time - 800ms,i,50.159422182349495,46.934933567646006,39.479168265372195,57.34801485508071,39.479168265372195,46.934933567646006,57.34801485508071,50.159422182349495,-10,-10,10,10,46,36,36,56,56,3.1622776601683795,10,3.1622776601683795,10
18,5,0.10366109997266904,p,52.0,Limited Time - 800ms,i,77.1263189856426,27.908477676047763,37.81210912859118,51.9538256976968,37.81210912859118,27.908477676047763,51.9538256976968,77.1263189856426,-10,-10,10,10,46,36,36,56,56,3.1622776601683795,10,3.1622776601683795,10
18,6,0.14673400000901893,p,50.9,Limited Time - 800ms,i,41.7340942707739,30.075063445892248,36.95129566403464,50.92482033814202,36.95129566403464,30.075063445892248,50.92482033814202,41.7340942707739,-10,-10,10,10,46,36,36,56,56,3.1622776601683795,10,3.1622776601683795,10
18,7,0.11517400003504008,p,53.8,Limited Time - 800ms,i,46.168429434134005,35.281251783984516,33.26185772808712,53.81363778690966,33.26185772808712,35.281251783984516,53.81363778690966,46.168429434134005,-10,-10,10,10,46,36,36,56,56,3.1622776601683795,10,3.1622776601683795,10
18,8,0.6170080999727361,p,53.6,Limited Time - 800ms,i,48.03092485992059,44.969852519093834,37.44206778532072,53.595316132630124,37.44206778532072,44.969852519093834,53.595316132630124,48.03092485992059,-10,-10,10,10,46,36,36,56,56,3.1622776601683795,10,3.1622776601683795,10
18,9,0.14212769997539,p,56.2,Limited Time - 800ms,i,58.13688100393792,46.04186237573596,34.442292478159665,56.16040481611464,34.442292478159665,46.04186237573596,56.16040481611464,58.13688100393792,-10,-10,10,10,46,36,36,56,56,3.1622776601683795,10,3.1622776601683795,10
18,10,0.5072950999601744,p,60.9,Limited Time - 800ms,i,66.51486723883026,15.189282773191362,37.214571529485596,60.93468360686296,37.214571529485596,15.189282773191362,60.93468360686296,66.51486723883026,-10,-10,10,10,46,36,36,56,56,3.1622776601683795,10,3.1622776601683795,10
18,11,0.062152700033038855,p,55.6,Limited Time - 800ms,i,52.890722075073256,46.8390503965219,32.47120749484593,55.631754457432336,32.47120749484593,46.8390503965219,55.631754457432336,52.890722075073256,-10,-10,10,10,46,36,36,56,56,3.1622776601683795,10,3.1622776601683795,10
18,12,0.41356409998843446,p,56.2,Limited Time - 800ms,i,52.687647888073805,19.263675244873326,35.847826631143676,56.168894795754895,35.847826631143676,19.263675244873326,56.168894795754895,52.687647888073805,-10,-10,10,10,46,36,36,56,56,3.1622776601683795,10,3.1622776601683795,10
18,13,0.03983529994729906,p,48.7,Limited Time - 800ms,i,44.34199132564321,34.803429604193894,33.92263732597417,48.66016756089972,33.92263732597417,34.803429604193894,48.66016756089972,44.34199132564321,-10,-10,10,10,46,36,36,56,56,3.1622776601683795,10,3.1622776601683795,10
18,14,,,0.0,Limited Time - 800ms,i,63.397555317562066,26.187381260349543,37.73970067906487,51.53399112658039,37.73970067906487,26.187381260349543,51.53399112658039,63.397555317562066,-10,-10,10,10,46,36,36,56,56,3.1622776601683795,10,3.1622776601683795,10
18,15,0.6669349999865517,w,36.4,Limited Time - 800ms,i,53.39397912440499,36.38491102230671,38.4600140908135,54.836573702498285,38.4600140908135,36.38491102230671,54.836573702498285,53.39397912440499,-10,-10,10,10,46,36,36,56,56,3.1622776601683795,10,3.1622776601683795,10
18,16,0.48517380002886057,w,38.1,Limited Time - 800ms,i,59.72077468389769,38.0500554778106,37.95429613797934,48.23754371178572,37.95429613797934,38.0500554778106,48.23754371178572,59.72077468389769,-10,-10,10,10,46,36,36,56,56,3.1622776601683795,10,3.1622776601683795,10
