Round Number,Trial Number,Reaction Time,Choice,Reward (Health Points),Time Condition,Payoff Condition,Q mapped,W mapped,O mapped,P mapped,One value,Two value,Three value,Four value,One mean,Two mean,Three mean,Four mean,Mean Shift,One shifted mean,Two shifted mean,Three shifted mean,Four shifted mean,One SD,Two SD,Three SD,Four SD
1,1,0.5648040999994919,q,42.2,Unlimited Time,h,42.15174767115552,59.16444914914132,79.49470769010529,51.003221552202014,59.16444914914132,42.15174767115552,51.003221552202014,79.49470769010529,-10,-0.33,0.33,10,57,47,56.67,57.33,67,10,10,10,10
1,2,1.8986317000008057,w,61.4,Unlimited Time,h,59.817631189793026,61.43339892548357,65.30525893543337,61.137960211333166,61.43339892548357,59.817631189793026,61.137960211333166,65.30525893543337,-10,-0.33,0.33,10,57,47,56.67,57.33,67,10,10,10,10
1,3,0.43660340000042197,o,62.3,Unlimited Time,h,53.286844844826845,42.10509661949919,62.28620679372394,65.63398737367493,42.10509661949919,53.286844844826845,65.63398737367493,62.28620679372394,-10,-0.33,0.33,10,57,47,56.67,57.33,67,10,10,10,10
1,4,0.33607240000037564,p,67.4,Unlimited Time,h,60.526775937762174,60.28136806882423,65.42197884561944,67.40722431495678,60.28136806882423,60.526775937762174,67.40722431495678,65.42197884561944,-10,-0.33,0.33,10,57,47,56.67,57.33,67,10,10,10,10
1,5,1.9238646000003428,p,47.5,Unlimited Time,h,46.30117312447517,45.5499430225635,72.88447294113223,47.53248329249678,45.5499430225635,46.30117312447517,47.53248329249678,72.88447294113223,-10,-0.33,0.33,10,57,47,56.67,57.33,67,10,10,10,10
1,6,0.8103945000002568,q,69.4,Unlimited Time,h,69.40374902785577,60.37632238289309,69.79068452555482,56.3963024549035,60.37632238289309,69.40374902785577,56.3963024549035,69.79068452555482,-10,-0.33,0.33,10,57,47,56.67,57.33,67,10,10,10,10
1,7,0.7707045999995898,q,76.9,Unlimited Time,h,76.85189809883033,66.96787078007642,85.7083594975891,51.04706154340081,66.96787078007642,76.85189809883033,51.04706154340081,85.7083594975891,-10,-0.33,0.33,10,57,47,56.67,57.33,67,10,10,10,10
1,8,0.7009587000002284,q,55.1,Unlimited Time,h,55.077597765631985,52.07828930665235,82.29667385194274,43.59447062877726,52.07828930665235,55.077597765631985,43.59447062877726,82.29667385194274,-10,-0.33,0.33,10,57,47,56.67,57.33,67,10,10,10,10
1,9,0.441856800000096,p,88.4,Unlimited Time,h,57.161389678402706,59.30304588972087,55.34466240827171,88.39019959094728,59.30304588972087,57.161389678402706,88.39019959094728,55.34466240827171,-10,-0.33,0.33,10,57,47,56.67,57.33,67,10,10,10,10
1,10,0.5220618000003014,q,65.6,Unlimited Time,h,65.62722352414951,37.894231587331795,67.78772418146451,58.413517825981714,37.894231587331795,65.62722352414951,58.413517825981714,67.78772418146451,-10,-0.33,0.33,10,57,47,56.67,57.33,67,10,10,10,10
1,11,0.652433000000201,o,56.9,Unlimited Time,h,40.15850866266897,50.0406693976318,56.857448951980174,53.85832579043706,50.0406693976318,40.15850866266897,53.85832579043706,56.857448951980174,-10,-0.33,0.33,10,57,47,56.67,57.33,67,10,10,10,10
1,12,0.3181142000003092,w,58.2,Unlimited Time,h,30.653454140812926,58.22308558401846,69.88490797332605,64.9219924980718,58.22308558401846,30.653454140812926,64.9219924980718,69.88490797332605,-10,-0.33,0.33,10,57,47,56.67,57.33,67,10,10,10,10
1,13,0.35802370000055816,q,52.4,Unlimited Time,h,52.418836487370214,50.93154938960964,67.00032101912022,54.12845709370643,50.93154938960964,52.418836487370214,54.12845709370643,67.00032101912022,-10,-0.33,0.33,10,57,47,56.67,57.33,67,10,10,10,10
1,14,0.29124659999979485,p,69.1,Unlimited Time,h,79.28696910218545,45.196955670697925,67.92174699007458,69.1174052676159,45.196955670697925,79.28696910218545,69.1174052676159,67.92174699007458,-10,-0.33,0.33,10,57,47,56.67,57.33,67,10,10,10,10
1,15,0.5059264999999868,p,31.9,Unlimited Time,h,42.18364023423688,36.413958628404686,66.3578973665157,31.935138059877893,36.413958628404686,42.18364023423688,31.935138059877893,66.3578973665157,-10,-0.33,0.33,10,57,47,56.67,57.33,67,10,10,10,10
1,16,0.5863023000001704,q,43.1,Unlimited Time,h,43.06295013091192,38.415807474877234,64.20567644389166,61.21493091642642,38.415807474877234,43.06295013091192,61.21493091642642,64.20567644389166,-10,-0.33,0.33,10,57,47,56.67,57.33,67,10,10,10,10
1,17,0.7954295000008642,w,39.6,Unlimited Time,h,60.99072805666406,39.57018548426786,70.51787801276376,52.02404576820548,39.57018548426786,60.99072805666406,52.02404576820548,70.51787801276376,-10,-0.33,0.33,10,57,47,56.67,57.33,67,10,10,10,10
1,18,0.04887990000042919,o,74.8,Unlimited Time,h,65.28712686467036,54.00690580448004,74.80533433191857,69.12810854886014,54.00690580448004,65.28712686467036,69.12810854886014,74.80533433191857,-10,-0.33,0.33,10,57,47,56.67,57.33,67,10,10,10,10
1,19,0.5334855000000971,o,51.2,Unlimited Time,h,52.87162623146011,70.87334813681002,51.19735576740158,63.534010400798884,70.87334813681002,52.87162623146011,63.534010400798884,51.19735576740158,-10,-0.33,0.33,10,57,47,56.67,57.33,67,10,10,10,10
1,20,0.4047160999998596,o,70.2,Unlimited Time,h,56.3342946664193,46.520166263484285,70.2428075082673,48.74537383893817,46.520166263484285,56.3342946664193,48.74537383893817,70.2428075082673,-10,-0.33,0.33,10,57,47,56.67,57.33,67,10,10,10,10
2,1,,,0.0,Limited Time - 400ms,l,47.22245554297311,56.98877587365785,63.79867492317993,56.661001257413474,47.22245554297311,56.98877587365785,56.661001257413474,63.79867492317993,-10,-0.33,0.33,10,57,47,56.67,57.33,67,3.1622776601683795,3.1622776601683795,3.1622776601683795,3.1622776601683795
2,2,0.15029760000015813,q,53.6,Limited Time - 400ms,l,53.5834552418357,54.372497659257164,67.94066676345419,57.36318518208928,53.5834552418357,54.372497659257164,57.36318518208928,67.94066676345419,-10,-0.33,0.33,10,57,47,56.67,57.33,67,3.1622776601683795,3.1622776601683795,3.1622776601683795,3.1622776601683795
2,3,0.17912280000018654,o,68.9,Limited Time - 400ms,l,46.46783279729743,59.61589859264765,68.85843774629024,60.199778420170304,46.46783279729743,59.61589859264765,60.199778420170304,68.85843774629024,-10,-0.33,0.33,10,57,47,56.67,57.33,67,3.1622776601683795,3.1622776601683795,3.1622776601683795,3.1622776601683795
2,4,0.013832599999659578,w,55.4,Limited Time - 400ms,l,45.21514666981317,55.37835128874307,66.0942359662671,55.80105464985162,45.21514666981317,55.37835128874307,55.80105464985162,66.0942359662671,-10,-0.33,0.33,10,57,47,56.67,57.33,67,3.1622776601683795,3.1622776601683795,3.1622776601683795,3.1622776601683795
2,5,0.11126260000037291,o,65.9,Limited Time - 400ms,l,49.30241786030354,56.54123317540891,65.88147684202447,50.08205311271375,49.30241786030354,56.54123317540891,50.08205311271375,65.88147684202447,-10,-0.33,0.33,10,57,47,56.67,57.33,67,3.1622776601683795,3.1622776601683795,3.1622776601683795,3.1622776601683795
2,6,0.17724710000038613,o,65.9,Limited Time - 400ms,l,49.57116712586664,55.133970997627145,65.9006342828921,57.61544789892671,49.57116712586664,55.133970997627145,57.61544789892671,65.9006342828921,-10,-0.33,0.33,10,57,47,56.67,57.33,67,3.1622776601683795,3.1622776601683795,3.1622776601683795,3.1622776601683795
2,7,0.04459709999991901,p,54.3,Limited Time - 400ms,l,49.11414506164087,54.87836877446938,73.44447576226315,54.2797949894176,49.11414506164087,54.87836877446938,54.2797949894176,73.44447576226315,-10,-0.33,0.33,10,57,47,56.67,57.33,67,3.1622776601683795,3.1622776601683795,3.1622776601683795,3.1622776601683795
2,8,0.18176870000024792,o,67.4,Limited Time - 400ms,l,47.526125635068546,57.53086947732345,67.35702817217756,55.958047979607954,47.526125635068546,57.53086947732345,55.958047979607954,67.35702817217756,-10,-0.33,0.33,10,57,47,56.67,57.33,67,3.1622776601683795,3.1622776601683795,3.1622776601683795,3.1622776601683795
2,9,0.0018198999996457133,w,56.9,Limited Time - 400ms,l,48.50544119714934,56.85830500137027,68.08391916168992,56.186061505332084,48.50544119714934,56.85830500137027,56.186061505332084,68.08391916168992,-10,-0.33,0.33,10,57,47,56.67,57.33,67,3.1622776601683795,3.1622776601683795,3.1622776601683795,3.1622776601683795
2,10,0.1361891000005926,w,60.0,Limited Time - 400ms,l,42.81976383767532,60.005281278362034,68.65393459433331,58.793817836193085,42.81976383767532,60.005281278362034,58.793817836193085,68.65393459433331,-10,-0.33,0.33,10,57,47,56.67,57.33,67,3.1622776601683795,3.1622776601683795,3.1622776601683795,3.1622776601683795
2,11,0.0787917000006928,p,56.9,Limited Time - 400ms,l,50.36283205114954,59.005385912298586,69.18691727939031,56.85454021613526,50.36283205114954,59.005385912298586,56.85454021613526,69.18691727939031,-10,-0.33,0.33,10,57,47,56.67,57.33,67,3.1622776601683795,3.1622776601683795,3.1622776601683795,3.1622776601683795
2,12,0.03640220000033878,w,55.7,Limited Time - 400ms,l,42.00168315496179,55.72459033686464,65.99234508170272,57.63856849834145,42.00168315496179,55.72459033686464,57.63856849834145,65.99234508170272,-10,-0.33,0.33,10,57,47,56.67,57.33,67,3.1622776601683795,3.1622776601683795,3.1622776601683795,3.1622776601683795
2,13,0.11365610000029847,w,60.3,Limited Time - 400ms,l,40.09188170373062,60.3421917928743,65.24283988476323,53.28349146321807,40.09188170373062,60.3421917928743,53.28349146321807,65.24283988476323,-10,-0.33,0.33,10,57,47,56.67,57.33,67,3.1622776601683795,3.1622776601683795,3.1622776601683795,3.1622776601683795
2,14,,,0.0,Limited Time - 400ms,l,49.82328555163317,56.9000801130433,63.363682516284136,50.37245509970768,49.82328555163317,56.9000801130433,50.37245509970768,63.363682516284136,-10,-0.33,0.33,10,57,47,56.67,57.33,67,3.1622776601683795,3.1622776601683795,3.1622776601683795,3.1622776601683795
2,15,,,0.0,Limited Time - 400ms,l,44.72897249566834,56.02902773747297,65.28018919122489,58.603976087410565,44.72897249566834,56.02902773747297,58.603976087410565,65.28018919122489,-10,-0.33,0.33,10,57,47,56.67,57.33,67,3.1622776601683795,3.1622776601683795,3.1622776601683795,3.1622776601683795
2,16,0.2666722000003574,o,67.8,Limited Time - 400ms,l,45.38728304166509,60.975084331486435,67.77835568816182,59.296132924526454,45.38728304166509,60.975084331486435,59.296132924526454,67.77835568816182,-10,-0.33,0.33,10,57,47,56.67,57.33,67,3.1622776601683795,3.1622776601683795,3.1622776601683795,3.1622776601683795
2,17,0.10388929999953689,q,46.7,Limited Time - 400ms,l,46.67458129066582,52.16554852211422,61.31822842440641,56.82193336402642,46.67458129066582,52.16554852211422,56.82193336402642,61.31822842440641,-10,-0.33,0.33,10,57,47,56.67,57.33,67,3.1622776601683795,3.1622776601683795,3.1622776601683795,3.1622776601683795
2,18,0.23667500000010477,q,48.9,Limited Time - 400ms,l,48.879419862541376,52.689672885948994,62.07342346368186,59.79069685589869,48.879419862541376,52.689672885948994,59.79069685589869,62.07342346368186,-10,-0.33,0.33,10,57,47,56.67,57.33,67,3.1622776601683795,3.1622776601683795,3.1622776601683795,3.1622776601683795
2,19,,,0.0,Limited Time - 400ms,l,49.32672656435558,55.45229872918924,65.95038962570516,56.90516177227048,49.32672656435558,55.45229872918924,56.90516177227048,65.95038962570516,-10,-0.33,0.33,10,57,47,56.67,57.33,67,3.1622776601683795,3.1622776601683795,3.1622776601683795,3.1622776601683795
2,20,0.20452119999936258,q,46.6,Limited Time - 400ms,l,46.648546365117355,62.34662640042161,65.82945393143318,58.722849361804556,46.648546365117355,62.34662640042161,58.722849361804556,65.82945393143318,-10,-0.33,0.33,10,57,47,56.67,57.33,67,3.1622776601683795,3.1622776601683795,3.1622776601683795,3.1622776601683795
3,1,0.5649835000003804,q,79.5,Limited Time - 800ms,h,79.49470769010529,59.16444914914132,51.003221552202014,42.15174767115552,59.16444914914132,42.15174767115552,51.003221552202014,79.49470769010529,-10,-0.33,0.33,10,57,47,56.67,57.33,67,10,10,10,10
3,2,0.6033275999998295,w,61.4,Limited Time - 800ms,h,65.30525893543337,61.43339892548357,61.137960211333166,59.817631189793026,61.43339892548357,59.817631189793026,61.137960211333166,65.30525893543337,-10,-0.33,0.33,10,57,47,56.67,57.33,67,10,10,10,10
3,3,0.3067155000007915,o,65.6,Limited Time - 800ms,h,62.28620679372394,42.10509661949919,65.63398737367493,53.286844844826845,42.10509661949919,53.286844844826845,65.63398737367493,62.28620679372394,-10,-0.33,0.33,10,57,47,56.67,57.33,67,10,10,10,10
3,4,0.26802300000053947,p,60.5,Limited Time - 800ms,h,65.42197884561944,60.28136806882423,67.40722431495678,60.526775937762174,60.28136806882423,60.526775937762174,67.40722431495678,65.42197884561944,-10,-0.33,0.33,10,57,47,56.67,57.33,67,10,10,10,10
3,5,0.5389704999997775,q,72.9,Limited Time - 800ms,h,72.88447294113223,45.5499430225635,47.53248329249678,46.30117312447517,45.5499430225635,46.30117312447517,47.53248329249678,72.88447294113223,-10,-0.33,0.33,10,57,47,56.67,57.33,67,10,10,10,10
3,6,0.3062892000007196,q,69.8,Limited Time - 800ms,h,69.79068452555482,60.37632238289309,56.3963024549035,69.40374902785577,60.37632238289309,69.40374902785577,56.3963024549035,69.79068452555482,-10,-0.33,0.33,10,57,47,56.67,57.33,67,10,10,10,10
3,7,0.2624700999995184,q,85.7,Limited Time - 800ms,h,85.7083594975891,66.96787078007642,51.04706154340081,76.85189809883033,66.96787078007642,76.85189809883033,51.04706154340081,85.7083594975891,-10,-0.33,0.33,10,57,47,56.67,57.33,67,10,10,10,10
3,8,0.43389010000009876,q,82.3,Limited Time - 800ms,h,82.29667385194274,52.07828930665235,43.59447062877726,55.077597765631985,52.07828930665235,55.077597765631985,43.59447062877726,82.29667385194274,-10,-0.33,0.33,10,57,47,56.67,57.33,67,10,10,10,10
3,9,0.28733269999975164,q,55.3,Limited Time - 800ms,h,55.34466240827171,59.30304588972087,88.39019959094728,57.161389678402706,59.30304588972087,57.161389678402706,88.39019959094728,55.34466240827171,-10,-0.33,0.33,10,57,47,56.67,57.33,67,10,10,10,10
3,10,0.2213770000007571,q,67.8,Limited Time - 800ms,h,67.78772418146451,37.894231587331795,58.413517825981714,65.62722352414951,37.894231587331795,65.62722352414951,58.413517825981714,67.78772418146451,-10,-0.33,0.33,10,57,47,56.67,57.33,67,10,10,10,10
3,11,0.22002990000055433,q,56.9,Limited Time - 800ms,h,56.857448951980174,50.0406693976318,53.85832579043706,40.15850866266897,50.0406693976318,40.15850866266897,53.85832579043706,56.857448951980174,-10,-0.33,0.33,10,57,47,56.67,57.33,67,10,10,10,10
3,12,0.6575159000003623,w,58.2,Limited Time - 800ms,h,69.88490797332605,58.22308558401846,64.9219924980718,30.653454140812926,58.22308558401846,30.653454140812926,64.9219924980718,69.88490797332605,-10,-0.33,0.33,10,57,47,56.67,57.33,67,10,10,10,10
3,13,0.07222070000079839,o,54.1,Limited Time - 800ms,h,67.00032101912022,50.93154938960964,54.12845709370643,52.418836487370214,50.93154938960964,52.418836487370214,54.12845709370643,67.00032101912022,-10,-0.33,0.33,10,57,47,56.67,57.33,67,10,10,10,10
3,14,0.08639889999994921,p,79.3,Limited Time - 800ms,h,67.92174699007458,45.196955670697925,69.1174052676159,79.28696910218545,45.196955670697925,79.28696910218545,69.1174052676159,67.92174699007458,-10,-0.33,0.33,10,57,47,56.67,57.33,67,10,10,10,10
3,15,0.37178510000012466,q,66.4,Limited Time - 800ms,h,66.3578973665157,36.413958628404686,31.935138059877893,42.18364023423688,36.413958628404686,42.18364023423688,31.935138059877893,66.3578973665157,-10,-0.33,0.33,10,57,47,56.67,57.33,67,10,10,10,10
3,16,0.013254400000732858,p,43.1,Limited Time - 800ms,h,64.20567644389166,38.415807474877234,61.21493091642642,43.06295013091192,38.415807474877234,43.06295013091192,61.21493091642642,64.20567644389166,-10,-0.33,0.33,10,57,47,56.67,57.33,67,10,10,10,10
3,17,0.27191990000028454,q,70.5,Limited Time - 800ms,h,70.51787801276376,39.57018548426786,52.02404576820548,60.99072805666406,39.57018548426786,60.99072805666406,52.02404576820548,70.51787801276376,-10,-0.33,0.33,10,57,47,56.67,57.33,67,10,10,10,10
3,18,0.4337937999998758,q,74.8,Limited Time - 800ms,h,74.80533433191857,54.00690580448004,69.12810854886014,65.28712686467036,54.00690580448004,65.28712686467036,69.12810854886014,74.80533433191857,-10,-0.33,0.33,10,57,47,56.67,57.33,67,10,10,10,10
3,19,0.08786750000035681,p,52.9,Limited Time - 800ms,h,51.19735576740158,70.87334813681002,63.534010400798884,52.87162623146011,70.87334813681002,52.87162623146011,63.534010400798884,51.19735576740158,-10,-0.33,0.33,10,57,47,56.67,57.33,67,10,10,10,10
3,20,0.03530190000037692,q,70.2,Limited Time - 800ms,h,70.2428075082673,46.520166263484285,48.74537383893817,56.3342946664193,46.520166263484285,56.3342946664193,48.74537383893817,70.2428075082673,-10,-0.33,0.33,10,57,47,56.67,57.33,67,10,10,10,10
4,1,0.3003404999999475,q,64.3,Unlimited Time,e,64.32660252891341,59.039681551472015,50.56237490795008,41.98313064695287,59.039681551472015,64.32660252891341,41.98313064695287,50.56237490795008,0,0,0,0,57,57,57,57,57,3.1622776601683795,6.324555320336759,8.366600265340756,10
4,2,0.07496769999943353,q,50.5,Unlimited Time,e,50.54757605046585,61.195749509552115,62.35259044484846,57.132522884330534,61.195749509552115,50.54757605046585,57.132522884330534,62.35259044484846,0,0,0,0,57,57,57,57,57,3.1622776601683795,6.324555320336759,8.366600265340756,10
4,3,0.10436329999993177,q,55.6,Unlimited Time,e,55.61315540471795,55.3164840846876,44.9602849512028,47.384835339117025,55.3164840846876,55.61315540471795,47.384835339117025,44.9602849512028,0,0,0,0,57,57,57,57,57,3.1622776601683795,6.324555320336759,8.366600265340756,10
4,4,0.3347706000004109,q,52.8,Unlimited Time,e,52.79330837281766,60.36187773313783,55.90590675476081,57.358333996100434,60.36187773313783,52.79330837281766,57.358333996100434,55.90590675476081,0,0,0,0,57,57,57,57,57,3.1622776601683795,6.324555320336759,8.366600265340756,10
4,5,0.23831980000068143,p,72.7,Unlimited Time,e,53.51263500606087,54.25223553408199,60.71628289787072,72.65157536576163,54.25223553408199,53.51263500606087,72.65157536576163,60.71628289787072,0,0,0,0,57,57,57,57,57,3.1622776601683795,6.324555320336759,8.366600265340756,10
4,6,0.22696480000104202,q,51.6,Unlimited Time,e,51.55477210435746,55.58771915979312,54.33092333235921,68.69955433330323,55.58771915979312,51.55477210435746,68.69955433330323,54.33092333235921,0,0,0,0,57,57,57,57,57,3.1622776601683795,6.324555320336759,8.366600265340756,10
4,7,0.26880090000031487,p,57.2,Unlimited Time,e,56.01844581592032,56.43820039689917,54.55314927818753,57.17328345737246,56.43820039689917,56.01844581592032,57.17328345737246,54.55314927818753,0,0,0,0,57,57,57,57,57,3.1622776601683795,6.324555320336759,8.366600265340756,10
4,8,0.35691289999977016,p,56.4,Unlimited Time,e,54.29907444146934,57.235771909695806,54.46679568142194,56.44740845194341,57.235771909695806,54.29907444146934,56.44740845194341,54.46679568142194,0,0,0,0,57,57,57,57,57,3.1622776601683795,6.324555320336759,8.366600265340756,10
4,9,0.5163402000007409,q,49.1,Unlimited Time,e,49.146298116217466,59.075545114299004,61.05755158315628,62.522664933683195,59.075545114299004,49.146298116217466,62.522664933683195,61.05755158315628,0,0,0,0,57,57,57,57,57,3.1622776601683795,6.324555320336759,8.366600265340756,10
4,10,0.4701801000010164,q,48.2,Unlimited Time,e,48.20727890228513,59.20465190606694,40.49372605906382,55.6420222651587,59.20465190606694,48.20727890228513,55.6420222651587,40.49372605906382,0,0,0,0,57,57,57,57,57,3.1622776601683795,6.324555320336759,8.366600265340756,10
4,11,0.0449666000004072,o,66.8,Unlimited Time,e,59.128125885531375,59.892158782985774,66.75797776920069,57.22031485391875,59.892158782985774,59.128125885531375,57.22031485391875,66.75797776920069,0,0,0,0,57,57,57,57,57,3.1622776601683795,6.324555320336759,8.366600265340756,10
4,12,0.3239426000000094,w,55.9,Unlimited Time,e,48.35655638021821,55.85220296708647,52.8501244983299,63.80171207914138,55.85220296708647,48.35655638021821,63.80171207914138,52.8501244983299,0,0,0,0,57,57,57,57,57,3.1622776601683795,6.324555320336759,8.366600265340756,10
4,13,0.16445440000097733,p,56.6,Unlimited Time,e,48.26490217162568,59.70276688221273,73.33734262560293,56.60196986653915,59.70276688221273,48.26490217162568,56.60196986653915,73.33734262560293,0,0,0,0,57,57,57,57,57,3.1622776601683795,6.324555320336759,8.366600265340756,10
4,14,0.08180149999952846,q,54.7,Unlimited Time,e,54.73927630803319,64.45532488259431,69.95205800401496,51.645060763407194,64.45532488259431,54.73927630803319,51.645060763407194,69.95205800401496,0,0,0,0,57,57,57,57,57,3.1622776601683795,6.324555320336759,8.366600265340756,10
4,15,0.25915230000009615,p,66.3,Unlimited Time,e,61.456836014879606,55.38714835597902,58.094075849278696,66.25989571707109,55.38714835597902,61.456836014879606,66.25989571707109,58.094075849278696,0,0,0,0,57,57,57,57,57,3.1622776601683795,6.324555320336759,8.366600265340756,10
4,16,0.33444410000083735,q,56.2,Unlimited Time,e,56.19342022630376,53.67754810589538,58.56020546816241,44.4096521143027,53.67754810589538,56.19342022630376,44.4096521143027,58.56020546816241,0,0,0,0,57,57,57,57,57,3.1622776601683795,6.324555320336759,8.366600265340756,10
4,17,0.2890653000004022,p,86.8,Unlimited Time,e,57.89721535528638,57.83781980588874,43.37555557831983,86.75457426784597,57.83781980588874,57.89721535528638,86.75457426784597,43.37555557831983,0,0,0,0,57,57,57,57,57,3.1622776601683795,6.324555320336759,8.366600265340756,10
4,18,0.2131920000001628,q,67.3,Unlimited Time,e,67.26868371890946,54.227225910266846,83.58261525581956,50.12991900535002,54.227225910266846,67.26868371890946,50.12991900535002,83.58261525581956,0,0,0,0,57,57,57,57,57,3.1622776601683795,6.324555320336759,8.366600265340756,10
4,19,0.32283970000025874,p,56.2,Unlimited Time,e,61.69614207625037,56.458370409329774,36.650687381911446,56.2391679897053,56.458370409329774,61.69614207625037,56.2391679897053,36.650687381911446,0,0,0,0,57,57,57,57,57,3.1622776601683795,6.324555320336759,8.366600265340756,10
4,20,0.07307130000026518,p,54.7,Unlimited Time,e,62.91679623669183,57.274234961218426,66.92563345102876,54.696221271915476,57.274234961218426,62.91679623669183,54.696221271915476,66.92563345102876,0,0,0,0,57,57,57,57,57,3.1622776601683795,6.324555320336759,8.366600265340756,10
5,1,,,0.0,Limited Time - 400ms,h,59.16444914914132,51.003221552202014,42.15174767115552,79.49470769010529,59.16444914914132,42.15174767115552,51.003221552202014,79.49470769010529,-10,-0.33,0.33,10,57,47,56.67,57.33,67,10,10,10,10
5,2,0.0763065999999526,p,65.3,Limited Time - 400ms,h,61.43339892548357,61.137960211333166,59.817631189793026,65.30525893543337,61.43339892548357,59.817631189793026,61.137960211333166,65.30525893543337,-10,-0.33,0.33,10,57,47,56.67,57.33,67,10,10,10,10
5,3,0.17650780000076338,p,62.3,Limited Time - 400ms,h,42.10509661949919,65.63398737367493,53.286844844826845,62.28620679372394,42.10509661949919,53.286844844826845,65.63398737367493,62.28620679372394,-10,-0.33,0.33,10,57,47,56.67,57.33,67,10,10,10,10
5,4,,,0.0,Limited Time - 400ms,h,60.28136806882423,67.40722431495678,60.526775937762174,65.42197884561944,60.28136806882423,60.526775937762174,67.40722431495678,65.42197884561944,-10,-0.33,0.33,10,57,47,56.67,57.33,67,10,10,10,10
5,5,0.05522139999993669,q,45.5,Limited Time - 400ms,h,45.5499430225635,47.53248329249678,46.30117312447517,72.88447294113223,45.5499430225635,46.30117312447517,47.53248329249678,72.88447294113223,-10,-0.33,0.33,10,57,47,56.67,57.33,67,10,10,10,10
5,6,,,0.0,Limited Time - 400ms,h,60.37632238289309,56.3963024549035,69.40374902785577,69.79068452555482,60.37632238289309,69.40374902785577,56.3963024549035,69.79068452555482,-10,-0.33,0.33,10,57,47,56.67,57.33,67,10,10,10,10
5,7,0.19610780000039085,p,85.7,Limited Time - 400ms,h,66.96787078007642,51.04706154340081,76.85189809883033,85.7083594975891,66.96787078007642,76.85189809883033,51.04706154340081,85.7083594975891,-10,-0.33,0.33,10,57,47,56.67,57.33,67,10,10,10,10
5,8,,,0.0,Limited Time - 400ms,h,52.07828930665235,43.59447062877726,55.077597765631985,82.29667385194274,52.07828930665235,55.077597765631985,43.59447062877726,82.29667385194274,-10,-0.33,0.33,10,57,47,56.67,57.33,67,10,10,10,10
5,9,0.014199500000358967,q,59.3,Limited Time - 400ms,h,59.30304588972087,88.39019959094728,57.161389678402706,55.34466240827171,59.30304588972087,57.161389678402706,88.39019959094728,55.34466240827171,-10,-0.33,0.33,10,57,47,56.67,57.33,67,10,10,10,10
5,10,0.28059030000076746,q,37.9,Limited Time - 400ms,h,37.894231587331795,58.413517825981714,65.62722352414951,67.78772418146451,37.894231587331795,65.62722352414951,58.413517825981714,67.78772418146451,-10,-0.33,0.33,10,57,47,56.67,57.33,67,10,10,10,10
5,11,0.1577182000000903,q,50.0,Limited Time - 400ms,h,50.0406693976318,53.85832579043706,40.15850866266897,56.857448951980174,50.0406693976318,40.15850866266897,53.85832579043706,56.857448951980174,-10,-0.33,0.33,10,57,47,56.67,57.33,67,10,10,10,10
5,12,0.032654399999955785,p,69.9,Limited Time - 400ms,h,58.22308558401846,64.9219924980718,30.653454140812926,69.88490797332605,58.22308558401846,30.653454140812926,64.9219924980718,69.88490797332605,-10,-0.33,0.33,10,57,47,56.67,57.33,67,10,10,10,10
5,13,0.0035951999998360407,p,67.0,Limited Time - 400ms,h,50.93154938960964,54.12845709370643,52.418836487370214,67.00032101912022,50.93154938960964,52.418836487370214,54.12845709370643,67.00032101912022,-10,-0.33,0.33,10,57,47,56.67,57.33,67,10,10,10,10
5,14,,,0.0,Limited Time - 400ms,h,45.196955670697925,69.1174052676159,79.28696910218545,67.92174699007458,45.196955670697925,79.28696910218545,69.1174052676159,67.92174699007458,-10,-0.33,0.33,10,57,47,56.67,57.33,67,10,10,10,10
5,15,0.18155569999998988,w,31.9,Limited Time - 400ms,h,36.413958628404686,31.935138059877893,42.18364023423688,66.3578973665157,36.413958628404686,42.18364023423688,31.935138059877893,66.3578973665157,-10,-0.33,0.33,10,57,47,56.67,57.33,67,10,10,10,10
5,16,,,0.0,Limited Time - 400ms,h,38.415807474877234,61.21493091642642,43.06295013091192,64.20567644389166,38.415807474877234,43.06295013091192,61.21493091642642,64.20567644389166,-10,-0.33,0.33,10,57,47,56.67,57.33,67,10,10,10,10
5,17,0.314490200000364,q,39.6,Limited Time - 400ms,h,39.57018548426786,52.02404576820548,60.99072805666406,70.51787801276376,39.57018548426786,60.99072805666406,52.02404576820548,70.51787801276376,-10,-0.33,0.33,10,57,47,56.67,57.33,67,10,10,10,10
5,18,0.29262500000004366,q,54.0,Limited Time - 400ms,h,54.00690580448004,69.12810854886014,65.28712686467036,74.80533433191857,54.00690580448004,65.28712686467036,69.12810854886014,74.80533433191857,-10,-0.33,0.33,10,57,47,56.67,57.33,67,10,10,10,10
5,19,0.1595132000002195,q,70.9,Limited Time - 400ms,h,70.87334813681002,63.534010400798884,52.87162623146011,51.19735576740158,70.87334813681002,52.87162623146011,63.534010400798884,51.19735576740158,-10,-0.33,0.33,10,57,47,56.67,57.33,67,10,10,10,10
5,20,0.30321940000067116,p,70.2,Limited Time - 400ms,h,46.520166263484285,48.74537383893817,56.3342946664193,70.2428075082673,46.520166263484285,56.3342946664193,48.74537383893817,70.2428075082673,-10,-0.33,0.33,10,57,47,56.67,57.33,67,10,10,10,10
6,1,,,0.0,Limited Time - 800ms,l,47.22245554297311,56.661001257413474,56.98877587365785,63.79867492317993,47.22245554297311,56.98877587365785,56.661001257413474,63.79867492317993,-10,-0.33,0.33,10,57,47,56.67,57.33,67,3.1622776601683795,3.1622776601683795,3.1622776601683795,3.1622776601683795
6,2,0.0867246999996496,q,53.6,Limited Time - 800ms,l,53.5834552418357,57.36318518208928,54.372497659257164,67.94066676345419,53.5834552418357,54.372497659257164,57.36318518208928,67.94066676345419,-10,-0.33,0.33,10,57,47,56.67,57.33,67,3.1622776601683795,3.1622776601683795,3.1622776601683795,3.1622776601683795
6,3,0.43191960000058316,p,68.9,Limited Time - 800ms,l,46.46783279729743,60.199778420170304,59.61589859264765,68.85843774629024,46.46783279729743,59.61589859264765,60.199778420170304,68.85843774629024,-10,-0.33,0.33,10,57,47,56.67,57.33,67,3.1622776601683795,3.1622776601683795,3.1622776601683795,3.1622776601683795
6,4,0.5681889000006777,o,55.4,Limited Time - 800ms,l,45.21514666981317,55.80105464985162,55.37835128874307,66.0942359662671,45.21514666981317,55.37835128874307,55.80105464985162,66.0942359662671,-10,-0.33,0.33,10,57,47,56.67,57.33,67,3.1622776601683795,3.1622776601683795,3.1622776601683795,3.1622776601683795
6,5,0.17347140000038053,p,65.9,Limited Time - 800ms,l,49.30241786030354,50.08205311271375,56.54123317540891,65.88147684202447,49.30241786030354,56.54123317540891,50.08205311271375,65.88147684202447,-10,-0.33,0.33,10,57,47,56.67,57.33,67,3.1622776601683795,3.1622776601683795,3.1622776601683795,3.1622776601683795
6,6,0.09630550000019866,q,49.6,Limited Time - 800ms,l,49.57116712586664,57.61544789892671,55.133970997627145,65.9006342828921,49.57116712586664,55.133970997627145,57.61544789892671,65.9006342828921,-10,-0.33,0.33,10,57,47,56.67,57.33,67,3.1622776601683795,3.1622776601683795,3.1622776601683795,3.1622776601683795
6,7,0.052548599999681755,q,49.1,Limited Time - 800ms,l,49.11414506164087,54.2797949894176,54.87836877446938,73.44447576226315,49.11414506164087,54.87836877446938,54.2797949894176,73.44447576226315,-10,-0.33,0.33,10,57,47,56.67,57.33,67,3.1622776601683795,3.1622776601683795,3.1622776601683795,3.1622776601683795
6,8,0.050644699999793374,q,47.5,Limited Time - 800ms,l,47.526125635068546,55.958047979607954,57.53086947732345,67.35702817217756,47.526125635068546,57.53086947732345,55.958047979607954,67.35702817217756,-10,-0.33,0.33,10,57,47,56.67,57.33,67,3.1622776601683795,3.1622776601683795,3.1622776601683795,3.1622776601683795
6,9,0.1002864000001864,q,48.5,Limited Time - 800ms,l,48.50544119714934,56.186061505332084,56.85830500137027,68.08391916168992,48.50544119714934,56.85830500137027,56.186061505332084,68.08391916168992,-10,-0.33,0.33,10,57,47,56.67,57.33,67,3.1622776601683795,3.1622776601683795,3.1622776601683795,3.1622776601683795
6,10,0.5556406000005154,q,42.8,Limited Time - 800ms,l,42.81976383767532,58.793817836193085,60.005281278362034,68.65393459433331,42.81976383767532,60.005281278362034,58.793817836193085,68.65393459433331,-10,-0.33,0.33,10,57,47,56.67,57.33,67,3.1622776601683795,3.1622776601683795,3.1622776601683795,3.1622776601683795
6,11,0.556301300000996,p,69.2,Limited Time - 800ms,l,50.36283205114954,56.85454021613526,59.005385912298586,69.18691727939031,50.36283205114954,59.005385912298586,56.85454021613526,69.18691727939031,-10,-0.33,0.33,10,57,47,56.67,57.33,67,3.1622776601683795,3.1622776601683795,3.1622776601683795,3.1622776601683795
6,12,0.3321050999993531,p,66.0,Limited Time - 800ms,l,42.00168315496179,57.63856849834145,55.72459033686464,65.99234508170272,42.00168315496179,55.72459033686464,57.63856849834145,65.99234508170272,-10,-0.33,0.33,10,57,47,56.67,57.33,67,3.1622776601683795,3.1622776601683795,3.1622776601683795,3.1622776601683795
6,13,0.5503690000005008,p,65.2,Limited Time - 800ms,l,40.09188170373062,53.28349146321807,60.3421917928743,65.24283988476323,40.09188170373062,60.3421917928743,53.28349146321807,65.24283988476323,-10,-0.33,0.33,10,57,47,56.67,57.33,67,3.1622776601683795,3.1622776601683795,3.1622776601683795,3.1622776601683795
6,14,0.5665542000006099,q,49.8,Limited Time - 800ms,l,49.82328555163317,50.37245509970768,56.9000801130433,63.363682516284136,49.82328555163317,56.9000801130433,50.37245509970768,63.363682516284136,-10,-0.33,0.33,10,57,47,56.67,57.33,67,3.1622776601683795,3.1622776601683795,3.1622776601683795,3.1622776601683795
6,15,0.41956149999987247,o,56.0,Limited Time - 800ms,l,44.72897249566834,58.603976087410565,56.02902773747297,65.28018919122489,44.72897249566834,56.02902773747297,58.603976087410565,65.28018919122489,-10,-0.33,0.33,10,57,47,56.67,57.33,67,3.1622776601683795,3.1622776601683795,3.1622776601683795,3.1622776601683795
6,16,0.1735478000000512,o,61.0,Limited Time - 800ms,l,45.38728304166509,59.296132924526454,60.975084331486435,67.77835568816182,45.38728304166509,60.975084331486435,59.296132924526454,67.77835568816182,-10,-0.33,0.33,10,57,47,56.67,57.33,67,3.1622776601683795,3.1622776601683795,3.1622776601683795,3.1622776601683795
6,17,0.41607530000055704,p,61.3,Limited Time - 800ms,l,46.67458129066582,56.82193336402642,52.16554852211422,61.31822842440641,46.67458129066582,52.16554852211422,56.82193336402642,61.31822842440641,-10,-0.33,0.33,10,57,47,56.67,57.33,67,3.1622776601683795,3.1622776601683795,3.1622776601683795,3.1622776601683795
6,18,0.445750599999883,p,62.1,Limited Time - 800ms,l,48.879419862541376,59.79069685589869,52.689672885948994,62.07342346368186,48.879419862541376,52.689672885948994,59.79069685589869,62.07342346368186,-10,-0.33,0.33,10,57,47,56.67,57.33,67,3.1622776601683795,3.1622776601683795,3.1622776601683795,3.1622776601683795
6,19,0.4025096000004851,p,66.0,Limited Time - 800ms,l,49.32672656435558,56.90516177227048,55.45229872918924,65.95038962570516,49.32672656435558,55.45229872918924,56.90516177227048,65.95038962570516,-10,-0.33,0.33,10,57,47,56.67,57.33,67,3.1622776601683795,3.1622776601683795,3.1622776601683795,3.1622776601683795
6,20,0.0470378999998502,p,65.8,Limited Time - 800ms,l,46.648546365117355,58.722849361804556,62.34662640042161,65.82945393143318,46.648546365117355,62.34662640042161,58.722849361804556,65.82945393143318,-10,-0.33,0.33,10,57,47,56.67,57.33,67,3.1622776601683795,3.1622776601683795,3.1622776601683795,3.1622776601683795
7,1,0.9155266999996456,q,47.2,Unlimited Time,l,47.22245554297311,56.98877587365785,63.79867492317993,56.661001257413474,47.22245554297311,56.98877587365785,56.661001257413474,63.79867492317993,-10,-0.33,0.33,10,57,47,56.67,57.33,67,3.1622776601683795,3.1622776601683795,3.1622776601683795,3.1622776601683795
7,2,0.3999522000003708,w,54.4,Unlimited Time,l,53.5834552418357,54.372497659257164,67.94066676345419,57.36318518208928,53.5834552418357,54.372497659257164,57.36318518208928,67.94066676345419,-10,-0.33,0.33,10,57,47,56.67,57.33,67,3.1622776601683795,3.1622776601683795,3.1622776601683795,3.1622776601683795
7,3,0.5788861999999426,o,68.9,Unlimited Time,l,46.46783279729743,59.61589859264765,68.85843774629024,60.199778420170304,46.46783279729743,59.61589859264765,60.199778420170304,68.85843774629024,-10,-0.33,0.33,10,57,47,56.67,57.33,67,3.1622776601683795,3.1622776601683795,3.1622776601683795,3.1622776601683795
7,4,0.4102640999999494,p,55.8,Unlimited Time,l,45.21514666981317,55.37835128874307,66.0942359662671,55.80105464985162,45.21514666981317,55.37835128874307,55.80105464985162,66.0942359662671,-10,-0.33,0.33,10,57,47,56.67,57.33,67,3.1622776601683795,3.1622776601683795,3.1622776601683795,3.1622776601683795
7,5,0.2869178999999349,o,65.9,Unlimited Time,l,49.30241786030354,56.54123317540891,65.88147684202447,50.08205311271375,49.30241786030354,56.54123317540891,50.08205311271375,65.88147684202447,-10,-0.33,0.33,10,57,47,56.67,57.33,67,3.1622776601683795,3.1622776601683795,3.1622776601683795,3.1622776601683795
7,6,0.5797132000006968,o,65.9,Unlimited Time,l,49.57116712586664,55.133970997627145,65.9006342828921,57.61544789892671,49.57116712586664,55.133970997627145,57.61544789892671,65.9006342828921,-10,-0.33,0.33,10,57,47,56.67,57.33,67,3.1622776601683795,3.1622776601683795,3.1622776601683795,3.1622776601683795
7,7,0.2583863999998357,o,73.4,Unlimited Time,l,49.11414506164087,54.87836877446938,73.44447576226315,54.2797949894176,49.11414506164087,54.87836877446938,54.2797949894176,73.44447576226315,-10,-0.33,0.33,10,57,47,56.67,57.33,67,3.1622776601683795,3.1622776601683795,3.1622776601683795,3.1622776601683795
7,8,0.9463210000003528,o,67.4,Unlimited Time,l,47.526125635068546,57.53086947732345,67.35702817217756,55.958047979607954,47.526125635068546,57.53086947732345,55.958047979607954,67.35702817217756,-10,-0.33,0.33,10,57,47,56.67,57.33,67,3.1622776601683795,3.1622776601683795,3.1622776601683795,3.1622776601683795
7,9,0.5187592000002041,o,68.1,Unlimited Time,l,48.50544119714934,56.85830500137027,68.08391916168992,56.186061505332084,48.50544119714934,56.85830500137027,56.186061505332084,68.08391916168992,-10,-0.33,0.33,10,57,47,56.67,57.33,67,3.1622776601683795,3.1622776601683795,3.1622776601683795,3.1622776601683795
7,10,0.3380507000001671,o,68.7,Unlimited Time,l,42.81976383767532,60.005281278362034,68.65393459433331,58.793817836193085,42.81976383767532,60.005281278362034,58.793817836193085,68.65393459433331,-10,-0.33,0.33,10,57,47,56.67,57.33,67,3.1622776601683795,3.1622776601683795,3.1622776601683795,3.1622776601683795
7,11,0.3496111000004021,o,69.2,Unlimited Time,l,50.36283205114954,59.005385912298586,69.18691727939031,56.85454021613526,50.36283205114954,59.005385912298586,56.85454021613526,69.18691727939031,-10,-0.33,0.33,10,57,47,56.67,57.33,67,3.1622776601683795,3.1622776601683795,3.1622776601683795,3.1622776601683795
7,12,0.6159204999994472,o,66.0,Unlimited Time,l,42.00168315496179,55.72459033686464,65.99234508170272,57.63856849834145,42.00168315496179,55.72459033686464,57.63856849834145,65.99234508170272,-10,-0.33,0.33,10,57,47,56.67,57.33,67,3.1622776601683795,3.1622776601683795,3.1622776601683795,3.1622776601683795
7,13,0.20843580000018846,o,65.2,Unlimited Time,l,40.09188170373062,60.3421917928743,65.24283988476323,53.28349146321807,40.09188170373062,60.3421917928743,53.28349146321807,65.24283988476323,-10,-0.33,0.33,10,57,47,56.67,57.33,67,3.1622776601683795,3.1622776601683795,3.1622776601683795,3.1622776601683795
7,14,0.8246036000000458,o,63.4,Unlimited Time,l,49.82328555163317,56.9000801130433,63.363682516284136,50.37245509970768,49.82328555163317,56.9000801130433,50.37245509970768,63.363682516284136,-10,-0.33,0.33,10,57,47,56.67,57.33,67,3.1622776601683795,3.1622776601683795,3.1622776601683795,3.1622776601683795
7,15,0.1460638000007748,o,65.3,Unlimited Time,l,44.72897249566834,56.02902773747297,65.28018919122489,58.603976087410565,44.72897249566834,56.02902773747297,58.603976087410565,65.28018919122489,-10,-0.33,0.33,10,57,47,56.67,57.33,67,3.1622776601683795,3.1622776601683795,3.1622776601683795,3.1622776601683795
7,16,0.48029219999989436,o,67.8,Unlimited Time,l,45.38728304166509,60.975084331486435,67.77835568816182,59.296132924526454,45.38728304166509,60.975084331486435,59.296132924526454,67.77835568816182,-10,-0.33,0.33,10,57,47,56.67,57.33,67,3.1622776601683795,3.1622776601683795,3.1622776601683795,3.1622776601683795
7,17,0.2596778000006452,o,61.3,Unlimited Time,l,46.67458129066582,52.16554852211422,61.31822842440641,56.82193336402642,46.67458129066582,52.16554852211422,56.82193336402642,61.31822842440641,-10,-0.33,0.33,10,57,47,56.67,57.33,67,3.1622776601683795,3.1622776601683795,3.1622776601683795,3.1622776601683795
7,18,0.2821273999998084,o,62.1,Unlimited Time,l,48.879419862541376,52.689672885948994,62.07342346368186,59.79069685589869,48.879419862541376,52.689672885948994,59.79069685589869,62.07342346368186,-10,-0.33,0.33,10,57,47,56.67,57.33,67,3.1622776601683795,3.1622776601683795,3.1622776601683795,3.1622776601683795
7,19,0.17692280000028404,o,66.0,Unlimited Time,l,49.32672656435558,55.45229872918924,65.95038962570516,56.90516177227048,49.32672656435558,55.45229872918924,56.90516177227048,65.95038962570516,-10,-0.33,0.33,10,57,47,56.67,57.33,67,3.1622776601683795,3.1622776601683795,3.1622776601683795,3.1622776601683795
7,20,0.7488739000000351,o,65.8,Unlimited Time,l,46.648546365117355,62.34662640042161,65.82945393143318,58.722849361804556,46.648546365117355,62.34662640042161,58.722849361804556,65.82945393143318,-10,-0.33,0.33,10,57,47,56.67,57.33,67,3.1622776601683795,3.1622776601683795,3.1622776601683795,3.1622776601683795
8,1,,,0.0,Limited Time - 400ms,h,59.16444914914132,79.49470769010529,51.003221552202014,42.15174767115552,59.16444914914132,42.15174767115552,51.003221552202014,79.49470769010529,-10,-0.33,0.33,10,57,47,56.67,57.33,67,10,10,10,10
8,2,0.18719510000028095,o,61.1,Limited Time - 400ms,h,61.43339892548357,65.30525893543337,61.137960211333166,59.817631189793026,61.43339892548357,59.817631189793026,61.137960211333166,65.30525893543337,-10,-0.33,0.33,10,57,47,56.67,57.33,67,10,10,10,10
8,3,0.11728219999986322,w,62.3,Limited Time - 400ms,h,42.10509661949919,62.28620679372394,65.63398737367493,53.286844844826845,42.10509661949919,53.286844844826845,65.63398737367493,62.28620679372394,-10,-0.33,0.33,10,57,47,56.67,57.33,67,10,10,10,10
8,4,0.008185900000171387,o,67.4,Limited Time - 400ms,h,60.28136806882423,65.42197884561944,67.40722431495678,60.526775937762174,60.28136806882423,60.526775937762174,67.40722431495678,65.42197884561944,-10,-0.33,0.33,10,57,47,56.67,57.33,67,10,10,10,10
8,5,0.14474820000032196,o,47.5,Limited Time - 400ms,h,45.5499430225635,72.88447294113223,47.53248329249678,46.30117312447517,45.5499430225635,46.30117312447517,47.53248329249678,72.88447294113223,-10,-0.33,0.33,10,57,47,56.67,57.33,67,10,10,10,10
8,6,0.03288009999960195,o,56.4,Limited Time - 400ms,h,60.37632238289309,69.79068452555482,56.3963024549035,69.40374902785577,60.37632238289309,69.40374902785577,56.3963024549035,69.79068452555482,-10,-0.33,0.33,10,57,47,56.67,57.33,67,10,10,10,10
8,7,0.0540660000006028,o,51.0,Limited Time - 400ms,h,66.96787078007642,85.7083594975891,51.04706154340081,76.85189809883033,66.96787078007642,76.85189809883033,51.04706154340081,85.7083594975891,-10,-0.33,0.33,10,57,47,56.67,57.33,67,10,10,10,10
8,8,0.0030182000000422704,o,43.6,Limited Time - 400ms,h,52.07828930665235,82.29667385194274,43.59447062877726,55.077597765631985,52.07828930665235,55.077597765631985,43.59447062877726,82.29667385194274,-10,-0.33,0.33,10,57,47,56.67,57.33,67,10,10,10,10
8,9,0.054402299999310344,o,88.4,Limited Time - 400ms,h,59.30304588972087,55.34466240827171,88.39019959094728,57.161389678402706,59.30304588972087,57.161389678402706,88.39019959094728,55.34466240827171,-10,-0.33,0.33,10,57,47,56.67,57.33,67,10,10,10,10
8,10,0.06005949999962468,o,58.4,Limited Time - 400ms,h,37.894231587331795,67.78772418146451,58.413517825981714,65.62722352414951,37.894231587331795,65.62722352414951,58.413517825981714,67.78772418146451,-10,-0.33,0.33,10,57,47,56.67,57.33,67,10,10,10,10
8,11,0.05372129999977915,o,53.9,Limited Time - 400ms,h,50.0406693976318,56.857448951980174,53.85832579043706,40.15850866266897,50.0406693976318,40.15850866266897,53.85832579043706,56.857448951980174,-10,-0.33,0.33,10,57,47,56.67,57.33,67,10,10,10,10
8,12,0.062171200000193494,o,64.9,Limited Time - 400ms,h,58.22308558401846,69.88490797332605,64.9219924980718,30.653454140812926,58.22308558401846,30.653454140812926,64.9219924980718,69.88490797332605,-10,-0.33,0.33,10,57,47,56.67,57.33,67,10,10,10,10
8,13,0.1352487000003748,o,54.1,Limited Time - 400ms,h,50.93154938960964,67.00032101912022,54.12845709370643,52.418836487370214,50.93154938960964,52.418836487370214,54.12845709370643,67.00032101912022,-10,-0.33,0.33,10,57,47,56.67,57.33,67,10,10,10,10
8,14,0.05753660000027594,o,69.1,Limited Time - 400ms,h,45.196955670697925,67.92174699007458,69.1174052676159,79.28696910218545,45.196955670697925,79.28696910218545,69.1174052676159,67.92174699007458,-10,-0.33,0.33,10,57,47,56.67,57.33,67,10,10,10,10
8,15,0.08330099999966478,o,31.9,Limited Time - 400ms,h,36.413958628404686,66.3578973665157,31.935138059877893,42.18364023423688,36.413958628404686,42.18364023423688,31.935138059877893,66.3578973665157,-10,-0.33,0.33,10,57,47,56.67,57.33,67,10,10,10,10
8,16,0.09846570000081556,o,61.2,Limited Time - 400ms,h,38.415807474877234,64.20567644389166,61.21493091642642,43.06295013091192,38.415807474877234,43.06295013091192,61.21493091642642,64.20567644389166,-10,-0.33,0.33,10,57,47,56.67,57.33,67,10,10,10,10
8,17,0.11389380000036908,o,52.0,Limited Time - 400ms,h,39.57018548426786,70.51787801276376,52.02404576820548,60.99072805666406,39.57018548426786,60.99072805666406,52.02404576820548,70.51787801276376,-10,-0.33,0.33,10,57,47,56.67,57.33,67,10,10,10,10
8,18,,,0.0,Limited Time - 400ms,h,54.00690580448004,74.80533433191857,69.12810854886014,65.28712686467036,54.00690580448004,65.28712686467036,69.12810854886014,74.80533433191857,-10,-0.33,0.33,10,57,47,56.67,57.33,67,10,10,10,10
8,19,0.1358884000001126,o,63.5,Limited Time - 400ms,h,70.87334813681002,51.19735576740158,63.534010400798884,52.87162623146011,70.87334813681002,52.87162623146011,63.534010400798884,51.19735576740158,-10,-0.33,0.33,10,57,47,56.67,57.33,67,10,10,10,10
8,20,0.13233340000078897,o,48.7,Limited Time - 400ms,h,46.520166263484285,70.2428075082673,48.74537383893817,56.3342946664193,46.520166263484285,56.3342946664193,48.74537383893817,70.2428075082673,-10,-0.33,0.33,10,57,47,56.67,57.33,67,10,10,10,10
9,1,,,0.0,Limited Time - 800ms,l,47.22245554297311,56.661001257413474,56.98877587365785,63.79867492317993,47.22245554297311,56.98877587365785,56.661001257413474,63.79867492317993,-10,-0.33,0.33,10,57,47,56.67,57.33,67,3.1622776601683795,3.1622776601683795,3.1622776601683795,3.1622776601683795
9,2,0.10634120000031544,w,57.4,Limited Time - 800ms,l,53.5834552418357,57.36318518208928,54.372497659257164,67.94066676345419,53.5834552418357,54.372497659257164,57.36318518208928,67.94066676345419,-10,-0.33,0.33,10,57,47,56.67,57.33,67,3.1622776601683795,3.1622776601683795,3.1622776601683795,3.1622776601683795
9,3,0.10838320000038948,o,59.6,Limited Time - 800ms,l,46.46783279729743,60.199778420170304,59.61589859264765,68.85843774629024,46.46783279729743,59.61589859264765,60.199778420170304,68.85843774629024,-10,-0.33,0.33,10,57,47,56.67,57.33,67,3.1622776601683795,3.1622776601683795,3.1622776601683795,3.1622776601683795
9,4,0.017211200000019744,w,55.8,Limited Time - 800ms,l,45.21514666981317,55.80105464985162,55.37835128874307,66.0942359662671,45.21514666981317,55.37835128874307,55.80105464985162,66.0942359662671,-10,-0.33,0.33,10,57,47,56.67,57.33,67,3.1622776601683795,3.1622776601683795,3.1622776601683795,3.1622776601683795
9,5,0.15061510000032285,w,50.1,Limited Time - 800ms,l,49.30241786030354,50.08205311271375,56.54123317540891,65.88147684202447,49.30241786030354,56.54123317540891,50.08205311271375,65.88147684202447,-10,-0.33,0.33,10,57,47,56.67,57.33,67,3.1622776601683795,3.1622776601683795,3.1622776601683795,3.1622776601683795
9,6,0.09539150000000518,q,49.6,Limited Time - 800ms,l,49.57116712586664,57.61544789892671,55.133970997627145,65.9006342828921,49.57116712586664,55.133970997627145,57.61544789892671,65.9006342828921,-10,-0.33,0.33,10,57,47,56.67,57.33,67,3.1622776601683795,3.1622776601683795,3.1622776601683795,3.1622776601683795
9,7,0.19371640000008483,w,54.3,Limited Time - 800ms,l,49.11414506164087,54.2797949894176,54.87836877446938,73.44447576226315,49.11414506164087,54.87836877446938,54.2797949894176,73.44447576226315,-10,-0.33,0.33,10,57,47,56.67,57.33,67,3.1622776601683795,3.1622776601683795,3.1622776601683795,3.1622776601683795
9,8,0.08100220000051195,w,56.0,Limited Time - 800ms,l,47.526125635068546,55.958047979607954,57.53086947732345,67.35702817217756,47.526125635068546,57.53086947732345,55.958047979607954,67.35702817217756,-10,-0.33,0.33,10,57,47,56.67,57.33,67,3.1622776601683795,3.1622776601683795,3.1622776601683795,3.1622776601683795
9,9,0.13499470000078873,p,68.1,Limited Time - 800ms,l,48.50544119714934,56.186061505332084,56.85830500137027,68.08391916168992,48.50544119714934,56.85830500137027,56.186061505332084,68.08391916168992,-10,-0.33,0.33,10,57,47,56.67,57.33,67,3.1622776601683795,3.1622776601683795,3.1622776601683795,3.1622776601683795
9,10,0.13966350000009697,o,60.0,Limited Time - 800ms,l,42.81976383767532,58.793817836193085,60.005281278362034,68.65393459433331,42.81976383767532,60.005281278362034,58.793817836193085,68.65393459433331,-10,-0.33,0.33,10,57,47,56.67,57.33,67,3.1622776601683795,3.1622776601683795,3.1622776601683795,3.1622776601683795
9,11,0.0192747999999483,p,69.2,Limited Time - 800ms,l,50.36283205114954,56.85454021613526,59.005385912298586,69.18691727939031,50.36283205114954,59.005385912298586,56.85454021613526,69.18691727939031,-10,-0.33,0.33,10,57,47,56.67,57.33,67,3.1622776601683795,3.1622776601683795,3.1622776601683795,3.1622776601683795
9,12,0.23191080000015063,p,66.0,Limited Time - 800ms,l,42.00168315496179,57.63856849834145,55.72459033686464,65.99234508170272,42.00168315496179,55.72459033686464,57.63856849834145,65.99234508170272,-10,-0.33,0.33,10,57,47,56.67,57.33,67,3.1622776601683795,3.1622776601683795,3.1622776601683795,3.1622776601683795
9,13,0.25919150000027,p,65.2,Limited Time - 800ms,l,40.09188170373062,53.28349146321807,60.3421917928743,65.24283988476323,40.09188170373062,60.3421917928743,53.28349146321807,65.24283988476323,-10,-0.33,0.33,10,57,47,56.67,57.33,67,3.1622776601683795,3.1622776601683795,3.1622776601683795,3.1622776601683795
9,14,0.19379860000026383,p,63.4,Limited Time - 800ms,l,49.82328555163317,50.37245509970768,56.9000801130433,63.363682516284136,49.82328555163317,56.9000801130433,50.37245509970768,63.363682516284136,-10,-0.33,0.33,10,57,47,56.67,57.33,67,3.1622776601683795,3.1622776601683795,3.1622776601683795,3.1622776601683795
9,15,0.09560590000000957,p,65.3,Limited Time - 800ms,l,44.72897249566834,58.603976087410565,56.02902773747297,65.28018919122489,44.72897249566834,56.02902773747297,58.603976087410565,65.28018919122489,-10,-0.33,0.33,10,57,47,56.67,57.33,67,3.1622776601683795,3.1622776601683795,3.1622776601683795,3.1622776601683795
9,16,0.13958030000048893,p,67.8,Limited Time - 800ms,l,45.38728304166509,59.296132924526454,60.975084331486435,67.77835568816182,45.38728304166509,60.975084331486435,59.296132924526454,67.77835568816182,-10,-0.33,0.33,10,57,47,56.67,57.33,67,3.1622776601683795,3.1622776601683795,3.1622776601683795,3.1622776601683795
9,17,0.20329190000029485,p,61.3,Limited Time - 800ms,l,46.67458129066582,56.82193336402642,52.16554852211422,61.31822842440641,46.67458129066582,52.16554852211422,56.82193336402642,61.31822842440641,-10,-0.33,0.33,10,57,47,56.67,57.33,67,3.1622776601683795,3.1622776601683795,3.1622776601683795,3.1622776601683795
9,18,0.26014670000040496,p,62.1,Limited Time - 800ms,l,48.879419862541376,59.79069685589869,52.689672885948994,62.07342346368186,48.879419862541376,52.689672885948994,59.79069685589869,62.07342346368186,-10,-0.33,0.33,10,57,47,56.67,57.33,67,3.1622776601683795,3.1622776601683795,3.1622776601683795,3.1622776601683795
9,19,0.16522300000087853,p,66.0,Limited Time - 800ms,l,49.32672656435558,56.90516177227048,55.45229872918924,65.95038962570516,49.32672656435558,55.45229872918924,56.90516177227048,65.95038962570516,-10,-0.33,0.33,10,57,47,56.67,57.33,67,3.1622776601683795,3.1622776601683795,3.1622776601683795,3.1622776601683795
9,20,0.12568370000008144,p,65.8,Limited Time - 800ms,l,46.648546365117355,58.722849361804556,62.34662640042161,65.82945393143318,46.648546365117355,62.34662640042161,58.722849361804556,65.82945393143318,-10,-0.33,0.33,10,57,47,56.67,57.33,67,3.1622776601683795,3.1622776601683795,3.1622776601683795,3.1622776601683795
10,1,0.4295273999996425,q,68.2,Unlimited Time,i,68.20344076593385,47.58567825588602,67.94058572279125,68.92677541033062,47.58567825588602,67.94058572279125,68.92677541033062,68.20344076593385,-10,-10,10,10,57,47,47,67,67,3.1622776601683795,10,3.1622776601683795,10
10,2,0.2905171000002156,w,43.7,Unlimited Time,i,65.47690931699188,43.72200251806676,55.397342697156795,70.70000998713013,43.72200251806676,55.397342697156795,70.70000998713013,65.47690931699188,-10,-10,10,10,57,47,47,67,67,3.1622776601683795,10,3.1622776601683795,10
10,3,0.5554316999996445,o,62.6,Unlimited Time,i,59.232974460553386,48.06608705232496,62.550452569280004,64.66004177101004,48.06608705232496,62.550452569280004,64.66004177101004,59.232974460553386,-10,-10,10,10,57,47,47,67,67,3.1622776601683795,10,3.1622776601683795,10
10,4,0.16579259999980422,p,68.2,Unlimited Time,i,97.90366362204094,45.589525844027044,32.58140804110883,68.19742291342834,45.589525844027044,32.58140804110883,68.19742291342834,97.90366362204094,-10,-10,10,10,57,47,47,67,67,3.1622776601683795,10,3.1622776601683795,10
10,5,0.6523466999997254,q,57.2,Unlimited Time,i,57.18364592959905,41.36685700087058,46.51630711791508,64.58878153145861,41.36685700087058,46.51630711791508,64.58878153145861,57.18364592959905,-10,-10,10,10,57,47,47,67,67,3.1622776601683795,10,3.1622776601683795,10
10,6,0.1723483000005217,p,65.7,Unlimited Time,i,41.84828724379034,48.201215463989854,55.85157233109681,65.72985616049071,48.201215463989854,55.85157233109681,65.72985616049071,41.84828724379034,-10,-10,10,10,57,47,47,67,67,3.1622776601683795,10,3.1622776601683795,10
10,7,0.14502919999995356,p,61.4,Unlimited Time,i,81.02961961351588,45.24471126944329,45.070954109000745,61.42253327646185,45.24471126944329,45.070954109000745,61.42253327646185,81.02961961351588,-10,-10,10,10,57,47,47,67,67,3.1622776601683795,10,3.1622776601683795,10
10,8,0.06030060000011872,p,69.6,Unlimited Time,i,73.1869206339397,45.10849424822334,61.908166938308185,69.61654081561933,45.10849424822334,61.908166938308185,69.61654081561933,73.1869206339397,-10,-10,10,10,57,47,47,67,67,3.1622776601683795,10,3.1622776601683795,10
10,9,0.2448926000006395,p,62.3,Unlimited Time,i,83.5743495344975,38.31012111803073,42.15727542525716,62.26030568227858,38.31012111803073,42.15727542525716,62.26030568227858,83.5743495344975,-10,-10,10,10,57,47,47,67,67,3.1622776601683795,10,3.1622776601683795,10
10,10,0.07392160000017611,p,63.7,Unlimited Time,i,61.70335033680452,49.639105085524825,55.81930848665628,63.71983302513197,49.639105085524825,55.81930848665628,63.71983302513197,61.70335033680452,-10,-10,10,10,57,47,47,67,67,3.1622776601683795,10,3.1622776601683795,10
10,11,0.6121903000002931,p,65.6,Unlimited Time,i,65.33681996509632,45.987215116944945,31.63532416408156,65.57758590969127,45.987215116944945,31.63532416408156,65.57758590969127,65.33681996509632,-10,-10,10,10,57,47,47,67,67,3.1622776601683795,10,3.1622776601683795,10
10,12,0.02492589999928896,p,64.1,Unlimited Time,i,69.23339386338208,43.55635722135041,53.13304119416993,64.06798887801247,43.55635722135041,53.13304119416993,64.06798887801247,69.23339386338208,-10,-10,10,10,57,47,47,67,67,3.1622776601683795,10,3.1622776601683795,10
10,13,0.5033792000003814,p,69.3,Unlimited Time,i,62.556514050046225,48.87848754863853,51.027216519697426,69.2617878406709,48.87848754863853,51.027216519697426,69.2617878406709,62.556514050046225,-10,-10,10,10,57,47,47,67,67,3.1622776601683795,10,3.1622776601683795,10
10,14,0.5903586000003997,p,68.0,Unlimited Time,i,75.74790302702186,49.48597534429025,48.44552051952824,67.96607790963061,49.48597534429025,48.44552051952824,67.96607790963061,75.74790302702186,-10,-10,10,10,57,47,47,67,67,3.1622776601683795,10,3.1622776601683795,10
10,15,0.0032635000006848713,p,64.0,Unlimited Time,i,65.84479825161802,53.26319571111306,55.472734727362976,64.0264374403797,53.26319571111306,55.472734727362976,64.0264374403797,65.84479825161802,-10,-10,10,10,57,47,47,67,67,3.1622776601683795,10,3.1622776601683795,10
10,16,0.562818000000334,p,66.3,Unlimited Time,i,56.12473838583428,49.5914140079862,39.45445161773199,66.34408422532626,49.5914140079862,39.45445161773199,66.34408422532626,56.12473838583428,-10,-10,10,10,57,47,47,67,67,3.1622776601683795,10,3.1622776601683795,10
10,17,0.41737730000022566,p,67.3,Unlimited Time,i,83.08018307739522,48.247069622775726,55.62902830472616,67.27532427032156,48.247069622775726,55.62902830472616,67.27532427032156,83.08018307739522,-10,-10,10,10,57,47,47,67,67,3.1622776601683795,10,3.1622776601683795,10
10,18,0.050054000000272936,p,65.3,Unlimited Time,i,76.17878289590536,49.73962566544217,40.275488194154214,65.28252618280582,49.73962566544217,40.275488194154214,65.28252618280582,76.17878289590536,-10,-10,10,10,57,47,47,67,67,3.1622776601683795,10,3.1622776601683795,10
10,19,0.01648630000090634,p,62.2,Unlimited Time,i,52.42741575039925,46.20221456082873,54.78199456349099,62.24482330876941,46.20221456082873,54.78199456349099,62.24482330876941,52.42741575039925,-10,-10,10,10,57,47,47,67,67,3.1622776601683795,10,3.1622776601683795,10
10,20,0.0014620000001741573,p,66.0,Unlimited Time,i,82.40908172324866,42.85138588879651,43.554659394381765,66.01556316191912,42.85138588879651,43.554659394381765,66.01556316191912,82.40908172324866,-10,-10,10,10,57,47,47,67,67,3.1622776601683795,10,3.1622776601683795,10
11,1,,,0.0,Limited Time - 400ms,i,68.92677541033062,67.94058572279125,47.58567825588602,68.20344076593385,47.58567825588602,67.94058572279125,68.92677541033062,68.20344076593385,-10,-10,10,10,57,47,47,67,67,3.1622776601683795,10,3.1622776601683795,10
11,2,0.03892840000025899,q,70.7,Limited Time - 400ms,i,70.70000998713013,55.397342697156795,43.72200251806676,65.47690931699188,43.72200251806676,55.397342697156795,70.70000998713013,65.47690931699188,-10,-10,10,10,57,47,47,67,67,3.1622776601683795,10,3.1622776601683795,10
11,3,0.05977359999997134,p,59.2,Limited Time - 400ms,i,64.66004177101004,62.550452569280004,48.06608705232496,59.232974460553386,48.06608705232496,62.550452569280004,64.66004177101004,59.232974460553386,-10,-10,10,10,57,47,47,67,67,3.1622776601683795,10,3.1622776601683795,10
11,4,0.19417040000007546,p,97.9,Limited Time - 400ms,i,68.19742291342834,32.58140804110883,45.589525844027044,97.90366362204094,45.589525844027044,32.58140804110883,68.19742291342834,97.90366362204094,-10,-10,10,10,57,47,47,67,67,3.1622776601683795,10,3.1622776601683795,10
11,5,0.053248299999722803,p,57.2,Limited Time - 400ms,i,64.58878153145861,46.51630711791508,41.36685700087058,57.18364592959905,41.36685700087058,46.51630711791508,64.58878153145861,57.18364592959905,-10,-10,10,10,57,47,47,67,67,3.1622776601683795,10,3.1622776601683795,10
11,6,0.033706899999742745,p,41.8,Limited Time - 400ms,i,65.72985616049071,55.85157233109681,48.201215463989854,41.84828724379034,48.201215463989854,55.85157233109681,65.72985616049071,41.84828724379034,-10,-10,10,10,57,47,47,67,67,3.1622776601683795,10,3.1622776601683795,10
11,7,0.05407180000020162,p,81.0,Limited Time - 400ms,i,61.42253327646185,45.070954109000745,45.24471126944329,81.02961961351588,45.24471126944329,45.070954109000745,61.42253327646185,81.02961961351588,-10,-10,10,10,57,47,47,67,67,3.1622776601683795,10,3.1622776601683795,10
11,8,0.02727500000037253,p,73.2,Limited Time - 400ms,i,69.61654081561933,61.908166938308185,45.10849424822334,73.1869206339397,45.10849424822334,61.908166938308185,69.61654081561933,73.1869206339397,-10,-10,10,10,57,47,47,67,67,3.1622776601683795,10,3.1622776601683795,10
11,9,0.054034499999943364,p,83.6,Limited Time - 400ms,i,62.26030568227858,42.15727542525716,38.31012111803073,83.5743495344975,38.31012111803073,42.15727542525716,62.26030568227858,83.5743495344975,-10,-10,10,10,57,47,47,67,67,3.1622776601683795,10,3.1622776601683795,10
11,10,0.04970260000027338,p,61.7,Limited Time - 400ms,i,63.71983302513197,55.81930848665628,49.639105085524825,61.70335033680452,49.639105085524825,55.81930848665628,63.71983302513197,61.70335033680452,-10,-10,10,10,57,47,47,67,67,3.1622776601683795,10,3.1622776601683795,10
11,11,0.058590499999809253,p,65.3,Limited Time - 400ms,i,65.57758590969127,31.63532416408156,45.987215116944945,65.33681996509632,45.987215116944945,31.63532416408156,65.57758590969127,65.33681996509632,-10,-10,10,10,57,47,47,67,67,3.1622776601683795,10,3.1622776601683795,10
11,12,0.13703890000033425,p,69.2,Limited Time - 400ms,i,64.06798887801247,53.13304119416993,43.55635722135041,69.23339386338208,43.55635722135041,53.13304119416993,64.06798887801247,69.23339386338208,-10,-10,10,10,57,47,47,67,67,3.1622776601683795,10,3.1622776601683795,10
11,13,0.06664840000030381,p,62.6,Limited Time - 400ms,i,69.2617878406709,51.027216519697426,48.87848754863853,62.556514050046225,48.87848754863853,51.027216519697426,69.2617878406709,62.556514050046225,-10,-10,10,10,57,47,47,67,67,3.1622776601683795,10,3.1622776601683795,10
11,14,0.07398180000018328,p,75.7,Limited Time - 400ms,i,67.96607790963061,48.44552051952824,49.48597534429025,75.74790302702186,49.48597534429025,48.44552051952824,67.96607790963061,75.74790302702186,-10,-10,10,10,57,47,47,67,67,3.1622776601683795,10,3.1622776601683795,10
11,15,0.04507889999968029,p,65.8,Limited Time - 400ms,i,64.0264374403797,55.472734727362976,53.26319571111306,65.84479825161802,53.26319571111306,55.472734727362976,64.0264374403797,65.84479825161802,-10,-10,10,10,57,47,47,67,67,3.1622776601683795,10,3.1622776601683795,10
11,16,0.041730200000529294,p,56.1,Limited Time - 400ms,i,66.34408422532626,39.45445161773199,49.5914140079862,56.12473838583428,49.5914140079862,39.45445161773199,66.34408422532626,56.12473838583428,-10,-10,10,10,57,47,47,67,67,3.1622776601683795,10,3.1622776601683795,10
11,17,0.06029750000016065,p,83.1,Limited Time - 400ms,i,67.27532427032156,55.62902830472616,48.247069622775726,83.08018307739522,48.247069622775726,55.62902830472616,67.27532427032156,83.08018307739522,-10,-10,10,10,57,47,47,67,67,3.1622776601683795,10,3.1622776601683795,10
11,18,0.07572810000056052,p,76.2,Limited Time - 400ms,i,65.28252618280582,40.275488194154214,49.73962566544217,76.17878289590536,49.73962566544217,40.275488194154214,65.28252618280582,76.17878289590536,-10,-10,10,10,57,47,47,67,67,3.1622776601683795,10,3.1622776601683795,10
11,19,,,0.0,Limited Time - 400ms,i,62.24482330876941,54.78199456349099,46.20221456082873,52.42741575039925,46.20221456082873,54.78199456349099,62.24482330876941,52.42741575039925,-10,-10,10,10,57,47,47,67,67,3.1622776601683795,10,3.1622776601683795,10
11,20,,,0.0,Limited Time - 400ms,i,66.01556316191912,43.554659394381765,42.85138588879651,82.40908172324866,42.85138588879651,43.554659394381765,66.01556316191912,82.40908172324866,-10,-10,10,10,57,47,47,67,67,3.1622776601683795,10,3.1622776601683795,10
12,1,,,0.0,Limited Time - 800ms,i,68.92677541033062,68.20344076593385,47.58567825588602,67.94058572279125,47.58567825588602,67.94058572279125,68.92677541033062,68.20344076593385,-10,-10,10,10,57,47,47,67,67,3.1622776601683795,10,3.1622776601683795,10
12,2,0.14674039999954402,w,65.5,Limited Time - 800ms,i,70.70000998713013,65.47690931699188,43.72200251806676,55.397342697156795,43.72200251806676,55.397342697156795,70.70000998713013,65.47690931699188,-10,-10,10,10,57,47,47,67,67,3.1622776601683795,10,3.1622776601683795,10
12,3,0.3066686000001937,p,62.6,Limited Time - 800ms,i,64.66004177101004,59.232974460553386,48.06608705232496,62.550452569280004,48.06608705232496,62.550452569280004,64.66004177101004,59.232974460553386,-10,-10,10,10,57,47,47,67,67,3.1622776601683795,10,3.1622776601683795,10
12,4,0.22269859999960318,o,45.6,Limited Time - 800ms,i,68.19742291342834,97.90366362204094,45.589525844027044,32.58140804110883,45.589525844027044,32.58140804110883,68.19742291342834,97.90366362204094,-10,-10,10,10,57,47,47,67,67,3.1622776601683795,10,3.1622776601683795,10
12,5,0.19467550000081246,q,64.6,Limited Time - 800ms,i,64.58878153145861,57.18364592959905,41.36685700087058,46.51630711791508,41.36685700087058,46.51630711791508,64.58878153145861,57.18364592959905,-10,-10,10,10,57,47,47,67,67,3.1622776601683795,10,3.1622776601683795,10
12,6,0.1287784999994983,p,55.9,Limited Time - 800ms,i,65.72985616049071,41.84828724379034,48.201215463989854,55.85157233109681,48.201215463989854,55.85157233109681,65.72985616049071,41.84828724379034,-10,-10,10,10,57,47,47,67,67,3.1622776601683795,10,3.1622776601683795,10
12,7,0.03387879999991128,q,61.4,Limited Time - 800ms,i,61.42253327646185,81.02961961351588,45.24471126944329,45.070954109000745,45.24471126944329,45.070954109000745,61.42253327646185,81.02961961351588,-10,-10,10,10,57,47,47,67,67,3.1622776601683795,10,3.1622776601683795,10
12,8,0.2511343999995006,p,61.9,Limited Time - 800ms,i,69.61654081561933,73.1869206339397,45.10849424822334,61.908166938308185,45.10849424822334,61.908166938308185,69.61654081561933,73.1869206339397,-10,-10,10,10,57,47,47,67,67,3.1622776601683795,10,3.1622776601683795,10
12,9,0.21788000000015018,q,62.3,Limited Time - 800ms,i,62.26030568227858,83.5743495344975,38.31012111803073,42.15727542525716,38.31012111803073,42.15727542525716,62.26030568227858,83.5743495344975,-10,-10,10,10,57,47,47,67,67,3.1622776601683795,10,3.1622776601683795,10
12,10,0.17572110000037355,q,63.7,Limited Time - 800ms,i,63.71983302513197,61.70335033680452,49.639105085524825,55.81930848665628,49.639105085524825,55.81930848665628,63.71983302513197,61.70335033680452,-10,-10,10,10,57,47,47,67,67,3.1622776601683795,10,3.1622776601683795,10
12,11,0.20675010000013572,q,65.6,Limited Time - 800ms,i,65.57758590969127,65.33681996509632,45.987215116944945,31.63532416408156,45.987215116944945,31.63532416408156,65.57758590969127,65.33681996509632,-10,-10,10,10,57,47,47,67,67,3.1622776601683795,10,3.1622776601683795,10
12,12,0.1417380000002595,q,64.1,Limited Time - 800ms,i,64.06798887801247,69.23339386338208,43.55635722135041,53.13304119416993,43.55635722135041,53.13304119416993,64.06798887801247,69.23339386338208,-10,-10,10,10,57,47,47,67,67,3.1622776601683795,10,3.1622776601683795,10
12,13,0.1206053999994765,q,69.3,Limited Time - 800ms,i,69.2617878406709,62.556514050046225,48.87848754863853,51.027216519697426,48.87848754863853,51.027216519697426,69.2617878406709,62.556514050046225,-10,-10,10,10,57,47,47,67,67,3.1622776601683795,10,3.1622776601683795,10
12,14,0.11206870000023628,q,68.0,Limited Time - 800ms,i,67.96607790963061,75.74790302702186,49.48597534429025,48.44552051952824,49.48597534429025,48.44552051952824,67.96607790963061,75.74790302702186,-10,-10,10,10,57,47,47,67,67,3.1622776601683795,10,3.1622776601683795,10
12,15,0.06963160000032076,q,64.0,Limited Time - 800ms,i,64.0264374403797,65.84479825161802,53.26319571111306,55.472734727362976,53.26319571111306,55.472734727362976,64.0264374403797,65.84479825161802,-10,-10,10,10,57,47,47,67,67,3.1622776601683795,10,3.1622776601683795,10
12,16,0.08693570000014006,q,66.3,Limited Time - 800ms,i,66.34408422532626,56.12473838583428,49.5914140079862,39.45445161773199,49.5914140079862,39.45445161773199,66.34408422532626,56.12473838583428,-10,-10,10,10,57,47,47,67,67,3.1622776601683795,10,3.1622776601683795,10
12,17,0.17370609999943554,q,67.3,Limited Time - 800ms,i,67.27532427032156,83.08018307739522,48.247069622775726,55.62902830472616,48.247069622775726,55.62902830472616,67.27532427032156,83.08018307739522,-10,-10,10,10,57,47,47,67,67,3.1622776601683795,10,3.1622776601683795,10
12,18,0.08498360000066896,q,65.3,Limited Time - 800ms,i,65.28252618280582,76.17878289590536,49.73962566544217,40.275488194154214,49.73962566544217,40.275488194154214,65.28252618280582,76.17878289590536,-10,-10,10,10,57,47,47,67,67,3.1622776601683795,10,3.1622776601683795,10
12,19,0.05571980000058829,q,62.2,Limited Time - 800ms,i,62.24482330876941,52.42741575039925,46.20221456082873,54.78199456349099,46.20221456082873,54.78199456349099,62.24482330876941,52.42741575039925,-10,-10,10,10,57,47,47,67,67,3.1622776601683795,10,3.1622776601683795,10
12,20,0.08906449999994948,q,66.0,Limited Time - 800ms,i,66.01556316191912,82.40908172324866,42.85138588879651,43.554659394381765,42.85138588879651,43.554659394381765,66.01556316191912,82.40908172324866,-10,-10,10,10,57,47,47,67,67,3.1622776601683795,10,3.1622776601683795,10
13,1,0.4304782000008345,q,42.2,Unlimited Time,h,42.15174767115552,59.16444914914132,79.49470769010529,51.003221552202014,59.16444914914132,42.15174767115552,51.003221552202014,79.49470769010529,-10,-0.33,0.33,10,57,47,56.67,57.33,67,10,10,10,10
13,2,0.7095460999998977,w,61.4,Unlimited Time,h,59.817631189793026,61.43339892548357,65.30525893543337,61.137960211333166,61.43339892548357,59.817631189793026,61.137960211333166,65.30525893543337,-10,-0.33,0.33,10,57,47,56.67,57.33,67,10,10,10,10
13,3,0.5207763999997042,o,62.3,Unlimited Time,h,53.286844844826845,42.10509661949919,62.28620679372394,65.63398737367493,42.10509661949919,53.286844844826845,65.63398737367493,62.28620679372394,-10,-0.33,0.33,10,57,47,56.67,57.33,67,10,10,10,10
13,4,0.3317186000003858,p,67.4,Unlimited Time,h,60.526775937762174,60.28136806882423,65.42197884561944,67.40722431495678,60.28136806882423,60.526775937762174,67.40722431495678,65.42197884561944,-10,-0.33,0.33,10,57,47,56.67,57.33,67,10,10,10,10
13,5,0.5692430999997669,p,47.5,Unlimited Time,h,46.30117312447517,45.5499430225635,72.88447294113223,47.53248329249678,45.5499430225635,46.30117312447517,47.53248329249678,72.88447294113223,-10,-0.33,0.33,10,57,47,56.67,57.33,67,10,10,10,10
13,6,0.3930322999995042,w,60.4,Unlimited Time,h,69.40374902785577,60.37632238289309,69.79068452555482,56.3963024549035,60.37632238289309,69.40374902785577,56.3963024549035,69.79068452555482,-10,-0.33,0.33,10,57,47,56.67,57.33,67,10,10,10,10
13,7,0.18939789999967616,p,51.0,Unlimited Time,h,76.85189809883033,66.96787078007642,85.7083594975891,51.04706154340081,66.96787078007642,76.85189809883033,51.04706154340081,85.7083594975891,-10,-0.33,0.33,10,57,47,56.67,57.33,67,10,10,10,10
13,8,0.4350607000005766,o,82.3,Unlimited Time,h,55.077597765631985,52.07828930665235,82.29667385194274,43.59447062877726,52.07828930665235,55.077597765631985,43.59447062877726,82.29667385194274,-10,-0.33,0.33,10,57,47,56.67,57.33,67,10,10,10,10
13,9,0.3797168999999485,o,55.3,Unlimited Time,h,57.161389678402706,59.30304588972087,55.34466240827171,88.39019959094728,59.30304588972087,57.161389678402706,88.39019959094728,55.34466240827171,-10,-0.33,0.33,10,57,47,56.67,57.33,67,10,10,10,10
13,10,0.44637539999985165,w,37.9,Unlimited Time,h,65.62722352414951,37.894231587331795,67.78772418146451,58.413517825981714,37.894231587331795,65.62722352414951,58.413517825981714,67.78772418146451,-10,-0.33,0.33,10,57,47,56.67,57.33,67,10,10,10,10
13,11,0.30015129999992496,o,56.9,Unlimited Time,h,40.15850866266897,50.0406693976318,56.857448951980174,53.85832579043706,50.0406693976318,40.15850866266897,53.85832579043706,56.857448951980174,-10,-0.33,0.33,10,57,47,56.67,57.33,67,10,10,10,10
13,12,0.2621877999999924,o,69.9,Unlimited Time,h,30.653454140812926,58.22308558401846,69.88490797332605,64.9219924980718,58.22308558401846,30.653454140812926,64.9219924980718,69.88490797332605,-10,-0.33,0.33,10,57,47,56.67,57.33,67,10,10,10,10
13,13,0.21733779999976832,o,67.0,Unlimited Time,h,52.418836487370214,50.93154938960964,67.00032101912022,54.12845709370643,50.93154938960964,52.418836487370214,54.12845709370643,67.00032101912022,-10,-0.33,0.33,10,57,47,56.67,57.33,67,10,10,10,10
13,14,0.12613880000026256,o,67.9,Unlimited Time,h,79.28696910218545,45.196955670697925,67.92174699007458,69.1174052676159,45.196955670697925,79.28696910218545,69.1174052676159,67.92174699007458,-10,-0.33,0.33,10,57,47,56.67,57.33,67,10,10,10,10
13,15,0.12406129999999393,o,66.4,Unlimited Time,h,42.18364023423688,36.413958628404686,66.3578973665157,31.935138059877893,36.413958628404686,42.18364023423688,31.935138059877893,66.3578973665157,-10,-0.33,0.33,10,57,47,56.67,57.33,67,10,10,10,10
13,16,0.08374800000092364,o,64.2,Unlimited Time,h,43.06295013091192,38.415807474877234,64.20567644389166,61.21493091642642,38.415807474877234,43.06295013091192,61.21493091642642,64.20567644389166,-10,-0.33,0.33,10,57,47,56.67,57.33,67,10,10,10,10
13,17,0.48556209999969724,o,70.5,Unlimited Time,h,60.99072805666406,39.57018548426786,70.51787801276376,52.02404576820548,39.57018548426786,60.99072805666406,52.02404576820548,70.51787801276376,-10,-0.33,0.33,10,57,47,56.67,57.33,67,10,10,10,10
13,18,0.04259459999957471,o,74.8,Unlimited Time,h,65.28712686467036,54.00690580448004,74.80533433191857,69.12810854886014,54.00690580448004,65.28712686467036,69.12810854886014,74.80533433191857,-10,-0.33,0.33,10,57,47,56.67,57.33,67,10,10,10,10
13,19,0.6567297000001417,o,51.2,Unlimited Time,h,52.87162623146011,70.87334813681002,51.19735576740158,63.534010400798884,70.87334813681002,52.87162623146011,63.534010400798884,51.19735576740158,-10,-0.33,0.33,10,57,47,56.67,57.33,67,10,10,10,10
13,20,0.5618443000003026,o,70.2,Unlimited Time,h,56.3342946664193,46.520166263484285,70.2428075082673,48.74537383893817,46.520166263484285,56.3342946664193,48.74537383893817,70.2428075082673,-10,-0.33,0.33,10,57,47,56.67,57.33,67,10,10,10,10
14,1,,,0.0,Limited Time - 400ms,l,63.79867492317993,47.22245554297311,56.98877587365785,56.661001257413474,47.22245554297311,56.98877587365785,56.661001257413474,63.79867492317993,-10,-0.33,0.33,10,57,47,56.67,57.33,67,3.1622776601683795,3.1622776601683795,3.1622776601683795,3.1622776601683795
14,2,0.04139560000021447,w,53.6,Limited Time - 400ms,l,67.94066676345419,53.5834552418357,54.372497659257164,57.36318518208928,53.5834552418357,54.372497659257164,57.36318518208928,67.94066676345419,-10,-0.33,0.33,10,57,47,56.67,57.33,67,3.1622776601683795,3.1622776601683795,3.1622776601683795,3.1622776601683795
14,3,0.1500771999999415,o,59.6,Limited Time - 400ms,l,68.85843774629024,46.46783279729743,59.61589859264765,60.199778420170304,46.46783279729743,59.61589859264765,60.199778420170304,68.85843774629024,-10,-0.33,0.33,10,57,47,56.67,57.33,67,3.1622776601683795,3.1622776601683795,3.1622776601683795,3.1622776601683795
14,4,0.055064600000150676,o,55.4,Limited Time - 400ms,l,66.0942359662671,45.21514666981317,55.37835128874307,55.80105464985162,45.21514666981317,55.37835128874307,55.80105464985162,66.0942359662671,-10,-0.33,0.33,10,57,47,56.67,57.33,67,3.1622776601683795,3.1622776601683795,3.1622776601683795,3.1622776601683795
14,5,0.18917620000047464,o,56.5,Limited Time - 400ms,l,65.88147684202447,49.30241786030354,56.54123317540891,50.08205311271375,49.30241786030354,56.54123317540891,50.08205311271375,65.88147684202447,-10,-0.33,0.33,10,57,47,56.67,57.33,67,3.1622776601683795,3.1622776601683795,3.1622776601683795,3.1622776601683795
14,6,0.18027689999962604,p,57.6,Limited Time - 400ms,l,65.9006342828921,49.57116712586664,55.133970997627145,57.61544789892671,49.57116712586664,55.133970997627145,57.61544789892671,65.9006342828921,-10,-0.33,0.33,10,57,47,56.67,57.33,67,3.1622776601683795,3.1622776601683795,3.1622776601683795,3.1622776601683795
14,7,0.17453680000016902,o,54.9,Limited Time - 400ms,l,73.44447576226315,49.11414506164087,54.87836877446938,54.2797949894176,49.11414506164087,54.87836877446938,54.2797949894176,73.44447576226315,-10,-0.33,0.33,10,57,47,56.67,57.33,67,3.1622776601683795,3.1622776601683795,3.1622776601683795,3.1622776601683795
14,8,0.1930772000005163,o,57.5,Limited Time - 400ms,l,67.35702817217756,47.526125635068546,57.53086947732345,55.958047979607954,47.526125635068546,57.53086947732345,55.958047979607954,67.35702817217756,-10,-0.33,0.33,10,57,47,56.67,57.33,67,3.1622776601683795,3.1622776601683795,3.1622776601683795,3.1622776601683795
14,9,0.08582569999998668,p,56.2,Limited Time - 400ms,l,68.08391916168992,48.50544119714934,56.85830500137027,56.186061505332084,48.50544119714934,56.85830500137027,56.186061505332084,68.08391916168992,-10,-0.33,0.33,10,57,47,56.67,57.33,67,3.1622776601683795,3.1622776601683795,3.1622776601683795,3.1622776601683795
14,10,0.14500179999959073,p,58.8,Limited Time - 400ms,l,68.65393459433331,42.81976383767532,60.005281278362034,58.793817836193085,42.81976383767532,60.005281278362034,58.793817836193085,68.65393459433331,-10,-0.33,0.33,10,57,47,56.67,57.33,67,3.1622776601683795,3.1622776601683795,3.1622776601683795,3.1622776601683795
14,11,0.13316850000046543,p,56.9,Limited Time - 400ms,l,69.18691727939031,50.36283205114954,59.005385912298586,56.85454021613526,50.36283205114954,59.005385912298586,56.85454021613526,69.18691727939031,-10,-0.33,0.33,10,57,47,56.67,57.33,67,3.1622776601683795,3.1622776601683795,3.1622776601683795,3.1622776601683795
14,12,0.1725626999996166,p,57.6,Limited Time - 400ms,l,65.99234508170272,42.00168315496179,55.72459033686464,57.63856849834145,42.00168315496179,55.72459033686464,57.63856849834145,65.99234508170272,-10,-0.33,0.33,10,57,47,56.67,57.33,67,3.1622776601683795,3.1622776601683795,3.1622776601683795,3.1622776601683795
14,13,0.1634185000002617,p,53.3,Limited Time - 400ms,l,65.24283988476323,40.09188170373062,60.3421917928743,53.28349146321807,40.09188170373062,60.3421917928743,53.28349146321807,65.24283988476323,-10,-0.33,0.33,10,57,47,56.67,57.33,67,3.1622776601683795,3.1622776601683795,3.1622776601683795,3.1622776601683795
14,14,0.18695490000027348,p,50.4,Limited Time - 400ms,l,63.363682516284136,49.82328555163317,56.9000801130433,50.37245509970768,49.82328555163317,56.9000801130433,50.37245509970768,63.363682516284136,-10,-0.33,0.33,10,57,47,56.67,57.33,67,3.1622776601683795,3.1622776601683795,3.1622776601683795,3.1622776601683795
14,15,0.17784240000037244,p,58.6,Limited Time - 400ms,l,65.28018919122489,44.72897249566834,56.02902773747297,58.603976087410565,44.72897249566834,56.02902773747297,58.603976087410565,65.28018919122489,-10,-0.33,0.33,10,57,47,56.67,57.33,67,3.1622776601683795,3.1622776601683795,3.1622776601683795,3.1622776601683795
14,16,0.23886320000019623,p,59.3,Limited Time - 400ms,l,67.77835568816182,45.38728304166509,60.975084331486435,59.296132924526454,45.38728304166509,60.975084331486435,59.296132924526454,67.77835568816182,-10,-0.33,0.33,10,57,47,56.67,57.33,67,3.1622776601683795,3.1622776601683795,3.1622776601683795,3.1622776601683795
14,17,0.18164259999957721,p,56.8,Limited Time - 400ms,l,61.31822842440641,46.67458129066582,52.16554852211422,56.82193336402642,46.67458129066582,52.16554852211422,56.82193336402642,61.31822842440641,-10,-0.33,0.33,10,57,47,56.67,57.33,67,3.1622776601683795,3.1622776601683795,3.1622776601683795,3.1622776601683795
14,18,0.008509900000717607,p,59.8,Limited Time - 400ms,l,62.07342346368186,48.879419862541376,52.689672885948994,59.79069685589869,48.879419862541376,52.689672885948994,59.79069685589869,62.07342346368186,-10,-0.33,0.33,10,57,47,56.67,57.33,67,3.1622776601683795,3.1622776601683795,3.1622776601683795,3.1622776601683795
14,19,0.19268510000074457,p,56.9,Limited Time - 400ms,l,65.95038962570516,49.32672656435558,55.45229872918924,56.90516177227048,49.32672656435558,55.45229872918924,56.90516177227048,65.95038962570516,-10,-0.33,0.33,10,57,47,56.67,57.33,67,3.1622776601683795,3.1622776601683795,3.1622776601683795,3.1622776601683795
14,20,0.08455150000008871,p,58.7,Limited Time - 400ms,l,65.82945393143318,46.648546365117355,62.34662640042161,58.722849361804556,46.648546365117355,62.34662640042161,58.722849361804556,65.82945393143318,-10,-0.33,0.33,10,57,47,56.67,57.33,67,3.1622776601683795,3.1622776601683795,3.1622776601683795,3.1622776601683795
15,1,0.34270089999972697,q,42.0,Limited Time - 800ms,e,41.98313064695287,64.32660252891341,50.56237490795008,59.039681551472015,59.039681551472015,64.32660252891341,41.98313064695287,50.56237490795008,0,0,0,0,57,57,57,57,57,3.1622776601683795,6.324555320336759,8.366600265340756,10
15,2,0.06439270000009856,w,50.5,Limited Time - 800ms,e,57.132522884330534,50.54757605046585,62.35259044484846,61.195749509552115,61.195749509552115,50.54757605046585,57.132522884330534,62.35259044484846,0,0,0,0,57,57,57,57,57,3.1622776601683795,6.324555320336759,8.366600265340756,10
15,3,0.11576650000006339,p,55.3,Limited Time - 800ms,e,47.384835339117025,55.61315540471795,44.9602849512028,55.3164840846876,55.3164840846876,55.61315540471795,47.384835339117025,44.9602849512028,0,0,0,0,57,57,57,57,57,3.1622776601683795,6.324555320336759,8.366600265340756,10
15,4,0.02815199999986362,p,60.4,Limited Time - 800ms,e,57.358333996100434,52.79330837281766,55.90590675476081,60.36187773313783,60.36187773313783,52.79330837281766,57.358333996100434,55.90590675476081,0,0,0,0,57,57,57,57,57,3.1622776601683795,6.324555320336759,8.366600265340756,10
15,5,0.11474850000013248,p,54.3,Limited Time - 800ms,e,72.65157536576163,53.51263500606087,60.71628289787072,54.25223553408199,54.25223553408199,53.51263500606087,72.65157536576163,60.71628289787072,0,0,0,0,57,57,57,57,57,3.1622776601683795,6.324555320336759,8.366600265340756,10
15,6,0.26999330000035116,p,55.6,Limited Time - 800ms,e,68.69955433330323,51.55477210435746,54.33092333235921,55.58771915979312,55.58771915979312,51.55477210435746,68.69955433330323,54.33092333235921,0,0,0,0,57,57,57,57,57,3.1622776601683795,6.324555320336759,8.366600265340756,10
15,7,0.2080631999997422,p,56.4,Limited Time - 800ms,e,57.17328345737246,56.01844581592032,54.55314927818753,56.43820039689917,56.43820039689917,56.01844581592032,57.17328345737246,54.55314927818753,0,0,0,0,57,57,57,57,57,3.1622776601683795,6.324555320336759,8.366600265340756,10
15,8,0.020791700000700075,p,57.2,Limited Time - 800ms,e,56.44740845194341,54.29907444146934,54.46679568142194,57.235771909695806,57.235771909695806,54.29907444146934,56.44740845194341,54.46679568142194,0,0,0,0,57,57,57,57,57,3.1622776601683795,6.324555320336759,8.366600265340756,10
15,9,0.014848499999970954,p,59.1,Limited Time - 800ms,e,62.522664933683195,49.146298116217466,61.05755158315628,59.075545114299004,59.075545114299004,49.146298116217466,62.522664933683195,61.05755158315628,0,0,0,0,57,57,57,57,57,3.1622776601683795,6.324555320336759,8.366600265340756,10
15,10,0.27115669999966485,p,59.2,Limited Time - 800ms,e,55.6420222651587,48.20727890228513,40.49372605906382,59.20465190606694,59.20465190606694,48.20727890228513,55.6420222651587,40.49372605906382,0,0,0,0,57,57,57,57,57,3.1622776601683795,6.324555320336759,8.366600265340756,10
15,11,0.3051641000001837,o,66.8,Limited Time - 800ms,e,57.22031485391875,59.128125885531375,66.75797776920069,59.892158782985774,59.892158782985774,59.128125885531375,57.22031485391875,66.75797776920069,0,0,0,0,57,57,57,57,57,3.1622776601683795,6.324555320336759,8.366600265340756,10
15,12,0.34714679999979126,w,48.4,Limited Time - 800ms,e,63.80171207914138,48.35655638021821,52.8501244983299,55.85220296708647,55.85220296708647,48.35655638021821,63.80171207914138,52.8501244983299,0,0,0,0,57,57,57,57,57,3.1622776601683795,6.324555320336759,8.366600265340756,10
15,13,0.007784400000673486,w,48.3,Limited Time - 800ms,e,56.60196986653915,48.26490217162568,73.33734262560293,59.70276688221273,59.70276688221273,48.26490217162568,56.60196986653915,73.33734262560293,0,0,0,0,57,57,57,57,57,3.1622776601683795,6.324555320336759,8.366600265340756,10
15,14,0.10558020000007673,q,51.6,Limited Time - 800ms,e,51.645060763407194,54.73927630803319,69.95205800401496,64.45532488259431,64.45532488259431,54.73927630803319,51.645060763407194,69.95205800401496,0,0,0,0,57,57,57,57,57,3.1622776601683795,6.324555320336759,8.366600265340756,10
15,15,0.03579700000045705,q,66.3,Limited Time - 800ms,e,66.25989571707109,61.456836014879606,58.094075849278696,55.38714835597902,55.38714835597902,61.456836014879606,66.25989571707109,58.094075849278696,0,0,0,0,57,57,57,57,57,3.1622776601683795,6.324555320336759,8.366600265340756,10
15,16,0.05883150000045134,o,58.6,Limited Time - 800ms,e,44.4096521143027,56.19342022630376,58.56020546816241,53.67754810589538,53.67754810589538,56.19342022630376,44.4096521143027,58.56020546816241,0,0,0,0,57,57,57,57,57,3.1622776601683795,6.324555320336759,8.366600265340756,10
15,17,0.1418260000000373,o,43.4,Limited Time - 800ms,e,86.75457426784597,57.89721535528638,43.37555557831983,57.83781980588874,57.83781980588874,57.89721535528638,86.75457426784597,43.37555557831983,0,0,0,0,57,57,57,57,57,3.1622776601683795,6.324555320336759,8.366600265340756,10
15,18,0.03216250000059517,o,83.6,Limited Time - 800ms,e,50.12991900535002,67.26868371890946,83.58261525581956,54.227225910266846,54.227225910266846,67.26868371890946,50.12991900535002,83.58261525581956,0,0,0,0,57,57,57,57,57,3.1622776601683795,6.324555320336759,8.366600265340756,10
15,19,0.3114199000001463,o,36.7,Limited Time - 800ms,e,56.2391679897053,61.69614207625037,36.650687381911446,56.458370409329774,56.458370409329774,61.69614207625037,56.2391679897053,36.650687381911446,0,0,0,0,57,57,57,57,57,3.1622776601683795,6.324555320336759,8.366600265340756,10
15,20,0.006276700000853452,o,66.9,Limited Time - 800ms,e,54.696221271915476,62.91679623669183,66.92563345102876,57.274234961218426,57.274234961218426,62.91679623669183,54.696221271915476,66.92563345102876,0,0,0,0,57,57,57,57,57,3.1622776601683795,6.324555320336759,8.366600265340756,10
16,1,0.6073569000000134,q,63.8,Unlimited Time,l,63.79867492317993,56.98877587365785,47.22245554297311,56.661001257413474,47.22245554297311,56.98877587365785,56.661001257413474,63.79867492317993,-10,-0.33,0.33,10,57,47,56.67,57.33,67,3.1622776601683795,3.1622776601683795,3.1622776601683795,3.1622776601683795
16,2,0.16550199999983306,o,53.6,Unlimited Time,l,67.94066676345419,54.372497659257164,53.5834552418357,57.36318518208928,53.5834552418357,54.372497659257164,57.36318518208928,67.94066676345419,-10,-0.33,0.33,10,57,47,56.67,57.33,67,3.1622776601683795,3.1622776601683795,3.1622776601683795,3.1622776601683795
16,3,2.3783195000005435,q,68.9,Unlimited Time,l,68.85843774629024,59.61589859264765,46.46783279729743,60.199778420170304,46.46783279729743,59.61589859264765,60.199778420170304,68.85843774629024,-10,-0.33,0.33,10,57,47,56.67,57.33,67,3.1622776601683795,3.1622776601683795,3.1622776601683795,3.1622776601683795
16,4,0.5174602999995841,w,55.4,Unlimited Time,l,66.0942359662671,55.37835128874307,45.21514666981317,55.80105464985162,45.21514666981317,55.37835128874307,55.80105464985162,66.0942359662671,-10,-0.33,0.33,10,57,47,56.67,57.33,67,3.1622776601683795,3.1622776601683795,3.1622776601683795,3.1622776601683795
16,5,0.29556310000043595,o,49.3,Unlimited Time,l,65.88147684202447,56.54123317540891,49.30241786030354,50.08205311271375,49.30241786030354,56.54123317540891,50.08205311271375,65.88147684202447,-10,-0.33,0.33,10,57,47,56.67,57.33,67,3.1622776601683795,3.1622776601683795,3.1622776601683795,3.1622776601683795
16,6,0.27900380000028235,p,57.6,Unlimited Time,l,65.9006342828921,55.133970997627145,49.57116712586664,57.61544789892671,49.57116712586664,55.133970997627145,57.61544789892671,65.9006342828921,-10,-0.33,0.33,10,57,47,56.67,57.33,67,3.1622776601683795,3.1622776601683795,3.1622776601683795,3.1622776601683795
16,7,0.4311764000003677,w,54.9,Unlimited Time,l,73.44447576226315,54.87836877446938,49.11414506164087,54.2797949894176,49.11414506164087,54.87836877446938,54.2797949894176,73.44447576226315,-10,-0.33,0.33,10,57,47,56.67,57.33,67,3.1622776601683795,3.1622776601683795,3.1622776601683795,3.1622776601683795
16,8,0.3074356999995871,w,57.5,Unlimited Time,l,67.35702817217756,57.53086947732345,47.526125635068546,55.958047979607954,47.526125635068546,57.53086947732345,55.958047979607954,67.35702817217756,-10,-0.33,0.33,10,57,47,56.67,57.33,67,3.1622776601683795,3.1622776601683795,3.1622776601683795,3.1622776601683795
16,9,0.2085636000001614,w,56.9,Unlimited Time,l,68.08391916168992,56.85830500137027,48.50544119714934,56.186061505332084,48.50544119714934,56.85830500137027,56.186061505332084,68.08391916168992,-10,-0.33,0.33,10,57,47,56.67,57.33,67,3.1622776601683795,3.1622776601683795,3.1622776601683795,3.1622776601683795
16,10,0.24448860000029526,w,60.0,Unlimited Time,l,68.65393459433331,60.005281278362034,42.81976383767532,58.793817836193085,42.81976383767532,60.005281278362034,58.793817836193085,68.65393459433331,-10,-0.33,0.33,10,57,47,56.67,57.33,67,3.1622776601683795,3.1622776601683795,3.1622776601683795,3.1622776601683795
16,11,0.16000720000010915,w,59.0,Unlimited Time,l,69.18691727939031,59.005385912298586,50.36283205114954,56.85454021613526,50.36283205114954,59.005385912298586,56.85454021613526,69.18691727939031,-10,-0.33,0.33,10,57,47,56.67,57.33,67,3.1622776601683795,3.1622776601683795,3.1622776601683795,3.1622776601683795
16,12,0.09856149999995978,w,55.7,Unlimited Time,l,65.99234508170272,55.72459033686464,42.00168315496179,57.63856849834145,42.00168315496179,55.72459033686464,57.63856849834145,65.99234508170272,-10,-0.33,0.33,10,57,47,56.67,57.33,67,3.1622776601683795,3.1622776601683795,3.1622776601683795,3.1622776601683795
16,13,0.5472262000002956,o,40.1,Unlimited Time,l,65.24283988476323,60.3421917928743,40.09188170373062,53.28349146321807,40.09188170373062,60.3421917928743,53.28349146321807,65.24283988476323,-10,-0.33,0.33,10,57,47,56.67,57.33,67,3.1622776601683795,3.1622776601683795,3.1622776601683795,3.1622776601683795
16,14,0.10547619999942981,p,50.4,Unlimited Time,l,63.363682516284136,56.9000801130433,49.82328555163317,50.37245509970768,49.82328555163317,56.9000801130433,50.37245509970768,63.363682516284136,-10,-0.33,0.33,10,57,47,56.67,57.33,67,3.1622776601683795,3.1622776601683795,3.1622776601683795,3.1622776601683795
16,15,0.17153110000072047,q,65.3,Unlimited Time,l,65.28018919122489,56.02902773747297,44.72897249566834,58.603976087410565,44.72897249566834,56.02902773747297,58.603976087410565,65.28018919122489,-10,-0.33,0.33,10,57,47,56.67,57.33,67,3.1622776601683795,3.1622776601683795,3.1622776601683795,3.1622776601683795
16,16,0.4229142000003776,q,67.8,Unlimited Time,l,67.77835568816182,60.975084331486435,45.38728304166509,59.296132924526454,45.38728304166509,60.975084331486435,59.296132924526454,67.77835568816182,-10,-0.33,0.33,10,57,47,56.67,57.33,67,3.1622776601683795,3.1622776601683795,3.1622776601683795,3.1622776601683795
16,17,0.015657800000553834,w,52.2,Unlimited Time,l,61.31822842440641,52.16554852211422,46.67458129066582,56.82193336402642,46.67458129066582,52.16554852211422,56.82193336402642,61.31822842440641,-10,-0.33,0.33,10,57,47,56.67,57.33,67,3.1622776601683795,3.1622776601683795,3.1622776601683795,3.1622776601683795
16,18,0.12105520000022807,q,62.1,Unlimited Time,l,62.07342346368186,52.689672885948994,48.879419862541376,59.79069685589869,48.879419862541376,52.689672885948994,59.79069685589869,62.07342346368186,-10,-0.33,0.33,10,57,47,56.67,57.33,67,3.1622776601683795,3.1622776601683795,3.1622776601683795,3.1622776601683795
16,19,0.3748398999996425,q,66.0,Unlimited Time,l,65.95038962570516,55.45229872918924,49.32672656435558,56.90516177227048,49.32672656435558,55.45229872918924,56.90516177227048,65.95038962570516,-10,-0.33,0.33,10,57,47,56.67,57.33,67,3.1622776601683795,3.1622776601683795,3.1622776601683795,3.1622776601683795
16,20,0.4712411999998949,q,65.8,Unlimited Time,l,65.82945393143318,62.34662640042161,46.648546365117355,58.722849361804556,46.648546365117355,62.34662640042161,58.722849361804556,65.82945393143318,-10,-0.33,0.33,10,57,47,56.67,57.33,67,3.1622776601683795,3.1622776601683795,3.1622776601683795,3.1622776601683795
17,1,,,0.0,Limited Time - 400ms,e,41.98313064695287,50.56237490795008,59.039681551472015,64.32660252891341,59.039681551472015,64.32660252891341,41.98313064695287,50.56237490795008,0,0,0,0,57,57,57,57,57,3.1622776601683795,6.324555320336759,8.366600265340756,10
17,2,0.1726845000002868,o,61.2,Limited Time - 400ms,e,57.132522884330534,62.35259044484846,61.195749509552115,50.54757605046585,61.195749509552115,50.54757605046585,57.132522884330534,62.35259044484846,0,0,0,0,57,57,57,57,57,3.1622776601683795,6.324555320336759,8.366600265340756,10
17,3,0.05351299999983894,w,45.0,Limited Time - 400ms,e,47.384835339117025,44.9602849512028,55.3164840846876,55.61315540471795,55.3164840846876,55.61315540471795,47.384835339117025,44.9602849512028,0,0,0,0,57,57,57,57,57,3.1622776601683795,6.324555320336759,8.366600265340756,10
17,4,0.17956349999985832,q,57.4,Limited Time - 400ms,e,57.358333996100434,55.90590675476081,60.36187773313783,52.79330837281766,60.36187773313783,52.79330837281766,57.358333996100434,55.90590675476081,0,0,0,0,57,57,57,57,57,3.1622776601683795,6.324555320336759,8.366600265340756,10
17,5,0.09087950000048295,q,72.7,Limited Time - 400ms,e,72.65157536576163,60.71628289787072,54.25223553408199,53.51263500606087,54.25223553408199,53.51263500606087,72.65157536576163,60.71628289787072,0,0,0,0,57,57,57,57,57,3.1622776601683795,6.324555320336759,8.366600265340756,10
17,6,0.07491430000027322,q,68.7,Limited Time - 400ms,e,68.69955433330323,54.33092333235921,55.58771915979312,51.55477210435746,55.58771915979312,51.55477210435746,68.69955433330323,54.33092333235921,0,0,0,0,57,57,57,57,57,3.1622776601683795,6.324555320336759,8.366600265340756,10
17,7,0.09110000000055152,q,57.2,Limited Time - 400ms,e,57.17328345737246,54.55314927818753,56.43820039689917,56.01844581592032,56.43820039689917,56.01844581592032,57.17328345737246,54.55314927818753,0,0,0,0,57,57,57,57,57,3.1622776601683795,6.324555320336759,8.366600265340756,10
17,8,0.05882540000038716,q,56.4,Limited Time - 400ms,e,56.44740845194341,54.46679568142194,57.235771909695806,54.29907444146934,57.235771909695806,54.29907444146934,56.44740845194341,54.46679568142194,0,0,0,0,57,57,57,57,57,3.1622776601683795,6.324555320336759,8.366600265340756,10
17,9,0.09760100000039529,q,62.5,Limited Time - 400ms,e,62.522664933683195,61.05755158315628,59.075545114299004,49.146298116217466,59.075545114299004,49.146298116217466,62.522664933683195,61.05755158315628,0,0,0,0,57,57,57,57,57,3.1622776601683795,6.324555320336759,8.366600265340756,10
17,10,0.08479189999980008,q,55.6,Limited Time - 400ms,e,55.6420222651587,40.49372605906382,59.20465190606694,48.20727890228513,59.20465190606694,48.20727890228513,55.6420222651587,40.49372605906382,0,0,0,0,57,57,57,57,57,3.1622776601683795,6.324555320336759,8.366600265340756,10
17,11,0.06105000000025029,q,57.2,Limited Time - 400ms,e,57.22031485391875,66.75797776920069,59.892158782985774,59.128125885531375,59.892158782985774,59.128125885531375,57.22031485391875,66.75797776920069,0,0,0,0,57,57,57,57,57,3.1622776601683795,6.324555320336759,8.366600265340756,10
17,12,0.03131960000064282,q,63.8,Limited Time - 400ms,e,63.80171207914138,52.8501244983299,55.85220296708647,48.35655638021821,55.85220296708647,48.35655638021821,63.80171207914138,52.8501244983299,0,0,0,0,57,57,57,57,57,3.1622776601683795,6.324555320336759,8.366600265340756,10
17,13,0.06440670000029058,q,56.6,Limited Time - 400ms,e,56.60196986653915,73.33734262560293,59.70276688221273,48.26490217162568,59.70276688221273,48.26490217162568,56.60196986653915,73.33734262560293,0,0,0,0,57,57,57,57,57,3.1622776601683795,6.324555320336759,8.366600265340756,10
17,14,0.07864820000031614,q,51.6,Limited Time - 400ms,e,51.645060763407194,69.95205800401496,64.45532488259431,54.73927630803319,64.45532488259431,54.73927630803319,51.645060763407194,69.95205800401496,0,0,0,0,57,57,57,57,57,3.1622776601683795,6.324555320336759,8.366600265340756,10
17,15,0.10763280000082887,q,66.3,Limited Time - 400ms,e,66.25989571707109,58.094075849278696,55.38714835597902,61.456836014879606,55.38714835597902,61.456836014879606,66.25989571707109,58.094075849278696,0,0,0,0,57,57,57,57,57,3.1622776601683795,6.324555320336759,8.366600265340756,10
17,16,0.07001130000026023,q,44.4,Limited Time - 400ms,e,44.4096521143027,58.56020546816241,53.67754810589538,56.19342022630376,53.67754810589538,56.19342022630376,44.4096521143027,58.56020546816241,0,0,0,0,57,57,57,57,57,3.1622776601683795,6.324555320336759,8.366600265340756,10
17,17,0.07288860000062414,q,86.8,Limited Time - 400ms,e,86.75457426784597,43.37555557831983,57.83781980588874,57.89721535528638,57.83781980588874,57.89721535528638,86.75457426784597,43.37555557831983,0,0,0,0,57,57,57,57,57,3.1622776601683795,6.324555320336759,8.366600265340756,10
17,18,0.04158519999964483,q,50.1,Limited Time - 400ms,e,50.12991900535002,83.58261525581956,54.227225910266846,67.26868371890946,54.227225910266846,67.26868371890946,50.12991900535002,83.58261525581956,0,0,0,0,57,57,57,57,57,3.1622776601683795,6.324555320336759,8.366600265340756,10
17,19,0.13799719999951776,q,56.2,Limited Time - 400ms,e,56.2391679897053,36.650687381911446,56.458370409329774,61.69614207625037,56.458370409329774,61.69614207625037,56.2391679897053,36.650687381911446,0,0,0,0,57,57,57,57,57,3.1622776601683795,6.324555320336759,8.366600265340756,10
17,20,0.04457340000044496,q,54.7,Limited Time - 400ms,e,54.696221271915476,66.92563345102876,57.274234961218426,62.91679623669183,57.274234961218426,62.91679623669183,54.696221271915476,66.92563345102876,0,0,0,0,57,57,57,57,57,3.1622776601683795,6.324555320336759,8.366600265340756,10
18,1,0.2995240999998714,q,51.0,Limited Time - 800ms,h,51.003221552202014,42.15174767115552,59.16444914914132,79.49470769010529,59.16444914914132,42.15174767115552,51.003221552202014,79.49470769010529,-10,-0.33,0.33,10,57,47,56.67,57.33,67,10,10,10,10
18,2,0.1163129000005938,q,61.1,Limited Time - 800ms,h,61.137960211333166,59.817631189793026,61.43339892548357,65.30525893543337,61.43339892548357,59.817631189793026,61.137960211333166,65.30525893543337,-10,-0.33,0.33,10,57,47,56.67,57.33,67,10,10,10,10
18,3,0.16549920000034035,w,53.3,Limited Time - 800ms,h,65.63398737367493,53.286844844826845,42.10509661949919,62.28620679372394,42.10509661949919,53.286844844826845,65.63398737367493,62.28620679372394,-10,-0.33,0.33,10,57,47,56.67,57.33,67,10,10,10,10
18,4,0.10182760000043345,w,60.5,Limited Time - 800ms,h,67.40722431495678,60.526775937762174,60.28136806882423,65.42197884561944,60.28136806882423,60.526775937762174,67.40722431495678,65.42197884561944,-10,-0.33,0.33,10,57,47,56.67,57.33,67,10,10,10,10
18,5,0.16067880000082368,w,46.3,Limited Time - 800ms,h,47.53248329249678,46.30117312447517,45.5499430225635,72.88447294113223,45.5499430225635,46.30117312447517,47.53248329249678,72.88447294113223,-10,-0.33,0.33,10,57,47,56.67,57.33,67,10,10,10,10
18,6,0.13079229999948438,w,69.4,Limited Time - 800ms,h,56.3963024549035,69.40374902785577,60.37632238289309,69.79068452555482,60.37632238289309,69.40374902785577,56.3963024549035,69.79068452555482,-10,-0.33,0.33,10,57,47,56.67,57.33,67,10,10,10,10
18,7,0.21024519999991753,o,67.0,Limited Time - 800ms,h,51.04706154340081,76.85189809883033,66.96787078007642,85.7083594975891,66.96787078007642,76.85189809883033,51.04706154340081,85.7083594975891,-10,-0.33,0.33,10,57,47,56.67,57.33,67,10,10,10,10
18,8,0.02830510000057984,o,52.1,Limited Time - 800ms,h,43.59447062877726,55.077597765631985,52.07828930665235,82.29667385194274,52.07828930665235,55.077597765631985,43.59447062877726,82.29667385194274,-10,-0.33,0.33,10,57,47,56.67,57.33,67,10,10,10,10
18,9,0.19788860000062414,p,55.3,Limited Time - 800ms,h,88.39019959094728,57.161389678402706,59.30304588972087,55.34466240827171,59.30304588972087,57.161389678402706,88.39019959094728,55.34466240827171,-10,-0.33,0.33,10,57,47,56.67,57.33,67,10,10,10,10
18,10,0.0011996000002909568,o,37.9,Limited Time - 800ms,h,58.413517825981714,65.62722352414951,37.894231587331795,67.78772418146451,37.894231587331795,65.62722352414951,58.413517825981714,67.78772418146451,-10,-0.33,0.33,10,57,47,56.67,57.33,67,10,10,10,10
18,11,0.11911539999982779,o,50.0,Limited Time - 800ms,h,53.85832579043706,40.15850866266897,50.0406693976318,56.857448951980174,50.0406693976318,40.15850866266897,53.85832579043706,56.857448951980174,-10,-0.33,0.33,10,57,47,56.67,57.33,67,10,10,10,10
18,12,0.27633289999994304,w,30.7,Limited Time - 800ms,h,64.9219924980718,30.653454140812926,58.22308558401846,69.88490797332605,58.22308558401846,30.653454140812926,64.9219924980718,69.88490797332605,-10,-0.33,0.33,10,57,47,56.67,57.33,67,10,10,10,10
18,13,0.22982500000034634,w,52.4,Limited Time - 800ms,h,54.12845709370643,52.418836487370214,50.93154938960964,67.00032101912022,50.93154938960964,52.418836487370214,54.12845709370643,67.00032101912022,-10,-0.33,0.33,10,57,47,56.67,57.33,67,10,10,10,10
18,14,0.05336080000051879,q,69.1,Limited Time - 800ms,h,69.1174052676159,79.28696910218545,45.196955670697925,67.92174699007458,45.196955670697925,79.28696910218545,69.1174052676159,67.92174699007458,-10,-0.33,0.33,10,57,47,56.67,57.33,67,10,10,10,10
18,15,0.17726959999981773,q,31.9,Limited Time - 800ms,h,31.935138059877893,42.18364023423688,36.413958628404686,66.3578973665157,36.413958628404686,42.18364023423688,31.935138059877893,66.3578973665157,-10,-0.33,0.33,10,57,47,56.67,57.33,67,10,10,10,10
