Round Number,Trial Number,Reaction Time,Choice,Reward (Health Points),Time Condition,Payoff Condition,Q mapped,W mapped,O mapped,P mapped,One value,Two value,Three value,Four value,One mean,Two mean,Three mean,Four mean,Mean Shift,One shifted mean,Two shifted mean,Three shifted mean,Four shifted mean,One SD,Two SD,Three SD,Four SD
1,1,1.3085785999999189,o,20.6,Unlimited Time,i,37.58691216609495,53.26252670860338,20.645207115070882,32.44481533787014,32.44481533787014,20.645207115070882,53.26252670860338,37.58691216609495,-10,-10,10,10,38,28,28,48,48,3.1622776601683795,10,3.1622776601683795,10
1,2,0.2831279000000677,w,47.3,Unlimited Time,i,52.990395566868294,47.34445254748935,24.44347993986704,27.19533035029519,27.19533035029519,24.44347993986704,47.34445254748935,52.990395566868294,-10,-10,10,10,38,28,28,48,48,3.1622776601683795,10,3.1622776601683795,10
1,3,0.48973430000000917,w,46.5,Unlimited Time,i,46.60490329820864,46.543400634711084,29.69701645841486,32.354286373965934,32.354286373965934,29.69701645841486,46.543400634711084,46.60490329820864,-10,-10,10,10,38,28,28,48,48,3.1622776601683795,10,3.1622776601683795,10
1,4,0.4227086999999301,w,48.0,Unlimited Time,i,38.533947448482,47.98557513581045,38.06842228015361,24.903978796222336,24.903978796222336,38.06842228015361,47.98557513581045,38.533947448482,-10,-10,10,10,38,28,28,48,48,3.1622776601683795,10,3.1622776601683795,10
1,5,1.546106899999927,q,64.3,Unlimited Time,i,64.28209272097871,46.613561547272965,15.87544310538393,27.455665828380052,27.455665828380052,15.87544310538393,46.613561547272965,64.28209272097871,-10,-10,10,10,38,28,28,48,48,3.1622776601683795,10,3.1622776601683795,10
1,6,1.5657823999999891,p,38.3,Unlimited Time,i,38.08383120366858,46.13519174590667,46.27838503712515,38.327963006706554,38.327963006706554,46.27838503712515,46.13519174590667,38.08383120366858,-10,-10,10,10,38,28,28,48,48,3.1622776601683795,10,3.1622776601683795,10
1,7,0.1593331000000262,q,59.6,Unlimited Time,i,59.63099896085403,47.15807807000533,23.13644099434869,28.230959591040655,28.230959591040655,23.13644099434869,47.15807807000533,59.63099896085403,-10,-10,10,10,38,28,28,48,48,3.1622776601683795,10,3.1622776601683795,10
1,8,0.671581700000047,q,50.9,Unlimited Time,i,50.882093992263485,44.16913107085827,19.593914704955665,26.811566154376848,26.811566154376848,19.593914704955665,44.16913107085827,50.882093992263485,-10,-10,10,10,38,28,28,48,48,3.1622776601683795,10,3.1622776601683795,10
1,9,9.87958130000004,o,18.8,Unlimited Time,i,47.182249815650074,46.1347110973247,18.825022053555006,27.326165060073407,27.326165060073407,18.825022053555006,46.1347110973247,47.182249815650074,-10,-10,10,10,38,28,28,48,48,3.1622776601683795,10,3.1622776601683795,10
1,10,0.7145020000000386,q,38.1,Unlimited Time,i,38.11610807364997,45.87798260139441,35.556811371207985,27.051692521337234,27.051692521337234,35.556811371207985,45.87798260139441,38.11610807364997,-10,-10,10,10,38,28,28,48,48,3.1622776601683795,10,3.1622776601683795,10
1,11,1.0844114000000218,w,44.2,Unlimited Time,i,50.85678749810761,44.220496584754805,33.704248814487514,22.23473906288993,22.23473906288993,33.704248814487514,44.220496584754805,50.85678749810761,-10,-10,10,10,38,28,28,48,48,3.1622776601683795,10,3.1622776601683795,10
1,12,1.3689305999999988,q,66.2,Unlimited Time,i,66.2471860767094,51.77193911569116,23.451773989039815,23.152106916556235,23.152106916556235,23.451773989039815,51.77193911569116,66.2471860767094,-10,-10,10,10,38,28,28,48,48,3.1622776601683795,10,3.1622776601683795,10
1,13,1.4266857000000073,w,41.4,Unlimited Time,i,62.89595326857585,41.39471384721565,17.680915673745197,29.082575262926444,29.082575262926444,17.680915673745197,41.39471384721565,62.89595326857585,-10,-10,10,10,38,28,28,48,48,3.1622776601683795,10,3.1622776601683795,10
1,14,1.1447046000000682,p,21.9,Unlimited Time,i,48.023399985083486,53.30708392216425,10.507140025189386,21.93904560521434,21.93904560521434,10.507140025189386,53.30708392216425,48.023399985083486,-10,-10,10,10,38,28,28,48,48,3.1622776601683795,10,3.1622776601683795,10
1,15,1.066254699999945,w,50.9,Unlimited Time,i,43.48682999646134,50.93508252112757,13.287090111057523,29.151851188460927,29.151851188460927,13.287090111057523,50.93508252112757,43.48682999646134,-10,-10,10,10,38,28,28,48,48,3.1622776601683795,10,3.1622776601683795,10
1,16,0.5164983999999322,q,51.5,Unlimited Time,i,51.53299152882662,48.096207676167964,31.988584850262548,33.91272963858957,33.91272963858957,31.988584850262548,48.096207676167964,51.53299152882662,-10,-10,10,10,38,28,28,48,48,3.1622776601683795,10,3.1622776601683795,10
1,17,0.8322440000000597,w,50.4,Unlimited Time,i,50.95411561443507,50.41990688129918,15.150623737363217,23.446306359394892,23.446306359394892,15.150623737363217,50.41990688129918,50.95411561443507,-10,-10,10,10,38,28,28,48,48,3.1622776601683795,10,3.1622776601683795,10
1,18,0.3482987999999523,q,42.8,Unlimited Time,i,42.754581737605605,48.41304590255621,40.081195015295506,31.622173406773385,31.622173406773385,40.081195015295506,48.41304590255621,42.754581737605605,-10,-10,10,10,38,28,28,48,48,3.1622776601683795,10,3.1622776601683795,10
1,19,1.119591200000059,o,39.9,Unlimited Time,i,44.593286193939896,45.996244066323115,39.91578430170611,32.4944569447341,32.4944569447341,39.91578430170611,45.996244066323115,44.593286193939896,-10,-10,10,10,38,28,28,48,48,3.1622776601683795,10,3.1622776601683795,10
1,20,0.6107298999999102,p,33.9,Unlimited Time,i,30.67166808726148,51.329568005980185,9.213951422338106,33.89414941129282,33.89414941129282,9.213951422338106,51.329568005980185,30.67166808726148,-10,-10,10,10,38,28,28,48,48,3.1622776601683795,10,3.1622776601683795,10
2,1,0.3236302999999907,w,37.6,Limited Time - 400ms,i,20.645207115070882,37.58691216609495,53.26252670860338,32.44481533787014,32.44481533787014,20.645207115070882,53.26252670860338,37.58691216609495,-10,-10,10,10,38,28,28,48,48,3.1622776601683795,10,3.1622776601683795,10
2,2,0.042752100000029714,w,53.0,Limited Time - 400ms,i,24.44347993986704,52.990395566868294,47.34445254748935,27.19533035029519,27.19533035029519,24.44347993986704,47.34445254748935,52.990395566868294,-10,-10,10,10,38,28,28,48,48,3.1622776601683795,10,3.1622776601683795,10
2,3,0.18706299999996645,w,46.6,Limited Time - 400ms,i,29.69701645841486,46.60490329820864,46.543400634711084,32.354286373965934,32.354286373965934,29.69701645841486,46.543400634711084,46.60490329820864,-10,-10,10,10,38,28,28,48,48,3.1622776601683795,10,3.1622776601683795,10
2,4,,,0.0,Limited Time - 400ms,i,38.06842228015361,38.533947448482,47.98557513581045,24.903978796222336,24.903978796222336,38.06842228015361,47.98557513581045,38.533947448482,-10,-10,10,10,38,28,28,48,48,3.1622776601683795,10,3.1622776601683795,10
2,5,0.27204600000004575,p,27.5,Limited Time - 400ms,i,15.87544310538393,64.28209272097871,46.613561547272965,27.455665828380052,27.455665828380052,15.87544310538393,46.613561547272965,64.28209272097871,-10,-10,10,10,38,28,28,48,48,3.1622776601683795,10,3.1622776601683795,10
2,6,0.19272639999996954,o,46.1,Limited Time - 400ms,i,46.27838503712515,38.08383120366858,46.13519174590667,38.327963006706554,38.327963006706554,46.27838503712515,46.13519174590667,38.08383120366858,-10,-10,10,10,38,28,28,48,48,3.1622776601683795,10,3.1622776601683795,10
2,7,0.14757559999998193,w,59.6,Limited Time - 400ms,i,23.13644099434869,59.63099896085403,47.15807807000533,28.230959591040655,28.230959591040655,23.13644099434869,47.15807807000533,59.63099896085403,-10,-10,10,10,38,28,28,48,48,3.1622776601683795,10,3.1622776601683795,10
2,8,0.04887769999993452,o,44.2,Limited Time - 400ms,i,19.593914704955665,50.882093992263485,44.16913107085827,26.811566154376848,26.811566154376848,19.593914704955665,44.16913107085827,50.882093992263485,-10,-10,10,10,38,28,28,48,48,3.1622776601683795,10,3.1622776601683795,10
2,9,,,0.0,Limited Time - 400ms,i,18.825022053555006,47.182249815650074,46.1347110973247,27.326165060073407,27.326165060073407,18.825022053555006,46.1347110973247,47.182249815650074,-10,-10,10,10,38,28,28,48,48,3.1622776601683795,10,3.1622776601683795,10
2,10,,,0.0,Limited Time - 400ms,i,35.556811371207985,38.11610807364997,45.87798260139441,27.051692521337234,27.051692521337234,35.556811371207985,45.87798260139441,38.11610807364997,-10,-10,10,10,38,28,28,48,48,3.1622776601683795,10,3.1622776601683795,10
2,11,,,0.0,Limited Time - 400ms,i,33.704248814487514,50.85678749810761,44.220496584754805,22.23473906288993,22.23473906288993,33.704248814487514,44.220496584754805,50.85678749810761,-10,-10,10,10,38,28,28,48,48,3.1622776601683795,10,3.1622776601683795,10
2,12,,,0.0,Limited Time - 400ms,i,23.451773989039815,66.2471860767094,51.77193911569116,23.152106916556235,23.152106916556235,23.451773989039815,51.77193911569116,66.2471860767094,-10,-10,10,10,38,28,28,48,48,3.1622776601683795,10,3.1622776601683795,10
2,13,0.11142210000002706,p,29.1,Limited Time - 400ms,i,17.680915673745197,62.89595326857585,41.39471384721565,29.082575262926444,29.082575262926444,17.680915673745197,41.39471384721565,62.89595326857585,-10,-10,10,10,38,28,28,48,48,3.1622776601683795,10,3.1622776601683795,10
2,14,0.26505040000006375,o,53.3,Limited Time - 400ms,i,10.507140025189386,48.023399985083486,53.30708392216425,21.93904560521434,21.93904560521434,10.507140025189386,53.30708392216425,48.023399985083486,-10,-10,10,10,38,28,28,48,48,3.1622776601683795,10,3.1622776601683795,10
2,15,0.15815090000000964,w,43.5,Limited Time - 400ms,i,13.287090111057523,43.48682999646134,50.93508252112757,29.151851188460927,29.151851188460927,13.287090111057523,50.93508252112757,43.48682999646134,-10,-10,10,10,38,28,28,48,48,3.1622776601683795,10,3.1622776601683795,10
2,16,0.30140819999996893,q,32.0,Limited Time - 400ms,i,31.988584850262548,51.53299152882662,48.096207676167964,33.91272963858957,33.91272963858957,31.988584850262548,48.096207676167964,51.53299152882662,-10,-10,10,10,38,28,28,48,48,3.1622776601683795,10,3.1622776601683795,10
2,17,0.21611640000003263,w,51.0,Limited Time - 400ms,i,15.150623737363217,50.95411561443507,50.41990688129918,23.446306359394892,23.446306359394892,15.150623737363217,50.41990688129918,50.95411561443507,-10,-10,10,10,38,28,28,48,48,3.1622776601683795,10,3.1622776601683795,10
2,18,0.0703876999999693,o,48.4,Limited Time - 400ms,i,40.081195015295506,42.754581737605605,48.41304590255621,31.622173406773385,31.622173406773385,40.081195015295506,48.41304590255621,42.754581737605605,-10,-10,10,10,38,28,28,48,48,3.1622776601683795,10,3.1622776601683795,10
2,19,,,0.0,Limited Time - 400ms,i,39.91578430170611,44.593286193939896,45.996244066323115,32.4944569447341,32.4944569447341,39.91578430170611,45.996244066323115,44.593286193939896,-10,-10,10,10,38,28,28,48,48,3.1622776601683795,10,3.1622776601683795,10
2,20,,,0.0,Limited Time - 400ms,i,9.213951422338106,30.67166808726148,51.329568005980185,33.89414941129282,33.89414941129282,9.213951422338106,51.329568005980185,30.67166808726148,-10,-10,10,10,38,28,28,48,48,3.1622776601683795,10,3.1622776601683795,10
3,1,0.42159639999999854,w,35.7,Limited Time - 800ms,l,51.23569143457081,35.66426427194242,37.517829889733605,27.91859421000383,27.91859421000383,35.66426427194242,37.517829889733605,51.23569143457081,-10,-0.33,0.33,10,38,28,37.67,38.33,48,3.1622776601683795,3.1622776601683795,3.1622776601683795,3.1622776601683795
3,2,0.1901358000000073,w,33.4,Limited Time - 800ms,l,48.156527510090136,33.37416356193087,36.99252897135851,26.373306583875273,26.373306583875273,33.37416356193087,36.99252897135851,48.156527510090136,-10,-0.33,0.33,10,38,28,37.67,38.33,48,3.1622776601683795,3.1622776601683795,3.1622776601683795,3.1622776601683795
3,3,0.14837569999997413,q,40.4,Limited Time - 800ms,l,40.3824776078242,39.49348357963784,36.92759999798984,24.823001672304947,24.823001672304947,39.49348357963784,36.92759999798984,40.3824776078242,-10,-0.33,0.33,10,38,28,37.67,38.33,48,3.1622776601683795,3.1622776601683795,3.1622776601683795,3.1622776601683795
3,4,0.25335130000007666,p,29.6,Limited Time - 800ms,l,51.592960725944344,34.78763297793437,35.483638902294196,29.597730097701273,29.597730097701273,34.78763297793437,35.483638902294196,51.592960725944344,-10,-0.33,0.33,10,38,28,37.67,38.33,48,3.1622776601683795,3.1622776601683795,3.1622776601683795,3.1622776601683795
3,5,0.2616967999999815,o,32.3,Limited Time - 800ms,l,47.78340533607795,39.20507350012001,32.294717309606376,27.766710467123513,27.766710467123513,39.20507350012001,32.294717309606376,47.78340533607795,-10,-0.33,0.33,10,38,28,37.67,38.33,48,3.1622776601683795,3.1622776601683795,3.1622776601683795,3.1622776601683795
3,6,0.13850409999997737,w,34.5,Limited Time - 800ms,l,51.38170919723534,34.5300354530483,36.72045877179028,24.168669128508828,24.168669128508828,34.5300354530483,36.72045877179028,51.38170919723534,-10,-0.33,0.33,10,38,28,37.67,38.33,48,3.1622776601683795,3.1622776601683795,3.1622776601683795,3.1622776601683795
3,7,0.24266109999996388,q,50.9,Limited Time - 800ms,l,50.91583916907302,29.81441032564116,35.03996443537075,23.141639781912136,23.141639781912136,29.81441032564116,35.03996443537075,50.91583916907302,-10,-0.33,0.33,10,38,28,37.67,38.33,48,3.1622776601683795,3.1622776601683795,3.1622776601683795,3.1622776601683795
3,8,0.2600373000000218,w,31.5,Limited Time - 800ms,l,46.866908466425514,31.53369481197145,41.4354261622522,23.801460645397036,23.801460645397036,31.53369481197145,41.4354261622522,46.866908466425514,-10,-0.33,0.33,10,38,28,37.67,38.33,48,3.1622776601683795,3.1622776601683795,3.1622776601683795,3.1622776601683795
3,9,0.12721349999992526,q,46.1,Limited Time - 800ms,l,46.084672731384266,36.5452243925526,43.78820753389048,25.681200310016575,25.681200310016575,36.5452243925526,43.78820753389048,46.084672731384266,-10,-0.33,0.33,10,38,28,37.67,38.33,48,3.1622776601683795,3.1622776601683795,3.1622776601683795,3.1622776601683795
3,10,0.21323110000002998,p,31.4,Limited Time - 800ms,l,45.9166722727889,42.94730293495892,36.39934881863676,31.370571513000343,31.370571513000343,42.94730293495892,36.39934881863676,45.9166722727889,-10,-0.33,0.33,10,38,28,37.67,38.33,48,3.1622776601683795,3.1622776601683795,3.1622776601683795,3.1622776601683795
3,11,0.2700906999999688,o,39.5,Limited Time - 800ms,l,43.826288007301656,41.892707524101866,39.536534361752125,27.31409578658329,27.31409578658329,41.892707524101866,39.536534361752125,43.826288007301656,-10,-0.33,0.33,10,38,28,37.67,38.33,48,3.1622776601683795,3.1622776601683795,3.1622776601683795,3.1622776601683795
3,12,0.18339660000003732,w,36.2,Limited Time - 800ms,l,48.63517277933876,36.15423870980773,41.159141160167344,22.845551485862757,22.845551485862757,36.15423870980773,41.159141160167344,48.63517277933876,-10,-0.33,0.33,10,38,28,37.67,38.33,48,3.1622776601683795,3.1622776601683795,3.1622776601683795,3.1622776601683795
3,13,0.27354379999997036,q,44.6,Limited Time - 800ms,l,44.58601771006204,35.719826614299336,44.020965369791114,22.77939944884094,22.77939944884094,35.719826614299336,44.020965369791114,44.58601771006204,-10,-0.33,0.33,10,38,28,37.67,38.33,48,3.1622776601683795,3.1622776601683795,3.1622776601683795,3.1622776601683795
3,14,0.24023249999993368,p,27.9,Limited Time - 800ms,l,53.09332805179445,37.067882256466184,45.20055596639065,27.91641139130524,27.91641139130524,37.067882256466184,45.20055596639065,53.09332805179445,-10,-0.33,0.33,10,38,28,37.67,38.33,48,3.1622776601683795,3.1622776601683795,3.1622776601683795,3.1622776601683795
3,15,0.18603970000003756,o,38.1,Limited Time - 800ms,l,47.31868194557219,40.37358598388944,38.147764686677114,32.78961229582215,32.78961229582215,40.37358598388944,38.147764686677114,47.31868194557219,-10,-0.33,0.33,10,38,28,37.67,38.33,48,3.1622776601683795,3.1622776601683795,3.1622776601683795,3.1622776601683795
3,16,0.1298520999999937,w,35.1,Limited Time - 800ms,l,45.397438088474864,35.10254828580467,36.212039416679964,30.578276708177246,30.578276708177246,35.10254828580467,36.212039416679964,45.397438088474864,-10,-0.33,0.33,10,38,28,37.67,38.33,48,3.1622776601683795,3.1622776601683795,3.1622776601683795,3.1622776601683795
3,17,0.16501449999998385,w,33.4,Limited Time - 800ms,l,42.876734086316716,33.355929908341814,35.16580170694136,31.214944035122937,31.214944035122937,33.355929908341814,35.16580170694136,42.876734086316716,-10,-0.33,0.33,10,38,28,37.67,38.33,48,3.1622776601683795,3.1622776601683795,3.1622776601683795,3.1622776601683795
3,18,0.1435018999999329,q,48.4,Limited Time - 800ms,l,48.36039444211465,38.240473129464974,37.12805157281271,28.655612043974084,28.655612043974084,38.240473129464974,37.12805157281271,48.36039444211465,-10,-0.33,0.33,10,38,28,37.67,38.33,48,3.1622776601683795,3.1622776601683795,3.1622776601683795,3.1622776601683795
3,19,0.04473310000003039,q,46.5,Limited Time - 800ms,l,46.45667930816146,32.635795511721795,33.82899250172606,26.405479463954304,26.405479463954304,32.635795511721795,33.82899250172606,46.45667930816146,-10,-0.33,0.33,10,38,28,37.67,38.33,48,3.1622776601683795,3.1622776601683795,3.1622776601683795,3.1622776601683795
3,20,0.22098889999995208,q,49.7,Limited Time - 800ms,l,49.71393741830276,31.948791552313274,34.53839186421307,25.028529959487987,25.028529959487987,31.948791552313274,34.53839186421307,49.71393741830276,-10,-0.33,0.33,10,38,28,37.67,38.33,48,3.1622776601683795,3.1622776601683795,3.1622776601683795,3.1622776601683795
4,1,0.7729002999999466,q,51.2,Unlimited Time,l,51.23569143457081,35.66426427194242,37.517829889733605,27.91859421000383,27.91859421000383,35.66426427194242,37.517829889733605,51.23569143457081,-10,-0.33,0.33,10,38,28,37.67,38.33,48,3.1622776601683795,3.1622776601683795,3.1622776601683795,3.1622776601683795
4,2,0.2762208000000328,w,33.4,Unlimited Time,l,48.156527510090136,33.37416356193087,36.99252897135851,26.373306583875273,26.373306583875273,33.37416356193087,36.99252897135851,48.156527510090136,-10,-0.33,0.33,10,38,28,37.67,38.33,48,3.1622776601683795,3.1622776601683795,3.1622776601683795,3.1622776601683795
4,3,0.28545009999993454,o,36.9,Unlimited Time,l,40.3824776078242,39.49348357963784,36.92759999798984,24.823001672304947,24.823001672304947,39.49348357963784,36.92759999798984,40.3824776078242,-10,-0.33,0.33,10,38,28,37.67,38.33,48,3.1622776601683795,3.1622776601683795,3.1622776601683795,3.1622776601683795
4,4,0.2518327999999883,p,29.6,Unlimited Time,l,51.592960725944344,34.78763297793437,35.483638902294196,29.597730097701273,29.597730097701273,34.78763297793437,35.483638902294196,51.592960725944344,-10,-0.33,0.33,10,38,28,37.67,38.33,48,3.1622776601683795,3.1622776601683795,3.1622776601683795,3.1622776601683795
4,5,0.22759029999997438,q,47.8,Unlimited Time,l,47.78340533607795,39.20507350012001,32.294717309606376,27.766710467123513,27.766710467123513,39.20507350012001,32.294717309606376,47.78340533607795,-10,-0.33,0.33,10,38,28,37.67,38.33,48,3.1622776601683795,3.1622776601683795,3.1622776601683795,3.1622776601683795
4,6,0.25717729999996664,q,51.4,Unlimited Time,l,51.38170919723534,34.5300354530483,36.72045877179028,24.168669128508828,24.168669128508828,34.5300354530483,36.72045877179028,51.38170919723534,-10,-0.33,0.33,10,38,28,37.67,38.33,48,3.1622776601683795,3.1622776601683795,3.1622776601683795,3.1622776601683795
4,7,0.397480900000005,q,50.9,Unlimited Time,l,50.91583916907302,29.81441032564116,35.03996443537075,23.141639781912136,23.141639781912136,29.81441032564116,35.03996443537075,50.91583916907302,-10,-0.33,0.33,10,38,28,37.67,38.33,48,3.1622776601683795,3.1622776601683795,3.1622776601683795,3.1622776601683795
4,8,0.2450990999999476,q,46.9,Unlimited Time,l,46.866908466425514,31.53369481197145,41.4354261622522,23.801460645397036,23.801460645397036,31.53369481197145,41.4354261622522,46.866908466425514,-10,-0.33,0.33,10,38,28,37.67,38.33,48,3.1622776601683795,3.1622776601683795,3.1622776601683795,3.1622776601683795
4,9,0.24293760000000475,q,46.1,Unlimited Time,l,46.084672731384266,36.5452243925526,43.78820753389048,25.681200310016575,25.681200310016575,36.5452243925526,43.78820753389048,46.084672731384266,-10,-0.33,0.33,10,38,28,37.67,38.33,48,3.1622776601683795,3.1622776601683795,3.1622776601683795,3.1622776601683795
4,10,0.20830499999999574,q,45.9,Unlimited Time,l,45.9166722727889,42.94730293495892,36.39934881863676,31.370571513000343,31.370571513000343,42.94730293495892,36.39934881863676,45.9166722727889,-10,-0.33,0.33,10,38,28,37.67,38.33,48,3.1622776601683795,3.1622776601683795,3.1622776601683795,3.1622776601683795
4,11,0.22078260000000682,w,41.9,Unlimited Time,l,43.826288007301656,41.892707524101866,39.536534361752125,27.31409578658329,27.31409578658329,41.892707524101866,39.536534361752125,43.826288007301656,-10,-0.33,0.33,10,38,28,37.67,38.33,48,3.1622776601683795,3.1622776601683795,3.1622776601683795,3.1622776601683795
4,12,0.7137920000000122,q,48.6,Unlimited Time,l,48.63517277933876,36.15423870980773,41.159141160167344,22.845551485862757,22.845551485862757,36.15423870980773,41.159141160167344,48.63517277933876,-10,-0.33,0.33,10,38,28,37.67,38.33,48,3.1622776601683795,3.1622776601683795,3.1622776601683795,3.1622776601683795
4,13,0.33779390000006515,o,44.0,Unlimited Time,l,44.58601771006204,35.719826614299336,44.020965369791114,22.77939944884094,22.77939944884094,35.719826614299336,44.020965369791114,44.58601771006204,-10,-0.33,0.33,10,38,28,37.67,38.33,48,3.1622776601683795,3.1622776601683795,3.1622776601683795,3.1622776601683795
4,14,0.6705342999999857,p,27.9,Unlimited Time,l,53.09332805179445,37.067882256466184,45.20055596639065,27.91641139130524,27.91641139130524,37.067882256466184,45.20055596639065,53.09332805179445,-10,-0.33,0.33,10,38,28,37.67,38.33,48,3.1622776601683795,3.1622776601683795,3.1622776601683795,3.1622776601683795
4,15,0.0538490000000138,o,38.1,Unlimited Time,l,47.31868194557219,40.37358598388944,38.147764686677114,32.78961229582215,32.78961229582215,40.37358598388944,38.147764686677114,47.31868194557219,-10,-0.33,0.33,10,38,28,37.67,38.33,48,3.1622776601683795,3.1622776601683795,3.1622776601683795,3.1622776601683795
4,16,0.13496620000000803,o,36.2,Unlimited Time,l,45.397438088474864,35.10254828580467,36.212039416679964,30.578276708177246,30.578276708177246,35.10254828580467,36.212039416679964,45.397438088474864,-10,-0.33,0.33,10,38,28,37.67,38.33,48,3.1622776601683795,3.1622776601683795,3.1622776601683795,3.1622776601683795
4,17,0.571188799999959,q,42.9,Unlimited Time,l,42.876734086316716,33.355929908341814,35.16580170694136,31.214944035122937,31.214944035122937,33.355929908341814,35.16580170694136,42.876734086316716,-10,-0.33,0.33,10,38,28,37.67,38.33,48,3.1622776601683795,3.1622776601683795,3.1622776601683795,3.1622776601683795
4,18,0.311037199999987,q,48.4,Unlimited Time,l,48.36039444211465,38.240473129464974,37.12805157281271,28.655612043974084,28.655612043974084,38.240473129464974,37.12805157281271,48.36039444211465,-10,-0.33,0.33,10,38,28,37.67,38.33,48,3.1622776601683795,3.1622776601683795,3.1622776601683795,3.1622776601683795
4,19,0.32231799999999566,q,46.5,Unlimited Time,l,46.45667930816146,32.635795511721795,33.82899250172606,26.405479463954304,26.405479463954304,32.635795511721795,33.82899250172606,46.45667930816146,-10,-0.33,0.33,10,38,28,37.67,38.33,48,3.1622776601683795,3.1622776601683795,3.1622776601683795,3.1622776601683795
4,20,0.5325128999999151,q,49.7,Unlimited Time,l,49.71393741830276,31.948791552313274,34.53839186421307,25.028529959487987,25.028529959487987,31.948791552313274,34.53839186421307,49.71393741830276,-10,-0.33,0.33,10,38,28,37.67,38.33,48,3.1622776601683795,3.1622776601683795,3.1622776601683795,3.1622776601683795
5,1,0.14939379999998437,q,14.7,Limited Time - 400ms,h,14.704916218617472,29.00848620455925,49.31419829584826,16.67082867014321,14.704916218617472,29.00848620455925,49.31419829584826,16.67082867014321,-10,-0.33,0.33,10,38,28,37.67,38.33,48,10,10,10,10
5,2,0.14667039999994813,w,49.6,Limited Time - 400ms,h,18.756580317628664,49.62070414382851,29.791370175445458,34.13678016414174,18.756580317628664,49.62070414382851,29.791370175445458,34.13678016414174,-10,-0.33,0.33,10,38,28,37.67,38.33,48,10,10,10,10
5,3,0.20604969999999412,w,43.3,Limited Time - 400ms,h,35.1743917969777,43.27043039732094,39.0904743816159,52.10556677161835,35.1743917969777,43.27043039732094,39.0904743816159,52.10556677161835,-10,-0.33,0.33,10,38,28,37.67,38.33,48,10,10,10,10
5,4,0.20569810000006328,w,26.2,Limited Time - 400ms,h,22.93234275325064,26.243864183195814,57.951644207848666,54.594031894069026,22.93234275325064,26.243864183195814,57.951644207848666,54.594031894069026,-10,-0.33,0.33,10,38,28,37.67,38.33,48,10,10,10,10
5,5,0.2371203999999807,w,33.3,Limited Time - 400ms,h,42.24204907988173,33.325252162679824,33.33829348406121,48.68686874802552,42.24204907988173,33.325252162679824,33.33829348406121,48.68686874802552,-10,-0.33,0.33,10,38,28,37.67,38.33,48,10,10,10,10
5,6,0.19747710000001462,o,49.0,Limited Time - 400ms,h,21.39812523039189,16.67686412936554,48.99997704955098,52.05590148571431,21.39812523039189,16.67686412936554,48.99997704955098,52.05590148571431,-10,-0.33,0.33,10,38,28,37.67,38.33,48,10,10,10,10
5,7,0.2296788999999535,o,28.7,Limited Time - 400ms,h,29.864221337200412,41.813971447051124,28.673756585456843,71.32338314090168,29.864221337200412,41.813971447051124,28.673756585456843,71.32338314090168,-10,-0.33,0.33,10,38,28,37.67,38.33,48,10,10,10,10
5,8,0.21572379999997793,p,49.6,Limited Time - 400ms,h,29.34239680445931,44.163282120827674,23.45259334089286,49.57640743372732,29.34239680445931,44.163282120827674,23.45259334089286,49.57640743372732,-10,-0.33,0.33,10,38,28,37.67,38.33,48,10,10,10,10
5,9,0.21926110000003973,p,53.3,Limited Time - 400ms,h,40.89929033975722,41.0864183378966,40.07775735788555,53.3170461765733,40.89929033975722,41.0864183378966,40.07775735788555,53.3170461765733,-10,-0.33,0.33,10,38,28,37.67,38.33,48,10,10,10,10
5,10,0.23722910000003594,p,50.1,Limited Time - 400ms,h,25.581468190543287,46.080276151585295,45.257730386067585,50.10037217868419,25.581468190543287,46.080276151585295,45.257730386067585,50.10037217868419,-10,-0.33,0.33,10,38,28,37.67,38.33,48,10,10,10,10
5,11,0.20441570000002685,p,42.7,Limited Time - 400ms,h,25.44866975599913,27.541774462071,42.64093819306025,42.73986379283581,25.44866975599913,27.541774462071,42.64093819306025,42.73986379283581,-10,-0.33,0.33,10,38,28,37.67,38.33,48,10,10,10,10
5,12,0.22242289999996956,p,35.9,Limited Time - 400ms,h,42.06769907995467,35.046248086837046,35.602719282678116,35.90368765326432,42.06769907995467,35.046248086837046,35.602719282678116,35.90368765326432,-10,-0.33,0.33,10,38,28,37.67,38.33,48,10,10,10,10
5,13,0.24977679999994962,p,46.7,Limited Time - 400ms,h,32.497572944215364,42.26342412410343,38.00540191721968,46.70087214893117,32.497572944215364,42.26342412410343,38.00540191721968,46.70087214893117,-10,-0.33,0.33,10,38,28,37.67,38.33,48,10,10,10,10
5,14,0.20817859999999655,w,48.9,Limited Time - 400ms,h,33.20836415770518,48.861480979795815,43.6361903486304,37.431594790911014,33.20836415770518,48.861480979795815,43.6361903486304,37.431594790911014,-10,-0.33,0.33,10,38,28,37.67,38.33,48,10,10,10,10
5,15,0.34899749999999585,w,50.6,Limited Time - 400ms,h,36.00516695141674,50.64507185148052,29.162983434906877,48.7821664770625,36.00516695141674,50.64507185148052,29.162983434906877,48.7821664770625,-10,-0.33,0.33,10,38,28,37.67,38.33,48,10,10,10,10
5,16,0.23039310000001478,w,33.5,Limited Time - 400ms,h,18.20601888412301,33.530291369769095,44.87579616391253,49.80984373557646,18.20601888412301,33.530291369769095,44.87579616391253,49.80984373557646,-10,-0.33,0.33,10,38,28,37.67,38.33,48,10,10,10,10
5,17,0.24222599999995964,w,45.0,Limited Time - 400ms,h,29.592337039885635,45.04141722199451,36.008129863556306,51.06299116717697,29.592337039885635,45.04141722199451,36.008129863556306,51.06299116717697,-10,-0.33,0.33,10,38,28,37.67,38.33,48,10,10,10,10
5,18,,,0.0,Limited Time - 400ms,h,30.451291401127346,40.83049139311497,40.25401720465702,42.84461406627879,30.451291401127346,40.83049139311497,40.25401720465702,42.84461406627879,-10,-0.33,0.33,10,38,28,37.67,38.33,48,10,10,10,10
5,19,,,0.0,Limited Time - 400ms,h,27.536046775791153,56.272928164469846,34.94681719465522,38.476278013044904,27.536046775791153,56.272928164469846,34.94681719465522,38.476278013044904,-10,-0.33,0.33,10,38,28,37.67,38.33,48,10,10,10,10
5,20,,,0.0,Limited Time - 400ms,h,20.838550759386436,42.6207024697206,37.81236196441215,37.769425752634305,20.838550759386436,42.6207024697206,37.81236196441215,37.769425752634305,-10,-0.33,0.33,10,38,28,37.67,38.33,48,10,10,10,10
6,1,,,0.0,Limited Time - 800ms,h,16.67082867014321,29.00848620455925,14.704916218617472,49.31419829584826,14.704916218617472,29.00848620455925,49.31419829584826,16.67082867014321,-10,-0.33,0.33,10,38,28,37.67,38.33,48,10,10,10,10
6,2,0.17302329999995436,w,49.6,Limited Time - 800ms,h,34.13678016414174,49.62070414382851,18.756580317628664,29.791370175445458,18.756580317628664,49.62070414382851,29.791370175445458,34.13678016414174,-10,-0.33,0.33,10,38,28,37.67,38.33,48,10,10,10,10
6,3,0.30809469999996963,w,43.3,Limited Time - 800ms,h,52.10556677161835,43.27043039732094,35.1743917969777,39.0904743816159,35.1743917969777,43.27043039732094,39.0904743816159,52.10556677161835,-10,-0.33,0.33,10,38,28,37.67,38.33,48,10,10,10,10
6,4,0.31003640000005817,w,26.2,Limited Time - 800ms,h,54.594031894069026,26.243864183195814,22.93234275325064,57.951644207848666,22.93234275325064,26.243864183195814,57.951644207848666,54.594031894069026,-10,-0.33,0.33,10,38,28,37.67,38.33,48,10,10,10,10
6,5,0.36260619999995924,q,48.7,Limited Time - 800ms,h,48.68686874802552,33.325252162679824,42.24204907988173,33.33829348406121,42.24204907988173,33.325252162679824,33.33829348406121,48.68686874802552,-10,-0.33,0.33,10,38,28,37.67,38.33,48,10,10,10,10
6,6,0.3577091999999311,q,52.1,Limited Time - 800ms,h,52.05590148571431,16.67686412936554,21.39812523039189,48.99997704955098,21.39812523039189,16.67686412936554,48.99997704955098,52.05590148571431,-10,-0.33,0.33,10,38,28,37.67,38.33,48,10,10,10,10
6,7,0.34042759999999817,q,71.3,Limited Time - 800ms,h,71.32338314090168,41.813971447051124,29.864221337200412,28.673756585456843,29.864221337200412,41.813971447051124,28.673756585456843,71.32338314090168,-10,-0.33,0.33,10,38,28,37.67,38.33,48,10,10,10,10
6,8,0.4566816999999901,q,49.6,Limited Time - 800ms,h,49.57640743372732,44.163282120827674,29.34239680445931,23.45259334089286,29.34239680445931,44.163282120827674,23.45259334089286,49.57640743372732,-10,-0.33,0.33,10,38,28,37.67,38.33,48,10,10,10,10
6,9,0.5317723000000569,q,53.3,Limited Time - 800ms,h,53.3170461765733,41.0864183378966,40.89929033975722,40.07775735788555,40.89929033975722,41.0864183378966,40.07775735788555,53.3170461765733,-10,-0.33,0.33,10,38,28,37.67,38.33,48,10,10,10,10
6,10,0.2688113000000385,q,50.1,Limited Time - 800ms,h,50.10037217868419,46.080276151585295,25.581468190543287,45.257730386067585,25.581468190543287,46.080276151585295,45.257730386067585,50.10037217868419,-10,-0.33,0.33,10,38,28,37.67,38.33,48,10,10,10,10
6,11,0.48956220000002304,q,42.7,Limited Time - 800ms,h,42.73986379283581,27.541774462071,25.44866975599913,42.64093819306025,25.44866975599913,27.541774462071,42.64093819306025,42.73986379283581,-10,-0.33,0.33,10,38,28,37.67,38.33,48,10,10,10,10
6,12,0.33754160000000866,q,35.9,Limited Time - 800ms,h,35.90368765326432,35.046248086837046,42.06769907995467,35.602719282678116,42.06769907995467,35.046248086837046,35.602719282678116,35.90368765326432,-10,-0.33,0.33,10,38,28,37.67,38.33,48,10,10,10,10
6,13,0.2391738000000032,p,38.0,Limited Time - 800ms,h,46.70087214893117,42.26342412410343,32.497572944215364,38.00540191721968,32.497572944215364,42.26342412410343,38.00540191721968,46.70087214893117,-10,-0.33,0.33,10,38,28,37.67,38.33,48,10,10,10,10
6,14,0.31182830000000195,o,33.2,Limited Time - 800ms,h,37.431594790911014,48.861480979795815,33.20836415770518,43.6361903486304,33.20836415770518,48.861480979795815,43.6361903486304,37.431594790911014,-10,-0.33,0.33,10,38,28,37.67,38.33,48,10,10,10,10
6,15,0.28572559999997793,w,50.6,Limited Time - 800ms,h,48.7821664770625,50.64507185148052,36.00516695141674,29.162983434906877,36.00516695141674,50.64507185148052,29.162983434906877,48.7821664770625,-10,-0.33,0.33,10,38,28,37.67,38.33,48,10,10,10,10
6,16,0.4825431000000435,w,33.5,Limited Time - 800ms,h,49.80984373557646,33.530291369769095,18.20601888412301,44.87579616391253,18.20601888412301,33.530291369769095,44.87579616391253,49.80984373557646,-10,-0.33,0.33,10,38,28,37.67,38.33,48,10,10,10,10
6,17,0.42661469999995916,w,45.0,Limited Time - 800ms,h,51.06299116717697,45.04141722199451,29.592337039885635,36.008129863556306,29.592337039885635,45.04141722199451,36.008129863556306,51.06299116717697,-10,-0.33,0.33,10,38,28,37.67,38.33,48,10,10,10,10
6,18,0.22057189999998172,q,42.8,Limited Time - 800ms,h,42.84461406627879,40.83049139311497,30.451291401127346,40.25401720465702,30.451291401127346,40.83049139311497,40.25401720465702,42.84461406627879,-10,-0.33,0.33,10,38,28,37.67,38.33,48,10,10,10,10
6,19,0.29530990000000656,q,38.5,Limited Time - 800ms,h,38.476278013044904,56.272928164469846,27.536046775791153,34.94681719465522,27.536046775791153,56.272928164469846,34.94681719465522,38.476278013044904,-10,-0.33,0.33,10,38,28,37.67,38.33,48,10,10,10,10
6,20,0.16279819999999745,w,42.6,Limited Time - 800ms,h,37.769425752634305,42.6207024697206,20.838550759386436,37.81236196441215,20.838550759386436,42.6207024697206,37.81236196441215,37.769425752634305,-10,-0.33,0.33,10,38,28,37.67,38.33,48,10,10,10,10
7,1,0.641960499999982,w,29.0,Unlimited Time,h,49.31419829584826,29.00848620455925,16.67082867014321,14.704916218617472,14.704916218617472,29.00848620455925,49.31419829584826,16.67082867014321,-10,-0.33,0.33,10,38,28,37.67,38.33,48,10,10,10,10
7,2,0.17996180000000095,q,29.8,Unlimited Time,h,29.791370175445458,49.62070414382851,34.13678016414174,18.756580317628664,18.756580317628664,49.62070414382851,29.791370175445458,34.13678016414174,-10,-0.33,0.33,10,38,28,37.67,38.33,48,10,10,10,10
7,3,0.31759150000004865,p,35.2,Unlimited Time,h,39.0904743816159,43.27043039732094,52.10556677161835,35.1743917969777,35.1743917969777,43.27043039732094,39.0904743816159,52.10556677161835,-10,-0.33,0.33,10,38,28,37.67,38.33,48,10,10,10,10
7,4,0.24524669999993876,o,54.6,Unlimited Time,h,57.951644207848666,26.243864183195814,54.594031894069026,22.93234275325064,22.93234275325064,26.243864183195814,57.951644207848666,54.594031894069026,-10,-0.33,0.33,10,38,28,37.67,38.33,48,10,10,10,10
7,5,0.25554379999994126,o,48.7,Unlimited Time,h,33.33829348406121,33.325252162679824,48.68686874802552,42.24204907988173,42.24204907988173,33.325252162679824,33.33829348406121,48.68686874802552,-10,-0.33,0.33,10,38,28,37.67,38.33,48,10,10,10,10
7,6,0.28179579999994075,o,52.1,Unlimited Time,h,48.99997704955098,16.67686412936554,52.05590148571431,21.39812523039189,21.39812523039189,16.67686412936554,48.99997704955098,52.05590148571431,-10,-0.33,0.33,10,38,28,37.67,38.33,48,10,10,10,10
7,7,0.2752078999999412,o,71.3,Unlimited Time,h,28.673756585456843,41.813971447051124,71.32338314090168,29.864221337200412,29.864221337200412,41.813971447051124,28.673756585456843,71.32338314090168,-10,-0.33,0.33,10,38,28,37.67,38.33,48,10,10,10,10
7,8,0.32600830000001224,o,49.6,Unlimited Time,h,23.45259334089286,44.163282120827674,49.57640743372732,29.34239680445931,29.34239680445931,44.163282120827674,23.45259334089286,49.57640743372732,-10,-0.33,0.33,10,38,28,37.67,38.33,48,10,10,10,10
7,9,0.25855479999995623,w,41.1,Unlimited Time,h,40.07775735788555,41.0864183378966,53.3170461765733,40.89929033975722,40.89929033975722,41.0864183378966,40.07775735788555,53.3170461765733,-10,-0.33,0.33,10,38,28,37.67,38.33,48,10,10,10,10
7,10,0.2406129000000874,o,50.1,Unlimited Time,h,45.257730386067585,46.080276151585295,50.10037217868419,25.581468190543287,25.581468190543287,46.080276151585295,45.257730386067585,50.10037217868419,-10,-0.33,0.33,10,38,28,37.67,38.33,48,10,10,10,10
7,11,0.19524999999998727,q,42.6,Unlimited Time,h,42.64093819306025,27.541774462071,42.73986379283581,25.44866975599913,25.44866975599913,27.541774462071,42.64093819306025,42.73986379283581,-10,-0.33,0.33,10,38,28,37.67,38.33,48,10,10,10,10
7,12,0.10063040000000001,o,35.9,Unlimited Time,h,35.602719282678116,35.046248086837046,35.90368765326432,42.06769907995467,42.06769907995467,35.046248086837046,35.602719282678116,35.90368765326432,-10,-0.33,0.33,10,38,28,37.67,38.33,48,10,10,10,10
7,13,0.41870029999995495,o,46.7,Unlimited Time,h,38.00540191721968,42.26342412410343,46.70087214893117,32.497572944215364,32.497572944215364,42.26342412410343,38.00540191721968,46.70087214893117,-10,-0.33,0.33,10,38,28,37.67,38.33,48,10,10,10,10
7,14,0.2513470999999754,o,37.4,Unlimited Time,h,43.6361903486304,48.861480979795815,37.431594790911014,33.20836415770518,33.20836415770518,48.861480979795815,43.6361903486304,37.431594790911014,-10,-0.33,0.33,10,38,28,37.67,38.33,48,10,10,10,10
7,15,0.2819531000000097,w,50.6,Unlimited Time,h,29.162983434906877,50.64507185148052,48.7821664770625,36.00516695141674,36.00516695141674,50.64507185148052,29.162983434906877,48.7821664770625,-10,-0.33,0.33,10,38,28,37.67,38.33,48,10,10,10,10
7,16,0.25411940000003597,w,33.5,Unlimited Time,h,44.87579616391253,33.530291369769095,49.80984373557646,18.20601888412301,18.20601888412301,33.530291369769095,44.87579616391253,49.80984373557646,-10,-0.33,0.33,10,38,28,37.67,38.33,48,10,10,10,10
7,17,0.40683289999992667,q,36.0,Unlimited Time,h,36.008129863556306,45.04141722199451,51.06299116717697,29.592337039885635,29.592337039885635,45.04141722199451,36.008129863556306,51.06299116717697,-10,-0.33,0.33,10,38,28,37.67,38.33,48,10,10,10,10
7,18,0.37842779999994036,p,30.5,Unlimited Time,h,40.25401720465702,40.83049139311497,42.84461406627879,30.451291401127346,30.451291401127346,40.83049139311497,40.25401720465702,42.84461406627879,-10,-0.33,0.33,10,38,28,37.67,38.33,48,10,10,10,10
7,19,0.07548289999999724,p,27.5,Unlimited Time,h,34.94681719465522,56.272928164469846,38.476278013044904,27.536046775791153,27.536046775791153,56.272928164469846,34.94681719465522,38.476278013044904,-10,-0.33,0.33,10,38,28,37.67,38.33,48,10,10,10,10
7,20,0.35581309999997757,q,37.8,Unlimited Time,h,37.81236196441215,42.6207024697206,37.769425752634305,20.838550759386436,20.838550759386436,42.6207024697206,37.81236196441215,37.769425752634305,-10,-0.33,0.33,10,38,28,37.67,38.33,48,10,10,10,10
8,1,0.2342470000000958,w,27.9,Limited Time - 400ms,l,35.66426427194242,27.91859421000383,37.517829889733605,51.23569143457081,27.91859421000383,35.66426427194242,37.517829889733605,51.23569143457081,-10,-0.33,0.33,10,38,28,37.67,38.33,48,3.1622776601683795,3.1622776601683795,3.1622776601683795,3.1622776601683795
8,2,0.1307509000000664,w,26.4,Limited Time - 400ms,l,33.37416356193087,26.373306583875273,36.99252897135851,48.156527510090136,26.373306583875273,33.37416356193087,36.99252897135851,48.156527510090136,-10,-0.33,0.33,10,38,28,37.67,38.33,48,3.1622776601683795,3.1622776601683795,3.1622776601683795,3.1622776601683795
8,3,0.20684929999993074,q,39.5,Limited Time - 400ms,l,39.49348357963784,24.823001672304947,36.92759999798984,40.3824776078242,24.823001672304947,39.49348357963784,36.92759999798984,40.3824776078242,-10,-0.33,0.33,10,38,28,37.67,38.33,48,3.1622776601683795,3.1622776601683795,3.1622776601683795,3.1622776601683795
8,4,0.21163450000005923,p,51.6,Limited Time - 400ms,l,34.78763297793437,29.597730097701273,35.483638902294196,51.592960725944344,29.597730097701273,34.78763297793437,35.483638902294196,51.592960725944344,-10,-0.33,0.33,10,38,28,37.67,38.33,48,3.1622776601683795,3.1622776601683795,3.1622776601683795,3.1622776601683795
8,5,0.22336859999995795,o,32.3,Limited Time - 400ms,l,39.20507350012001,27.766710467123513,32.294717309606376,47.78340533607795,27.766710467123513,39.20507350012001,32.294717309606376,47.78340533607795,-10,-0.33,0.33,10,38,28,37.67,38.33,48,3.1622776601683795,3.1622776601683795,3.1622776601683795,3.1622776601683795
8,6,0.27408809999997175,p,51.4,Limited Time - 400ms,l,34.5300354530483,24.168669128508828,36.72045877179028,51.38170919723534,24.168669128508828,34.5300354530483,36.72045877179028,51.38170919723534,-10,-0.33,0.33,10,38,28,37.67,38.33,48,3.1622776601683795,3.1622776601683795,3.1622776601683795,3.1622776601683795
8,7,0.2910476000000699,o,35.0,Limited Time - 400ms,l,29.81441032564116,23.141639781912136,35.03996443537075,50.91583916907302,23.141639781912136,29.81441032564116,35.03996443537075,50.91583916907302,-10,-0.33,0.33,10,38,28,37.67,38.33,48,3.1622776601683795,3.1622776601683795,3.1622776601683795,3.1622776601683795
8,8,0.2412714000000733,p,46.9,Limited Time - 400ms,l,31.53369481197145,23.801460645397036,41.4354261622522,46.866908466425514,23.801460645397036,31.53369481197145,41.4354261622522,46.866908466425514,-10,-0.33,0.33,10,38,28,37.67,38.33,48,3.1622776601683795,3.1622776601683795,3.1622776601683795,3.1622776601683795
8,9,0.22850660000005973,p,46.1,Limited Time - 400ms,l,36.5452243925526,25.681200310016575,43.78820753389048,46.084672731384266,25.681200310016575,36.5452243925526,43.78820753389048,46.084672731384266,-10,-0.33,0.33,10,38,28,37.67,38.33,48,3.1622776601683795,3.1622776601683795,3.1622776601683795,3.1622776601683795
8,10,0.21183010000004288,p,45.9,Limited Time - 400ms,l,42.94730293495892,31.370571513000343,36.39934881863676,45.9166722727889,31.370571513000343,42.94730293495892,36.39934881863676,45.9166722727889,-10,-0.33,0.33,10,38,28,37.67,38.33,48,3.1622776601683795,3.1622776601683795,3.1622776601683795,3.1622776601683795
8,11,0.22227540000005774,p,43.8,Limited Time - 400ms,l,41.892707524101866,27.31409578658329,39.536534361752125,43.826288007301656,27.31409578658329,41.892707524101866,39.536534361752125,43.826288007301656,-10,-0.33,0.33,10,38,28,37.67,38.33,48,3.1622776601683795,3.1622776601683795,3.1622776601683795,3.1622776601683795
8,12,0.05017899999995734,p,48.6,Limited Time - 400ms,l,36.15423870980773,22.845551485862757,41.159141160167344,48.63517277933876,22.845551485862757,36.15423870980773,41.159141160167344,48.63517277933876,-10,-0.33,0.33,10,38,28,37.67,38.33,48,3.1622776601683795,3.1622776601683795,3.1622776601683795,3.1622776601683795
8,13,0.30395069999997304,p,44.6,Limited Time - 400ms,l,35.719826614299336,22.77939944884094,44.020965369791114,44.58601771006204,22.77939944884094,35.719826614299336,44.020965369791114,44.58601771006204,-10,-0.33,0.33,10,38,28,37.67,38.33,48,3.1622776601683795,3.1622776601683795,3.1622776601683795,3.1622776601683795
8,14,0.2586082999999917,p,53.1,Limited Time - 400ms,l,37.067882256466184,27.91641139130524,45.20055596639065,53.09332805179445,27.91641139130524,37.067882256466184,45.20055596639065,53.09332805179445,-10,-0.33,0.33,10,38,28,37.67,38.33,48,3.1622776601683795,3.1622776601683795,3.1622776601683795,3.1622776601683795
8,15,0.23247919999994338,w,32.8,Limited Time - 400ms,l,40.37358598388944,32.78961229582215,38.147764686677114,47.31868194557219,32.78961229582215,40.37358598388944,38.147764686677114,47.31868194557219,-10,-0.33,0.33,10,38,28,37.67,38.33,48,3.1622776601683795,3.1622776601683795,3.1622776601683795,3.1622776601683795
8,16,0.2724593000000368,w,30.6,Limited Time - 400ms,l,35.10254828580467,30.578276708177246,36.212039416679964,45.397438088474864,30.578276708177246,35.10254828580467,36.212039416679964,45.397438088474864,-10,-0.33,0.33,10,38,28,37.67,38.33,48,3.1622776601683795,3.1622776601683795,3.1622776601683795,3.1622776601683795
8,17,0.2733212000000549,q,33.4,Limited Time - 400ms,l,33.355929908341814,31.214944035122937,35.16580170694136,42.876734086316716,31.214944035122937,33.355929908341814,35.16580170694136,42.876734086316716,-10,-0.33,0.33,10,38,28,37.67,38.33,48,3.1622776601683795,3.1622776601683795,3.1622776601683795,3.1622776601683795
8,18,0.25429540000004636,q,38.2,Limited Time - 400ms,l,38.240473129464974,28.655612043974084,37.12805157281271,48.36039444211465,28.655612043974084,38.240473129464974,37.12805157281271,48.36039444211465,-10,-0.33,0.33,10,38,28,37.67,38.33,48,3.1622776601683795,3.1622776601683795,3.1622776601683795,3.1622776601683795
8,19,,,0.0,Limited Time - 400ms,l,32.635795511721795,26.405479463954304,33.82899250172606,46.45667930816146,26.405479463954304,32.635795511721795,33.82899250172606,46.45667930816146,-10,-0.33,0.33,10,38,28,37.67,38.33,48,3.1622776601683795,3.1622776601683795,3.1622776601683795,3.1622776601683795
8,20,,,0.0,Limited Time - 400ms,l,31.948791552313274,25.028529959487987,34.53839186421307,49.71393741830276,25.028529959487987,31.948791552313274,34.53839186421307,49.71393741830276,-10,-0.33,0.33,10,38,28,37.67,38.33,48,3.1622776601683795,3.1622776601683795,3.1622776601683795,3.1622776601683795
9,1,0.4282255000000532,w,35.7,Limited Time - 800ms,l,27.91859421000383,35.66426427194242,51.23569143457081,37.517829889733605,27.91859421000383,35.66426427194242,37.517829889733605,51.23569143457081,-10,-0.33,0.33,10,38,28,37.67,38.33,48,3.1622776601683795,3.1622776601683795,3.1622776601683795,3.1622776601683795
9,2,0.23987240000008114,q,26.4,Limited Time - 800ms,l,26.373306583875273,33.37416356193087,48.156527510090136,36.99252897135851,26.373306583875273,33.37416356193087,36.99252897135851,48.156527510090136,-10,-0.33,0.33,10,38,28,37.67,38.33,48,3.1622776601683795,3.1622776601683795,3.1622776601683795,3.1622776601683795
9,3,0.2212455000000091,p,36.9,Limited Time - 800ms,l,24.823001672304947,39.49348357963784,40.3824776078242,36.92759999798984,24.823001672304947,39.49348357963784,36.92759999798984,40.3824776078242,-10,-0.33,0.33,10,38,28,37.67,38.33,48,3.1622776601683795,3.1622776601683795,3.1622776601683795,3.1622776601683795
9,4,0.34043880000001536,o,51.6,Limited Time - 800ms,l,29.597730097701273,34.78763297793437,51.592960725944344,35.483638902294196,29.597730097701273,34.78763297793437,35.483638902294196,51.592960725944344,-10,-0.33,0.33,10,38,28,37.67,38.33,48,3.1622776601683795,3.1622776601683795,3.1622776601683795,3.1622776601683795
9,5,0.3190736999999899,o,47.8,Limited Time - 800ms,l,27.766710467123513,39.20507350012001,47.78340533607795,32.294717309606376,27.766710467123513,39.20507350012001,32.294717309606376,47.78340533607795,-10,-0.33,0.33,10,38,28,37.67,38.33,48,3.1622776601683795,3.1622776601683795,3.1622776601683795,3.1622776601683795
9,6,0.24732589999996435,o,51.4,Limited Time - 800ms,l,24.168669128508828,34.5300354530483,51.38170919723534,36.72045877179028,24.168669128508828,34.5300354530483,36.72045877179028,51.38170919723534,-10,-0.33,0.33,10,38,28,37.67,38.33,48,3.1622776601683795,3.1622776601683795,3.1622776601683795,3.1622776601683795
9,7,0.32829689999994116,o,50.9,Limited Time - 800ms,l,23.141639781912136,29.81441032564116,50.91583916907302,35.03996443537075,23.141639781912136,29.81441032564116,35.03996443537075,50.91583916907302,-10,-0.33,0.33,10,38,28,37.67,38.33,48,3.1622776601683795,3.1622776601683795,3.1622776601683795,3.1622776601683795
9,8,0.2873659999999063,o,46.9,Limited Time - 800ms,l,23.801460645397036,31.53369481197145,46.866908466425514,41.4354261622522,23.801460645397036,31.53369481197145,41.4354261622522,46.866908466425514,-10,-0.33,0.33,10,38,28,37.67,38.33,48,3.1622776601683795,3.1622776601683795,3.1622776601683795,3.1622776601683795
9,9,0.361687800000027,o,46.1,Limited Time - 800ms,l,25.681200310016575,36.5452243925526,46.084672731384266,43.78820753389048,25.681200310016575,36.5452243925526,43.78820753389048,46.084672731384266,-10,-0.33,0.33,10,38,28,37.67,38.33,48,3.1622776601683795,3.1622776601683795,3.1622776601683795,3.1622776601683795
9,10,0.29597850000004655,o,45.9,Limited Time - 800ms,l,31.370571513000343,42.94730293495892,45.9166722727889,36.39934881863676,31.370571513000343,42.94730293495892,36.39934881863676,45.9166722727889,-10,-0.33,0.33,10,38,28,37.67,38.33,48,3.1622776601683795,3.1622776601683795,3.1622776601683795,3.1622776601683795
9,11,0.22824649999995472,o,43.8,Limited Time - 800ms,l,27.31409578658329,41.892707524101866,43.826288007301656,39.536534361752125,27.31409578658329,41.892707524101866,39.536534361752125,43.826288007301656,-10,-0.33,0.33,10,38,28,37.67,38.33,48,3.1622776601683795,3.1622776601683795,3.1622776601683795,3.1622776601683795
9,12,0.3305156999999781,p,41.2,Limited Time - 800ms,l,22.845551485862757,36.15423870980773,48.63517277933876,41.159141160167344,22.845551485862757,36.15423870980773,41.159141160167344,48.63517277933876,-10,-0.33,0.33,10,38,28,37.67,38.33,48,3.1622776601683795,3.1622776601683795,3.1622776601683795,3.1622776601683795
9,13,0.37860829999999623,p,44.0,Limited Time - 800ms,l,22.77939944884094,35.719826614299336,44.58601771006204,44.020965369791114,22.77939944884094,35.719826614299336,44.020965369791114,44.58601771006204,-10,-0.33,0.33,10,38,28,37.67,38.33,48,3.1622776601683795,3.1622776601683795,3.1622776601683795,3.1622776601683795
9,14,0.34052489999999125,p,45.2,Limited Time - 800ms,l,27.91641139130524,37.067882256466184,53.09332805179445,45.20055596639065,27.91641139130524,37.067882256466184,45.20055596639065,53.09332805179445,-10,-0.33,0.33,10,38,28,37.67,38.33,48,3.1622776601683795,3.1622776601683795,3.1622776601683795,3.1622776601683795
9,15,0.14535109999997076,p,38.1,Limited Time - 800ms,l,32.78961229582215,40.37358598388944,47.31868194557219,38.147764686677114,32.78961229582215,40.37358598388944,38.147764686677114,47.31868194557219,-10,-0.33,0.33,10,38,28,37.67,38.33,48,3.1622776601683795,3.1622776601683795,3.1622776601683795,3.1622776601683795
9,16,0.4118699000000561,p,36.2,Limited Time - 800ms,l,30.578276708177246,35.10254828580467,45.397438088474864,36.212039416679964,30.578276708177246,35.10254828580467,36.212039416679964,45.397438088474864,-10,-0.33,0.33,10,38,28,37.67,38.33,48,3.1622776601683795,3.1622776601683795,3.1622776601683795,3.1622776601683795
9,17,0.5652301999999736,p,35.2,Limited Time - 800ms,l,31.214944035122937,33.355929908341814,42.876734086316716,35.16580170694136,31.214944035122937,33.355929908341814,35.16580170694136,42.876734086316716,-10,-0.33,0.33,10,38,28,37.67,38.33,48,3.1622776601683795,3.1622776601683795,3.1622776601683795,3.1622776601683795
9,18,0.5822289000000183,p,37.1,Limited Time - 800ms,l,28.655612043974084,38.240473129464974,48.36039444211465,37.12805157281271,28.655612043974084,38.240473129464974,37.12805157281271,48.36039444211465,-10,-0.33,0.33,10,38,28,37.67,38.33,48,3.1622776601683795,3.1622776601683795,3.1622776601683795,3.1622776601683795
9,19,0.30633769999997185,p,33.8,Limited Time - 800ms,l,26.405479463954304,32.635795511721795,46.45667930816146,33.82899250172606,26.405479463954304,32.635795511721795,33.82899250172606,46.45667930816146,-10,-0.33,0.33,10,38,28,37.67,38.33,48,3.1622776601683795,3.1622776601683795,3.1622776601683795,3.1622776601683795
9,20,0.2484014000000343,w,31.9,Limited Time - 800ms,l,25.028529959487987,31.948791552313274,49.71393741830276,34.53839186421307,25.028529959487987,31.948791552313274,34.53839186421307,49.71393741830276,-10,-0.33,0.33,10,38,28,37.67,38.33,48,3.1622776601683795,3.1622776601683795,3.1622776601683795,3.1622776601683795
10,1,0.28396379999992405,w,20.6,Unlimited Time,i,37.58691216609495,20.645207115070882,32.44481533787014,53.26252670860338,32.44481533787014,20.645207115070882,53.26252670860338,37.58691216609495,-10,-10,10,10,38,28,28,48,48,3.1622776601683795,10,3.1622776601683795,10
10,2,0.23547870000004423,q,53.0,Unlimited Time,i,52.990395566868294,24.44347993986704,27.19533035029519,47.34445254748935,27.19533035029519,24.44347993986704,47.34445254748935,52.990395566868294,-10,-10,10,10,38,28,28,48,48,3.1622776601683795,10,3.1622776601683795,10
10,3,0.10229409999999461,p,46.5,Unlimited Time,i,46.60490329820864,29.69701645841486,32.354286373965934,46.543400634711084,32.354286373965934,29.69701645841486,46.543400634711084,46.60490329820864,-10,-10,10,10,38,28,28,48,48,3.1622776601683795,10,3.1622776601683795,10
10,4,0.2874466000000666,q,38.5,Unlimited Time,i,38.533947448482,38.06842228015361,24.903978796222336,47.98557513581045,24.903978796222336,38.06842228015361,47.98557513581045,38.533947448482,-10,-10,10,10,38,28,28,48,48,3.1622776601683795,10,3.1622776601683795,10
10,5,0.23932809999996607,p,46.6,Unlimited Time,i,64.28209272097871,15.87544310538393,27.455665828380052,46.613561547272965,27.455665828380052,15.87544310538393,46.613561547272965,64.28209272097871,-10,-10,10,10,38,28,28,48,48,3.1622776601683795,10,3.1622776601683795,10
10,6,0.2198919999999589,o,38.3,Unlimited Time,i,38.08383120366858,46.27838503712515,38.327963006706554,46.13519174590667,38.327963006706554,46.27838503712515,46.13519174590667,38.08383120366858,-10,-10,10,10,38,28,28,48,48,3.1622776601683795,10,3.1622776601683795,10
10,7,0.2946243000000095,p,47.2,Unlimited Time,i,59.63099896085403,23.13644099434869,28.230959591040655,47.15807807000533,28.230959591040655,23.13644099434869,47.15807807000533,59.63099896085403,-10,-10,10,10,38,28,28,48,48,3.1622776601683795,10,3.1622776601683795,10
10,8,0.10009209999998347,p,44.2,Unlimited Time,i,50.882093992263485,19.593914704955665,26.811566154376848,44.16913107085827,26.811566154376848,19.593914704955665,44.16913107085827,50.882093992263485,-10,-10,10,10,38,28,28,48,48,3.1622776601683795,10,3.1622776601683795,10
10,9,0.6230173999999806,p,46.1,Unlimited Time,i,47.182249815650074,18.825022053555006,27.326165060073407,46.1347110973247,27.326165060073407,18.825022053555006,46.1347110973247,47.182249815650074,-10,-10,10,10,38,28,28,48,48,3.1622776601683795,10,3.1622776601683795,10
10,10,0.217021999999929,p,45.9,Unlimited Time,i,38.11610807364997,35.556811371207985,27.051692521337234,45.87798260139441,27.051692521337234,35.556811371207985,45.87798260139441,38.11610807364997,-10,-10,10,10,38,28,28,48,48,3.1622776601683795,10,3.1622776601683795,10
10,11,0.3993158000000676,p,44.2,Unlimited Time,i,50.85678749810761,33.704248814487514,22.23473906288993,44.220496584754805,22.23473906288993,33.704248814487514,44.220496584754805,50.85678749810761,-10,-10,10,10,38,28,28,48,48,3.1622776601683795,10,3.1622776601683795,10
10,12,0.4312411000000793,q,66.2,Unlimited Time,i,66.2471860767094,23.451773989039815,23.152106916556235,51.77193911569116,23.152106916556235,23.451773989039815,51.77193911569116,66.2471860767094,-10,-10,10,10,38,28,28,48,48,3.1622776601683795,10,3.1622776601683795,10
10,13,0.30351789999997436,q,62.9,Unlimited Time,i,62.89595326857585,17.680915673745197,29.082575262926444,41.39471384721565,29.082575262926444,17.680915673745197,41.39471384721565,62.89595326857585,-10,-10,10,10,38,28,28,48,48,3.1622776601683795,10,3.1622776601683795,10
10,14,0.3959004000000732,q,48.0,Unlimited Time,i,48.023399985083486,10.507140025189386,21.93904560521434,53.30708392216425,21.93904560521434,10.507140025189386,53.30708392216425,48.023399985083486,-10,-10,10,10,38,28,28,48,48,3.1622776601683795,10,3.1622776601683795,10
10,15,0.5827735000000303,q,43.5,Unlimited Time,i,43.48682999646134,13.287090111057523,29.151851188460927,50.93508252112757,29.151851188460927,13.287090111057523,50.93508252112757,43.48682999646134,-10,-10,10,10,38,28,28,48,48,3.1622776601683795,10,3.1622776601683795,10
10,16,0.36830349999991085,w,32.0,Unlimited Time,i,51.53299152882662,31.988584850262548,33.91272963858957,48.096207676167964,33.91272963858957,31.988584850262548,48.096207676167964,51.53299152882662,-10,-10,10,10,38,28,28,48,48,3.1622776601683795,10,3.1622776601683795,10
10,17,0.2789236000000983,p,50.4,Unlimited Time,i,50.95411561443507,15.150623737363217,23.446306359394892,50.41990688129918,23.446306359394892,15.150623737363217,50.41990688129918,50.95411561443507,-10,-10,10,10,38,28,28,48,48,3.1622776601683795,10,3.1622776601683795,10
10,18,0.47713069999997515,p,48.4,Unlimited Time,i,42.754581737605605,40.081195015295506,31.622173406773385,48.41304590255621,31.622173406773385,40.081195015295506,48.41304590255621,42.754581737605605,-10,-10,10,10,38,28,28,48,48,3.1622776601683795,10,3.1622776601683795,10
10,19,0.27225669999995716,o,32.5,Unlimited Time,i,44.593286193939896,39.91578430170611,32.4944569447341,45.996244066323115,32.4944569447341,39.91578430170611,45.996244066323115,44.593286193939896,-10,-10,10,10,38,28,28,48,48,3.1622776601683795,10,3.1622776601683795,10
10,20,0.033437199999980294,p,51.3,Unlimited Time,i,30.67166808726148,9.213951422338106,33.89414941129282,51.329568005980185,33.89414941129282,9.213951422338106,51.329568005980185,30.67166808726148,-10,-10,10,10,38,28,28,48,48,3.1622776601683795,10,3.1622776601683795,10
11,1,0.32015790000002653,q,42.7,Limited Time - 400ms,e,42.702918060723576,57.602963586678996,45.322311605507565,43.77007792467554,43.77007792467554,42.702918060723576,45.322311605507565,57.602963586678996,0,0,0,0,38,38,38,38,38,3.1622776601683795,6.324555320336759,8.366600265340756,10
11,2,0.18372329999999693,w,46.3,Limited Time - 400ms,e,33.900396302710945,46.29433632792219,44.486881415415155,36.85628271850234,36.85628271850234,33.900396302710945,44.486881415415155,46.29433632792219,0,0,0,0,38,38,38,38,38,3.1622776601683795,6.324555320336759,8.366600265340756,10
11,3,0.18669660000000476,q,30.9,Limited Time - 400ms,e,30.945550853908845,35.872994877671275,33.058290991553825,35.87989084153384,35.87989084153384,30.945550853908845,33.058290991553825,35.872994877671275,0,0,0,0,38,38,38,38,38,3.1622776601683795,6.324555320336759,8.366600265340756,10
11,4,0.20368899999994028,p,39.7,Limited Time - 400ms,e,43.50326983947384,42.65581895734943,53.37133036590912,39.66405480086269,39.66405480086269,43.50326983947384,53.37133036590912,42.65581895734943,0,0,0,0,38,38,38,38,38,3.1622776601683795,6.324555320336759,8.366600265340756,10
11,5,0.2575183000000152,o,35.0,Limited Time - 400ms,e,44.66877509088359,31.986682115991254,34.968173619895445,38.94591727778276,38.94591727778276,44.66877509088359,34.968173619895445,31.986682115991254,0,0,0,0,38,38,38,38,38,3.1622776601683795,6.324555320336759,8.366600265340756,10
11,6,0.32016269999996894,q,53.7,Limited Time - 400ms,e,53.668387209153416,29.59751144118423,34.778779689166726,41.26266965078947,41.26266965078947,53.668387209153416,34.778779689166726,29.59751144118423,0,0,0,0,38,38,38,38,38,3.1622776601683795,6.324555320336759,8.366600265340756,10
11,7,0.27426820000005137,w,24.1,Limited Time - 400ms,e,36.75266675850982,24.14111374294592,62.54237520758018,41.48355595460126,41.48355595460126,36.75266675850982,62.54237520758018,24.14111374294592,0,0,0,0,38,38,38,38,38,3.1622776601683795,6.324555320336759,8.366600265340756,10
11,8,0.21803619999991497,q,32.3,Limited Time - 400ms,e,32.297266547953015,43.04585398832822,43.98739538364251,40.00617778999013,40.00617778999013,32.297266547953015,43.98739538364251,43.04585398832822,0,0,0,0,38,38,38,38,38,3.1622776601683795,6.324555320336759,8.366600265340756,10
11,9,0.24889220000000023,p,35.8,Limited Time - 400ms,e,49.69532376461954,44.66716891389616,42.890075495004446,35.82738922071381,35.82738922071381,49.69532376461954,42.890075495004446,44.66716891389616,0,0,0,0,38,38,38,38,38,3.1622776601683795,6.324555320336759,8.366600265340756,10
11,10,0.21906670000009854,o,28.1,Limited Time - 400ms,e,35.5673539321733,35.18625604023846,28.062774721493955,44.25718284614657,44.25718284614657,35.5673539321733,28.062774721493955,35.18625604023846,0,0,0,0,38,38,38,38,38,3.1622776601683795,6.324555320336759,8.366600265340756,10
11,11,0.2699923000000126,w,54.7,Limited Time - 400ms,e,32.63062036093309,54.681807759999074,41.725430349193246,38.66794832317872,38.66794832317872,32.63062036093309,41.725430349193246,54.681807759999074,0,0,0,0,38,38,38,38,38,3.1622776601683795,6.324555320336759,8.366600265340756,10
11,12,0.30639300000007097,w,43.8,Limited Time - 400ms,e,42.914416430778495,43.78251647591624,40.3872361578855,35.06253817045587,35.06253817045587,42.914416430778495,40.3872361578855,43.78251647591624,0,0,0,0,38,38,38,38,38,3.1622776601683795,6.324555320336759,8.366600265340756,10
11,13,0.28830949999996847,w,21.5,Limited Time - 400ms,e,39.53713298385495,21.54161572167833,40.69956656325902,38.33799531563134,38.33799531563134,39.53713298385495,40.69956656325902,21.54161572167833,0,0,0,0,38,38,38,38,38,3.1622776601683795,6.324555320336759,8.366600265340756,10
11,14,0.31883159999995314,q,41.1,Limited Time - 400ms,e,41.095196384038765,54.68699402042559,43.24176890824316,40.322475480378095,40.322475480378095,41.095196384038765,43.24176890824316,54.68699402042559,0,0,0,0,38,38,38,38,38,3.1622776601683795,6.324555320336759,8.366600265340756,10
11,15,0.115773699999977,p,35.8,Limited Time - 400ms,e,35.24022980069178,25.343456315833194,26.812811144820778,35.847697779093444,35.847697779093444,35.24022980069178,26.812811144820778,25.343456315833194,0,0,0,0,38,38,38,38,38,3.1622776601683795,6.324555320336759,8.366600265340756,10
11,16,,,0.0,Limited Time - 400ms,e,44.14260710479689,39.54581206636874,42.84534524796554,35.4964846703361,35.4964846703361,44.14260710479689,42.84534524796554,39.54581206636874,0,0,0,0,38,38,38,38,38,3.1622776601683795,6.324555320336759,8.366600265340756,10
11,17,,,0.0,Limited Time - 400ms,e,38.276763224642465,58.37300850134846,60.79293595511576,39.942831429759465,39.942831429759465,38.276763224642465,60.79293595511576,58.37300850134846,0,0,0,0,38,38,38,38,38,3.1622776601683795,6.324555320336759,8.366600265340756,10
11,18,0.20198179999999866,p,38.8,Limited Time - 400ms,e,42.01707861812653,32.57197878974559,26.688199216797024,38.81275812099683,38.81275812099683,42.01707861812653,26.688199216797024,32.57197878974559,0,0,0,0,38,38,38,38,38,3.1622776601683795,6.324555320336759,8.366600265340756,10
11,19,0.22134600000003957,q,32.8,Limited Time - 400ms,e,32.7699092958805,41.111572415145645,47.63513861663243,49.012082999967355,49.012082999967355,32.7699092958805,47.63513861663243,41.111572415145645,0,0,0,0,38,38,38,38,38,3.1622776601683795,6.324555320336759,8.366600265340756,10
11,20,0.1766883999999891,w,38.9,Limited Time - 400ms,e,36.96418448740141,38.863240380422056,36.247971375825934,40.07993291768087,40.07993291768087,36.96418448740141,36.247971375825934,38.863240380422056,0,0,0,0,38,38,38,38,38,3.1622776601683795,6.324555320336759,8.366600265340756,10
12,1,0.5468253999999888,w,37.6,Limited Time - 800ms,i,32.44481533787014,37.58691216609495,20.645207115070882,53.26252670860338,32.44481533787014,20.645207115070882,53.26252670860338,37.58691216609495,-10,-10,10,10,38,28,28,48,48,3.1622776601683795,10,3.1622776601683795,10
12,2,0.1869001999999682,q,27.2,Limited Time - 800ms,i,27.19533035029519,52.990395566868294,24.44347993986704,47.34445254748935,27.19533035029519,24.44347993986704,47.34445254748935,52.990395566868294,-10,-10,10,10,38,28,28,48,48,3.1622776601683795,10,3.1622776601683795,10
12,3,0.18627159999994092,p,46.5,Limited Time - 800ms,i,32.354286373965934,46.60490329820864,29.69701645841486,46.543400634711084,32.354286373965934,29.69701645841486,46.543400634711084,46.60490329820864,-10,-10,10,10,38,28,28,48,48,3.1622776601683795,10,3.1622776601683795,10
12,4,0.2791636000000608,o,38.1,Limited Time - 800ms,i,24.903978796222336,38.533947448482,38.06842228015361,47.98557513581045,24.903978796222336,38.06842228015361,47.98557513581045,38.533947448482,-10,-10,10,10,38,28,28,48,48,3.1622776601683795,10,3.1622776601683795,10
12,5,0.23566070000003947,p,46.6,Limited Time - 800ms,i,27.455665828380052,64.28209272097871,15.87544310538393,46.613561547272965,27.455665828380052,15.87544310538393,46.613561547272965,64.28209272097871,-10,-10,10,10,38,28,28,48,48,3.1622776601683795,10,3.1622776601683795,10
12,6,0.26876690000005965,o,46.3,Limited Time - 800ms,i,38.327963006706554,38.08383120366858,46.27838503712515,46.13519174590667,38.327963006706554,46.27838503712515,46.13519174590667,38.08383120366858,-10,-10,10,10,38,28,28,48,48,3.1622776601683795,10,3.1622776601683795,10
12,7,0.31586479999998573,p,47.2,Limited Time - 800ms,i,28.230959591040655,59.63099896085403,23.13644099434869,47.15807807000533,28.230959591040655,23.13644099434869,47.15807807000533,59.63099896085403,-10,-10,10,10,38,28,28,48,48,3.1622776601683795,10,3.1622776601683795,10
12,8,0.36000880000005964,o,19.6,Limited Time - 800ms,i,26.811566154376848,50.882093992263485,19.593914704955665,44.16913107085827,26.811566154376848,19.593914704955665,44.16913107085827,50.882093992263485,-10,-10,10,10,38,28,28,48,48,3.1622776601683795,10,3.1622776601683795,10
12,9,0.15089239999997517,p,46.1,Limited Time - 800ms,i,27.326165060073407,47.182249815650074,18.825022053555006,46.1347110973247,27.326165060073407,18.825022053555006,46.1347110973247,47.182249815650074,-10,-10,10,10,38,28,28,48,48,3.1622776601683795,10,3.1622776601683795,10
12,10,0.06264529999998558,w,38.1,Limited Time - 800ms,i,27.051692521337234,38.11610807364997,35.556811371207985,45.87798260139441,27.051692521337234,35.556811371207985,45.87798260139441,38.11610807364997,-10,-10,10,10,38,28,28,48,48,3.1622776601683795,10,3.1622776601683795,10
12,11,0.27266310000004523,q,22.2,Limited Time - 800ms,i,22.23473906288993,50.85678749810761,33.704248814487514,44.220496584754805,22.23473906288993,33.704248814487514,44.220496584754805,50.85678749810761,-10,-10,10,10,38,28,28,48,48,3.1622776601683795,10,3.1622776601683795,10
12,12,0.255648199999996,p,51.8,Limited Time - 800ms,i,23.152106916556235,66.2471860767094,23.451773989039815,51.77193911569116,23.152106916556235,23.451773989039815,51.77193911569116,66.2471860767094,-10,-10,10,10,38,28,28,48,48,3.1622776601683795,10,3.1622776601683795,10
12,13,0.2717799000000696,p,41.4,Limited Time - 800ms,i,29.082575262926444,62.89595326857585,17.680915673745197,41.39471384721565,29.082575262926444,17.680915673745197,41.39471384721565,62.89595326857585,-10,-10,10,10,38,28,28,48,48,3.1622776601683795,10,3.1622776601683795,10
12,14,0.2509384999999611,o,10.5,Limited Time - 800ms,i,21.93904560521434,48.023399985083486,10.507140025189386,53.30708392216425,21.93904560521434,10.507140025189386,53.30708392216425,48.023399985083486,-10,-10,10,10,38,28,28,48,48,3.1622776601683795,10,3.1622776601683795,10
12,15,0.11145729999998366,p,50.9,Limited Time - 800ms,i,29.151851188460927,43.48682999646134,13.287090111057523,50.93508252112757,29.151851188460927,13.287090111057523,50.93508252112757,43.48682999646134,-10,-10,10,10,38,28,28,48,48,3.1622776601683795,10,3.1622776601683795,10
12,16,0.41766359999996894,p,48.1,Limited Time - 800ms,i,33.91272963858957,51.53299152882662,31.988584850262548,48.096207676167964,33.91272963858957,31.988584850262548,48.096207676167964,51.53299152882662,-10,-10,10,10,38,28,28,48,48,3.1622776601683795,10,3.1622776601683795,10
12,17,0.20783160000007683,p,50.4,Limited Time - 800ms,i,23.446306359394892,50.95411561443507,15.150623737363217,50.41990688129918,23.446306359394892,15.150623737363217,50.41990688129918,50.95411561443507,-10,-10,10,10,38,28,28,48,48,3.1622776601683795,10,3.1622776601683795,10
12,18,0.22350549999998748,p,48.4,Limited Time - 800ms,i,31.622173406773385,42.754581737605605,40.081195015295506,48.41304590255621,31.622173406773385,40.081195015295506,48.41304590255621,42.754581737605605,-10,-10,10,10,38,28,28,48,48,3.1622776601683795,10,3.1622776601683795,10
12,19,0.23652629999992314,p,46.0,Limited Time - 800ms,i,32.4944569447341,44.593286193939896,39.91578430170611,45.996244066323115,32.4944569447341,39.91578430170611,45.996244066323115,44.593286193939896,-10,-10,10,10,38,28,28,48,48,3.1622776601683795,10,3.1622776601683795,10
12,20,0.2323648999999932,p,51.3,Limited Time - 800ms,i,33.89414941129282,30.67166808726148,9.213951422338106,51.329568005980185,33.89414941129282,9.213951422338106,51.329568005980185,30.67166808726148,-10,-10,10,10,38,28,28,48,48,3.1622776601683795,10,3.1622776601683795,10
13,1,0.3532939000000397,w,35.7,Unlimited Time,l,37.517829889733605,35.66426427194242,51.23569143457081,27.91859421000383,27.91859421000383,35.66426427194242,37.517829889733605,51.23569143457081,-10,-0.33,0.33,10,38,28,37.67,38.33,48,3.1622776601683795,3.1622776601683795,3.1622776601683795,3.1622776601683795
13,2,0.17906829999992624,q,37.0,Unlimited Time,l,36.99252897135851,33.37416356193087,48.156527510090136,26.373306583875273,26.373306583875273,33.37416356193087,36.99252897135851,48.156527510090136,-10,-0.33,0.33,10,38,28,37.67,38.33,48,3.1622776601683795,3.1622776601683795,3.1622776601683795,3.1622776601683795
13,3,0.052861600000028375,p,24.8,Unlimited Time,l,36.92759999798984,39.49348357963784,40.3824776078242,24.823001672304947,24.823001672304947,39.49348357963784,36.92759999798984,40.3824776078242,-10,-0.33,0.33,10,38,28,37.67,38.33,48,3.1622776601683795,3.1622776601683795,3.1622776601683795,3.1622776601683795
13,4,0.5006257999999661,o,51.6,Unlimited Time,l,35.483638902294196,34.78763297793437,51.592960725944344,29.597730097701273,29.597730097701273,34.78763297793437,35.483638902294196,51.592960725944344,-10,-0.33,0.33,10,38,28,37.67,38.33,48,3.1622776601683795,3.1622776601683795,3.1622776601683795,3.1622776601683795
13,5,0.28651800000000094,o,47.8,Unlimited Time,l,32.294717309606376,39.20507350012001,47.78340533607795,27.766710467123513,27.766710467123513,39.20507350012001,32.294717309606376,47.78340533607795,-10,-0.33,0.33,10,38,28,37.67,38.33,48,3.1622776601683795,3.1622776601683795,3.1622776601683795,3.1622776601683795
13,6,0.26443910000000415,o,51.4,Unlimited Time,l,36.72045877179028,34.5300354530483,51.38170919723534,24.168669128508828,24.168669128508828,34.5300354530483,36.72045877179028,51.38170919723534,-10,-0.33,0.33,10,38,28,37.67,38.33,48,3.1622776601683795,3.1622776601683795,3.1622776601683795,3.1622776601683795
13,7,0.11083399999995436,o,50.9,Unlimited Time,l,35.03996443537075,29.81441032564116,50.91583916907302,23.141639781912136,23.141639781912136,29.81441032564116,35.03996443537075,50.91583916907302,-10,-0.33,0.33,10,38,28,37.67,38.33,48,3.1622776601683795,3.1622776601683795,3.1622776601683795,3.1622776601683795
13,8,0.17448320000005424,o,46.9,Unlimited Time,l,41.4354261622522,31.53369481197145,46.866908466425514,23.801460645397036,23.801460645397036,31.53369481197145,41.4354261622522,46.866908466425514,-10,-0.33,0.33,10,38,28,37.67,38.33,48,3.1622776601683795,3.1622776601683795,3.1622776601683795,3.1622776601683795
13,9,0.1664788000000499,o,46.1,Unlimited Time,l,43.78820753389048,36.5452243925526,46.084672731384266,25.681200310016575,25.681200310016575,36.5452243925526,43.78820753389048,46.084672731384266,-10,-0.33,0.33,10,38,28,37.67,38.33,48,3.1622776601683795,3.1622776601683795,3.1622776601683795,3.1622776601683795
13,10,0.23831910000001244,o,45.9,Unlimited Time,l,36.39934881863676,42.94730293495892,45.9166722727889,31.370571513000343,31.370571513000343,42.94730293495892,36.39934881863676,45.9166722727889,-10,-0.33,0.33,10,38,28,37.67,38.33,48,3.1622776601683795,3.1622776601683795,3.1622776601683795,3.1622776601683795
13,11,0.1494666999999481,o,43.8,Unlimited Time,l,39.536534361752125,41.892707524101866,43.826288007301656,27.31409578658329,27.31409578658329,41.892707524101866,39.536534361752125,43.826288007301656,-10,-0.33,0.33,10,38,28,37.67,38.33,48,3.1622776601683795,3.1622776601683795,3.1622776601683795,3.1622776601683795
13,12,0.1049183999999741,o,48.6,Unlimited Time,l,41.159141160167344,36.15423870980773,48.63517277933876,22.845551485862757,22.845551485862757,36.15423870980773,41.159141160167344,48.63517277933876,-10,-0.33,0.33,10,38,28,37.67,38.33,48,3.1622776601683795,3.1622776601683795,3.1622776601683795,3.1622776601683795
13,13,0.6829142999999931,w,35.7,Unlimited Time,l,44.020965369791114,35.719826614299336,44.58601771006204,22.77939944884094,22.77939944884094,35.719826614299336,44.020965369791114,44.58601771006204,-10,-0.33,0.33,10,38,28,37.67,38.33,48,3.1622776601683795,3.1622776601683795,3.1622776601683795,3.1622776601683795
13,14,0.13075150000008762,q,45.2,Unlimited Time,l,45.20055596639065,37.067882256466184,53.09332805179445,27.91641139130524,27.91641139130524,37.067882256466184,45.20055596639065,53.09332805179445,-10,-0.33,0.33,10,38,28,37.67,38.33,48,3.1622776601683795,3.1622776601683795,3.1622776601683795,3.1622776601683795
13,15,0.3588572999999542,q,38.1,Unlimited Time,l,38.147764686677114,40.37358598388944,47.31868194557219,32.78961229582215,32.78961229582215,40.37358598388944,38.147764686677114,47.31868194557219,-10,-0.33,0.33,10,38,28,37.67,38.33,48,3.1622776601683795,3.1622776601683795,3.1622776601683795,3.1622776601683795
13,16,0.41050700000005236,q,36.2,Unlimited Time,l,36.212039416679964,35.10254828580467,45.397438088474864,30.578276708177246,30.578276708177246,35.10254828580467,36.212039416679964,45.397438088474864,-10,-0.33,0.33,10,38,28,37.67,38.33,48,3.1622776601683795,3.1622776601683795,3.1622776601683795,3.1622776601683795
13,17,0.16715509999994538,p,31.2,Unlimited Time,l,35.16580170694136,33.355929908341814,42.876734086316716,31.214944035122937,31.214944035122937,33.355929908341814,35.16580170694136,42.876734086316716,-10,-0.33,0.33,10,38,28,37.67,38.33,48,3.1622776601683795,3.1622776601683795,3.1622776601683795,3.1622776601683795
13,18,0.2216688000000886,o,48.4,Unlimited Time,l,37.12805157281271,38.240473129464974,48.36039444211465,28.655612043974084,28.655612043974084,38.240473129464974,37.12805157281271,48.36039444211465,-10,-0.33,0.33,10,38,28,37.67,38.33,48,3.1622776601683795,3.1622776601683795,3.1622776601683795,3.1622776601683795
13,19,0.10495430000003125,o,46.5,Unlimited Time,l,33.82899250172606,32.635795511721795,46.45667930816146,26.405479463954304,26.405479463954304,32.635795511721795,33.82899250172606,46.45667930816146,-10,-0.33,0.33,10,38,28,37.67,38.33,48,3.1622776601683795,3.1622776601683795,3.1622776601683795,3.1622776601683795
13,20,0.15779400000008081,o,49.7,Unlimited Time,l,34.53839186421307,31.948791552313274,49.71393741830276,25.028529959487987,25.028529959487987,31.948791552313274,34.53839186421307,49.71393741830276,-10,-0.33,0.33,10,38,28,37.67,38.33,48,3.1622776601683795,3.1622776601683795,3.1622776601683795,3.1622776601683795
14,1,,,0.0,Limited Time - 400ms,h,29.00848620455925,49.31419829584826,16.67082867014321,14.704916218617472,14.704916218617472,29.00848620455925,49.31419829584826,16.67082867014321,-10,-0.33,0.33,10,38,28,37.67,38.33,48,10,10,10,10
14,2,0.21279820000006566,o,34.1,Limited Time - 400ms,h,49.62070414382851,29.791370175445458,34.13678016414174,18.756580317628664,18.756580317628664,49.62070414382851,29.791370175445458,34.13678016414174,-10,-0.33,0.33,10,38,28,37.67,38.33,48,10,10,10,10
14,3,0.1954545999999482,o,52.1,Limited Time - 400ms,h,43.27043039732094,39.0904743816159,52.10556677161835,35.1743917969777,35.1743917969777,43.27043039732094,39.0904743816159,52.10556677161835,-10,-0.33,0.33,10,38,28,37.67,38.33,48,10,10,10,10
14,4,0.22955309999997553,p,22.9,Limited Time - 400ms,h,26.243864183195814,57.951644207848666,54.594031894069026,22.93234275325064,22.93234275325064,26.243864183195814,57.951644207848666,54.594031894069026,-10,-0.33,0.33,10,38,28,37.67,38.33,48,10,10,10,10
14,5,0.12072009999997135,o,48.7,Limited Time - 400ms,h,33.325252162679824,33.33829348406121,48.68686874802552,42.24204907988173,42.24204907988173,33.325252162679824,33.33829348406121,48.68686874802552,-10,-0.33,0.33,10,38,28,37.67,38.33,48,10,10,10,10
14,6,0.20105100000000675,w,49.0,Limited Time - 400ms,h,16.67686412936554,48.99997704955098,52.05590148571431,21.39812523039189,21.39812523039189,16.67686412936554,48.99997704955098,52.05590148571431,-10,-0.33,0.33,10,38,28,37.67,38.33,48,10,10,10,10
14,7,0.2209292000000005,w,28.7,Limited Time - 400ms,h,41.813971447051124,28.673756585456843,71.32338314090168,29.864221337200412,29.864221337200412,41.813971447051124,28.673756585456843,71.32338314090168,-10,-0.33,0.33,10,38,28,37.67,38.33,48,10,10,10,10
14,8,0.13457949999997254,w,23.5,Limited Time - 400ms,h,44.163282120827674,23.45259334089286,49.57640743372732,29.34239680445931,29.34239680445931,44.163282120827674,23.45259334089286,49.57640743372732,-10,-0.33,0.33,10,38,28,37.67,38.33,48,10,10,10,10
14,9,0.18570899999997437,q,41.1,Limited Time - 400ms,h,41.0864183378966,40.07775735788555,53.3170461765733,40.89929033975722,40.89929033975722,41.0864183378966,40.07775735788555,53.3170461765733,-10,-0.33,0.33,10,38,28,37.67,38.33,48,10,10,10,10
14,10,0.2029449999999997,q,46.1,Limited Time - 400ms,h,46.080276151585295,45.257730386067585,50.10037217868419,25.581468190543287,25.581468190543287,46.080276151585295,45.257730386067585,50.10037217868419,-10,-0.33,0.33,10,38,28,37.67,38.33,48,10,10,10,10
14,11,0.25917390000006435,q,27.5,Limited Time - 400ms,h,27.541774462071,42.64093819306025,42.73986379283581,25.44866975599913,25.44866975599913,27.541774462071,42.64093819306025,42.73986379283581,-10,-0.33,0.33,10,38,28,37.67,38.33,48,10,10,10,10
14,12,0.34114150000004884,p,42.1,Limited Time - 400ms,h,35.046248086837046,35.602719282678116,35.90368765326432,42.06769907995467,42.06769907995467,35.046248086837046,35.602719282678116,35.90368765326432,-10,-0.33,0.33,10,38,28,37.67,38.33,48,10,10,10,10
14,13,0.24791960000004565,o,46.7,Limited Time - 400ms,h,42.26342412410343,38.00540191721968,46.70087214893117,32.497572944215364,32.497572944215364,42.26342412410343,38.00540191721968,46.70087214893117,-10,-0.33,0.33,10,38,28,37.67,38.33,48,10,10,10,10
14,14,0.26607720000004065,p,33.2,Limited Time - 400ms,h,48.861480979795815,43.6361903486304,37.431594790911014,33.20836415770518,33.20836415770518,48.861480979795815,43.6361903486304,37.431594790911014,-10,-0.33,0.33,10,38,28,37.67,38.33,48,10,10,10,10
14,15,0.08994339999992462,o,48.8,Limited Time - 400ms,h,50.64507185148052,29.162983434906877,48.7821664770625,36.00516695141674,36.00516695141674,50.64507185148052,29.162983434906877,48.7821664770625,-10,-0.33,0.33,10,38,28,37.67,38.33,48,10,10,10,10
14,16,0.24825320000002193,o,49.8,Limited Time - 400ms,h,33.530291369769095,44.87579616391253,49.80984373557646,18.20601888412301,18.20601888412301,33.530291369769095,44.87579616391253,49.80984373557646,-10,-0.33,0.33,10,38,28,37.67,38.33,48,10,10,10,10
14,17,0.2036378999999897,o,51.1,Limited Time - 400ms,h,45.04141722199451,36.008129863556306,51.06299116717697,29.592337039885635,29.592337039885635,45.04141722199451,36.008129863556306,51.06299116717697,-10,-0.33,0.33,10,38,28,37.67,38.33,48,10,10,10,10
14,18,0.1055880999999772,o,42.8,Limited Time - 400ms,h,40.83049139311497,40.25401720465702,42.84461406627879,30.451291401127346,30.451291401127346,40.83049139311497,40.25401720465702,42.84461406627879,-10,-0.33,0.33,10,38,28,37.67,38.33,48,10,10,10,10
14,19,0.10702680000008513,o,38.5,Limited Time - 400ms,h,56.272928164469846,34.94681719465522,38.476278013044904,27.536046775791153,27.536046775791153,56.272928164469846,34.94681719465522,38.476278013044904,-10,-0.33,0.33,10,38,28,37.67,38.33,48,10,10,10,10
14,20,0.14321639999991476,o,37.8,Limited Time - 400ms,h,42.6207024697206,37.81236196441215,37.769425752634305,20.838550759386436,20.838550759386436,42.6207024697206,37.81236196441215,37.769425752634305,-10,-0.33,0.33,10,38,28,37.67,38.33,48,10,10,10,10
15,1,0.3172308000000612,w,32.4,Limited Time - 800ms,i,20.645207115070882,32.44481533787014,37.58691216609495,53.26252670860338,32.44481533787014,20.645207115070882,53.26252670860338,37.58691216609495,-10,-10,10,10,38,28,28,48,48,3.1622776601683795,10,3.1622776601683795,10
15,2,0.1854848000000402,q,24.4,Limited Time - 800ms,i,24.44347993986704,27.19533035029519,52.990395566868294,47.34445254748935,27.19533035029519,24.44347993986704,47.34445254748935,52.990395566868294,-10,-10,10,10,38,28,28,48,48,3.1622776601683795,10,3.1622776601683795,10
15,3,0.7285478000001149,o,46.6,Limited Time - 800ms,i,29.69701645841486,32.354286373965934,46.60490329820864,46.543400634711084,32.354286373965934,29.69701645841486,46.543400634711084,46.60490329820864,-10,-10,10,10,38,28,28,48,48,3.1622776601683795,10,3.1622776601683795,10
15,4,0.2402190000000246,p,48.0,Limited Time - 800ms,i,38.06842228015361,24.903978796222336,38.533947448482,47.98557513581045,24.903978796222336,38.06842228015361,47.98557513581045,38.533947448482,-10,-10,10,10,38,28,28,48,48,3.1622776601683795,10,3.1622776601683795,10
15,5,0.04608690000009119,o,64.3,Limited Time - 800ms,i,15.87544310538393,27.455665828380052,64.28209272097871,46.613561547272965,27.455665828380052,15.87544310538393,46.613561547272965,64.28209272097871,-10,-10,10,10,38,28,28,48,48,3.1622776601683795,10,3.1622776601683795,10
15,6,0.25397849999990285,p,46.1,Limited Time - 800ms,i,46.27838503712515,38.327963006706554,38.08383120366858,46.13519174590667,38.327963006706554,46.27838503712515,46.13519174590667,38.08383120366858,-10,-10,10,10,38,28,28,48,48,3.1622776601683795,10,3.1622776601683795,10
15,7,0.29931859999987864,o,59.6,Limited Time - 800ms,i,23.13644099434869,28.230959591040655,59.63099896085403,47.15807807000533,28.230959591040655,23.13644099434869,47.15807807000533,59.63099896085403,-10,-10,10,10,38,28,28,48,48,3.1622776601683795,10,3.1622776601683795,10
15,8,0.24266800000009425,o,50.9,Limited Time - 800ms,i,19.593914704955665,26.811566154376848,50.882093992263485,44.16913107085827,26.811566154376848,19.593914704955665,44.16913107085827,50.882093992263485,-10,-10,10,10,38,28,28,48,48,3.1622776601683795,10,3.1622776601683795,10
15,9,0.10499000000004344,o,47.2,Limited Time - 800ms,i,18.825022053555006,27.326165060073407,47.182249815650074,46.1347110973247,27.326165060073407,18.825022053555006,46.1347110973247,47.182249815650074,-10,-10,10,10,38,28,28,48,48,3.1622776601683795,10,3.1622776601683795,10
15,10,0.18386450000002696,o,38.1,Limited Time - 800ms,i,35.556811371207985,27.051692521337234,38.11610807364997,45.87798260139441,27.051692521337234,35.556811371207985,45.87798260139441,38.11610807364997,-10,-10,10,10,38,28,28,48,48,3.1622776601683795,10,3.1622776601683795,10
15,11,0.2697763999999552,w,22.2,Limited Time - 800ms,i,33.704248814487514,22.23473906288993,50.85678749810761,44.220496584754805,22.23473906288993,33.704248814487514,44.220496584754805,50.85678749810761,-10,-10,10,10,38,28,28,48,48,3.1622776601683795,10,3.1622776601683795,10
15,12,0.15515819999995983,q,23.5,Limited Time - 800ms,i,23.451773989039815,23.152106916556235,66.2471860767094,51.77193911569116,23.152106916556235,23.451773989039815,51.77193911569116,66.2471860767094,-10,-10,10,10,38,28,28,48,48,3.1622776601683795,10,3.1622776601683795,10
15,13,0.25544369999988703,p,41.4,Limited Time - 800ms,i,17.680915673745197,29.082575262926444,62.89595326857585,41.39471384721565,29.082575262926444,17.680915673745197,41.39471384721565,62.89595326857585,-10,-10,10,10,38,28,28,48,48,3.1622776601683795,10,3.1622776601683795,10
15,14,0.04269879999992554,p,53.3,Limited Time - 800ms,i,10.507140025189386,21.93904560521434,48.023399985083486,53.30708392216425,21.93904560521434,10.507140025189386,53.30708392216425,48.023399985083486,-10,-10,10,10,38,28,28,48,48,3.1622776601683795,10,3.1622776601683795,10
15,15,0.26325550000001385,p,50.9,Limited Time - 800ms,i,13.287090111057523,29.151851188460927,43.48682999646134,50.93508252112757,29.151851188460927,13.287090111057523,50.93508252112757,43.48682999646134,-10,-10,10,10,38,28,28,48,48,3.1622776601683795,10,3.1622776601683795,10
15,16,0.20059589999982563,p,48.1,Limited Time - 800ms,i,31.988584850262548,33.91272963858957,51.53299152882662,48.096207676167964,33.91272963858957,31.988584850262548,48.096207676167964,51.53299152882662,-10,-10,10,10,38,28,28,48,48,3.1622776601683795,10,3.1622776601683795,10
15,17,0.10832670000013422,p,50.4,Limited Time - 800ms,i,15.150623737363217,23.446306359394892,50.95411561443507,50.41990688129918,23.446306359394892,15.150623737363217,50.41990688129918,50.95411561443507,-10,-10,10,10,38,28,28,48,48,3.1622776601683795,10,3.1622776601683795,10
15,18,0.2279247999999825,p,48.4,Limited Time - 800ms,i,40.081195015295506,31.622173406773385,42.754581737605605,48.41304590255621,31.622173406773385,40.081195015295506,48.41304590255621,42.754581737605605,-10,-10,10,10,38,28,28,48,48,3.1622776601683795,10,3.1622776601683795,10
15,19,0.21252909999998337,p,46.0,Limited Time - 800ms,i,39.91578430170611,32.4944569447341,44.593286193939896,45.996244066323115,32.4944569447341,39.91578430170611,45.996244066323115,44.593286193939896,-10,-10,10,10,38,28,28,48,48,3.1622776601683795,10,3.1622776601683795,10
15,20,0.22669679999989967,p,51.3,Limited Time - 800ms,i,9.213951422338106,33.89414941129282,30.67166808726148,51.329568005980185,33.89414941129282,9.213951422338106,51.329568005980185,30.67166808726148,-10,-10,10,10,38,28,28,48,48,3.1622776601683795,10,3.1622776601683795,10
16,1,0.5163586999999552,w,42.7,Unlimited Time,e,45.322311605507565,42.702918060723576,43.77007792467554,57.602963586678996,43.77007792467554,42.702918060723576,45.322311605507565,57.602963586678996,0,0,0,0,38,38,38,38,38,3.1622776601683795,6.324555320336759,8.366600265340756,10
16,2,0.19818460000010418,q,44.5,Unlimited Time,e,44.486881415415155,33.900396302710945,36.85628271850234,46.29433632792219,36.85628271850234,33.900396302710945,44.486881415415155,46.29433632792219,0,0,0,0,38,38,38,38,38,3.1622776601683795,6.324555320336759,8.366600265340756,10
16,3,0.23743919999992613,w,30.9,Unlimited Time,e,33.058290991553825,30.945550853908845,35.87989084153384,35.872994877671275,35.87989084153384,30.945550853908845,33.058290991553825,35.872994877671275,0,0,0,0,38,38,38,38,38,3.1622776601683795,6.324555320336759,8.366600265340756,10
16,4,0.10824619999993956,q,53.4,Unlimited Time,e,53.37133036590912,43.50326983947384,39.66405480086269,42.65581895734943,39.66405480086269,43.50326983947384,53.37133036590912,42.65581895734943,0,0,0,0,38,38,38,38,38,3.1622776601683795,6.324555320336759,8.366600265340756,10
16,5,0.2539454999998725,o,38.9,Unlimited Time,e,34.968173619895445,44.66877509088359,38.94591727778276,31.986682115991254,38.94591727778276,44.66877509088359,34.968173619895445,31.986682115991254,0,0,0,0,38,38,38,38,38,3.1622776601683795,6.324555320336759,8.366600265340756,10
16,6,0.15702490000012403,p,29.6,Unlimited Time,e,34.778779689166726,53.668387209153416,41.26266965078947,29.59751144118423,41.26266965078947,53.668387209153416,34.778779689166726,29.59751144118423,0,0,0,0,38,38,38,38,38,3.1622776601683795,6.324555320336759,8.366600265340756,10
16,7,0.022694199999932607,q,62.5,Unlimited Time,e,62.54237520758018,36.75266675850982,41.48355595460126,24.14111374294592,41.48355595460126,36.75266675850982,62.54237520758018,24.14111374294592,0,0,0,0,38,38,38,38,38,3.1622776601683795,6.324555320336759,8.366600265340756,10
16,8,0.29607239999995727,q,44.0,Unlimited Time,e,43.98739538364251,32.297266547953015,40.00617778999013,43.04585398832822,40.00617778999013,32.297266547953015,43.98739538364251,43.04585398832822,0,0,0,0,38,38,38,38,38,3.1622776601683795,6.324555320336759,8.366600265340756,10
16,9,0.12529169999993428,q,42.9,Unlimited Time,e,42.890075495004446,49.69532376461954,35.82738922071381,44.66716891389616,35.82738922071381,49.69532376461954,42.890075495004446,44.66716891389616,0,0,0,0,38,38,38,38,38,3.1622776601683795,6.324555320336759,8.366600265340756,10
16,10,0.3790223999999398,w,35.6,Unlimited Time,e,28.062774721493955,35.5673539321733,44.25718284614657,35.18625604023846,44.25718284614657,35.5673539321733,28.062774721493955,35.18625604023846,0,0,0,0,38,38,38,38,38,3.1622776601683795,6.324555320336759,8.366600265340756,10
16,11,0.39642909999997755,q,41.7,Unlimited Time,e,41.725430349193246,32.63062036093309,38.66794832317872,54.681807759999074,38.66794832317872,32.63062036093309,41.725430349193246,54.681807759999074,0,0,0,0,38,38,38,38,38,3.1622776601683795,6.324555320336759,8.366600265340756,10
16,12,0.5804630000000088,o,35.1,Unlimited Time,e,40.3872361578855,42.914416430778495,35.06253817045587,43.78251647591624,35.06253817045587,42.914416430778495,40.3872361578855,43.78251647591624,0,0,0,0,38,38,38,38,38,3.1622776601683795,6.324555320336759,8.366600265340756,10
16,13,0.14686280000000806,p,21.5,Unlimited Time,e,40.69956656325902,39.53713298385495,38.33799531563134,21.54161572167833,38.33799531563134,39.53713298385495,40.69956656325902,21.54161572167833,0,0,0,0,38,38,38,38,38,3.1622776601683795,6.324555320336759,8.366600265340756,10
16,14,0.30074500000000626,q,43.2,Unlimited Time,e,43.24176890824316,41.095196384038765,40.322475480378095,54.68699402042559,40.322475480378095,41.095196384038765,43.24176890824316,54.68699402042559,0,0,0,0,38,38,38,38,38,3.1622776601683795,6.324555320336759,8.366600265340756,10
16,15,0.23455960000001141,q,26.8,Unlimited Time,e,26.812811144820778,35.24022980069178,35.847697779093444,25.343456315833194,35.847697779093444,35.24022980069178,26.812811144820778,25.343456315833194,0,0,0,0,38,38,38,38,38,3.1622776601683795,6.324555320336759,8.366600265340756,10
16,16,0.1963186999998925,w,44.1,Unlimited Time,e,42.84534524796554,44.14260710479689,35.4964846703361,39.54581206636874,35.4964846703361,44.14260710479689,42.84534524796554,39.54581206636874,0,0,0,0,38,38,38,38,38,3.1622776601683795,6.324555320336759,8.366600265340756,10
16,17,0.3670678000000862,w,38.3,Unlimited Time,e,60.79293595511576,38.276763224642465,39.942831429759465,58.37300850134846,39.942831429759465,38.276763224642465,60.79293595511576,58.37300850134846,0,0,0,0,38,38,38,38,38,3.1622776601683795,6.324555320336759,8.366600265340756,10
16,18,0.1645955999999842,q,26.7,Unlimited Time,e,26.688199216797024,42.01707861812653,38.81275812099683,32.57197878974559,38.81275812099683,42.01707861812653,26.688199216797024,32.57197878974559,0,0,0,0,38,38,38,38,38,3.1622776601683795,6.324555320336759,8.366600265340756,10
16,19,0.23646370000005845,q,47.6,Unlimited Time,e,47.63513861663243,32.7699092958805,49.012082999967355,41.111572415145645,49.012082999967355,32.7699092958805,47.63513861663243,41.111572415145645,0,0,0,0,38,38,38,38,38,3.1622776601683795,6.324555320336759,8.366600265340756,10
16,20,0.33765070000004016,q,36.2,Unlimited Time,e,36.247971375825934,36.96418448740141,40.07993291768087,38.863240380422056,40.07993291768087,36.96418448740141,36.247971375825934,38.863240380422056,0,0,0,0,38,38,38,38,38,3.1622776601683795,6.324555320336759,8.366600265340756,10
17,1,0.243784499999947,o,57.6,Limited Time - 400ms,e,42.702918060723576,45.322311605507565,57.602963586678996,43.77007792467554,43.77007792467554,42.702918060723576,45.322311605507565,57.602963586678996,0,0,0,0,38,38,38,38,38,3.1622776601683795,6.324555320336759,8.366600265340756,10
17,2,0.21610529999998107,p,36.9,Limited Time - 400ms,e,33.900396302710945,44.486881415415155,46.29433632792219,36.85628271850234,36.85628271850234,33.900396302710945,44.486881415415155,46.29433632792219,0,0,0,0,38,38,38,38,38,3.1622776601683795,6.324555320336759,8.366600265340756,10
17,3,0.22550830000000133,o,35.9,Limited Time - 400ms,e,30.945550853908845,33.058290991553825,35.872994877671275,35.87989084153384,35.87989084153384,30.945550853908845,33.058290991553825,35.872994877671275,0,0,0,0,38,38,38,38,38,3.1622776601683795,6.324555320336759,8.366600265340756,10
17,4,0.23998299999993833,o,42.7,Limited Time - 400ms,e,43.50326983947384,53.37133036590912,42.65581895734943,39.66405480086269,39.66405480086269,43.50326983947384,53.37133036590912,42.65581895734943,0,0,0,0,38,38,38,38,38,3.1622776601683795,6.324555320336759,8.366600265340756,10
17,5,0.24962519999985489,o,32.0,Limited Time - 400ms,e,44.66877509088359,34.968173619895445,31.986682115991254,38.94591727778276,38.94591727778276,44.66877509088359,34.968173619895445,31.986682115991254,0,0,0,0,38,38,38,38,38,3.1622776601683795,6.324555320336759,8.366600265340756,10
17,6,0.21568329999990965,w,34.8,Limited Time - 400ms,e,53.668387209153416,34.778779689166726,29.59751144118423,41.26266965078947,41.26266965078947,53.668387209153416,34.778779689166726,29.59751144118423,0,0,0,0,38,38,38,38,38,3.1622776601683795,6.324555320336759,8.366600265340756,10
17,7,0.21423509999999624,w,62.5,Limited Time - 400ms,e,36.75266675850982,62.54237520758018,24.14111374294592,41.48355595460126,41.48355595460126,36.75266675850982,62.54237520758018,24.14111374294592,0,0,0,0,38,38,38,38,38,3.1622776601683795,6.324555320336759,8.366600265340756,10
17,8,0.13617280000016763,w,44.0,Limited Time - 400ms,e,32.297266547953015,43.98739538364251,43.04585398832822,40.00617778999013,40.00617778999013,32.297266547953015,43.98739538364251,43.04585398832822,0,0,0,0,38,38,38,38,38,3.1622776601683795,6.324555320336759,8.366600265340756,10
17,9,0.20719439999993483,w,42.9,Limited Time - 400ms,e,49.69532376461954,42.890075495004446,44.66716891389616,35.82738922071381,35.82738922071381,49.69532376461954,42.890075495004446,44.66716891389616,0,0,0,0,38,38,38,38,38,3.1622776601683795,6.324555320336759,8.366600265340756,10
17,10,0.24871810000013284,w,28.1,Limited Time - 400ms,e,35.5673539321733,28.062774721493955,35.18625604023846,44.25718284614657,44.25718284614657,35.5673539321733,28.062774721493955,35.18625604023846,0,0,0,0,38,38,38,38,38,3.1622776601683795,6.324555320336759,8.366600265340756,10
17,11,0.11716180000007625,q,32.6,Limited Time - 400ms,e,32.63062036093309,41.725430349193246,54.681807759999074,38.66794832317872,38.66794832317872,32.63062036093309,41.725430349193246,54.681807759999074,0,0,0,0,38,38,38,38,38,3.1622776601683795,6.324555320336759,8.366600265340756,10
17,12,0.3223993999999948,p,35.1,Limited Time - 400ms,e,42.914416430778495,40.3872361578855,43.78251647591624,35.06253817045587,35.06253817045587,42.914416430778495,40.3872361578855,43.78251647591624,0,0,0,0,38,38,38,38,38,3.1622776601683795,6.324555320336759,8.366600265340756,10
17,13,0.11589579999986199,p,38.3,Limited Time - 400ms,e,39.53713298385495,40.69956656325902,21.54161572167833,38.33799531563134,38.33799531563134,39.53713298385495,40.69956656325902,21.54161572167833,0,0,0,0,38,38,38,38,38,3.1622776601683795,6.324555320336759,8.366600265340756,10
17,14,0.2827821999999287,o,54.7,Limited Time - 400ms,e,41.095196384038765,43.24176890824316,54.68699402042559,40.322475480378095,40.322475480378095,41.095196384038765,43.24176890824316,54.68699402042559,0,0,0,0,38,38,38,38,38,3.1622776601683795,6.324555320336759,8.366600265340756,10
17,15,0.21255229999997027,o,25.3,Limited Time - 400ms,e,35.24022980069178,26.812811144820778,25.343456315833194,35.847697779093444,35.847697779093444,35.24022980069178,26.812811144820778,25.343456315833194,0,0,0,0,38,38,38,38,38,3.1622776601683795,6.324555320336759,8.366600265340756,10
17,16,0.0185897000001205,o,39.5,Limited Time - 400ms,e,44.14260710479689,42.84534524796554,39.54581206636874,35.4964846703361,35.4964846703361,44.14260710479689,42.84534524796554,39.54581206636874,0,0,0,0,38,38,38,38,38,3.1622776601683795,6.324555320336759,8.366600265340756,10
17,17,0.20470380000006116,p,39.9,Limited Time - 400ms,e,38.276763224642465,60.79293595511576,58.37300850134846,39.942831429759465,39.942831429759465,38.276763224642465,60.79293595511576,58.37300850134846,0,0,0,0,38,38,38,38,38,3.1622776601683795,6.324555320336759,8.366600265340756,10
17,18,0.11124759999984235,p,38.8,Limited Time - 400ms,e,42.01707861812653,26.688199216797024,32.57197878974559,38.81275812099683,38.81275812099683,42.01707861812653,26.688199216797024,32.57197878974559,0,0,0,0,38,38,38,38,38,3.1622776601683795,6.324555320336759,8.366600265340756,10
17,19,0.18962680000004184,w,47.6,Limited Time - 400ms,e,32.7699092958805,47.63513861663243,41.111572415145645,49.012082999967355,49.012082999967355,32.7699092958805,47.63513861663243,41.111572415145645,0,0,0,0,38,38,38,38,38,3.1622776601683795,6.324555320336759,8.366600265340756,10
17,20,0.13188979999995354,q,37.0,Limited Time - 400ms,e,36.96418448740141,36.247971375825934,38.863240380422056,40.07993291768087,40.07993291768087,36.96418448740141,36.247971375825934,38.863240380422056,0,0,0,0,38,38,38,38,38,3.1622776601683795,6.324555320336759,8.366600265340756,10
18,1,0.2701130999998895,o,43.8,Limited Time - 800ms,e,42.702918060723576,57.602963586678996,43.77007792467554,45.322311605507565,43.77007792467554,42.702918060723576,45.322311605507565,57.602963586678996,0,0,0,0,38,38,38,38,38,3.1622776601683795,6.324555320336759,8.366600265340756,10
18,2,0.22507659999996577,p,44.5,Limited Time - 800ms,e,33.900396302710945,46.29433632792219,36.85628271850234,44.486881415415155,36.85628271850234,33.900396302710945,44.486881415415155,46.29433632792219,0,0,0,0,38,38,38,38,38,3.1622776601683795,6.324555320336759,8.366600265340756,10
18,3,0.23009700000011435,o,35.9,Limited Time - 800ms,e,30.945550853908845,35.872994877671275,35.87989084153384,33.058290991553825,35.87989084153384,30.945550853908845,33.058290991553825,35.872994877671275,0,0,0,0,38,38,38,38,38,3.1622776601683795,6.324555320336759,8.366600265340756,10
18,4,0.15840210000010302,p,53.4,Limited Time - 800ms,e,43.50326983947384,42.65581895734943,39.66405480086269,53.37133036590912,39.66405480086269,43.50326983947384,53.37133036590912,42.65581895734943,0,0,0,0,38,38,38,38,38,3.1622776601683795,6.324555320336759,8.366600265340756,10
18,5,0.08328179999989516,w,32.0,Limited Time - 800ms,e,44.66877509088359,31.986682115991254,38.94591727778276,34.968173619895445,38.94591727778276,44.66877509088359,34.968173619895445,31.986682115991254,0,0,0,0,38,38,38,38,38,3.1622776601683795,6.324555320336759,8.366600265340756,10
18,6,0.21896809999998368,q,53.7,Limited Time - 800ms,e,53.668387209153416,29.59751144118423,41.26266965078947,34.778779689166726,41.26266965078947,53.668387209153416,34.778779689166726,29.59751144118423,0,0,0,0,38,38,38,38,38,3.1622776601683795,6.324555320336759,8.366600265340756,10
18,7,0.1385135000000446,q,36.8,Limited Time - 800ms,e,36.75266675850982,24.14111374294592,41.48355595460126,62.54237520758018,41.48355595460126,36.75266675850982,62.54237520758018,24.14111374294592,0,0,0,0,38,38,38,38,38,3.1622776601683795,6.324555320336759,8.366600265340756,10
18,8,0.37425630000007004,q,32.3,Limited Time - 800ms,e,32.297266547953015,43.04585398832822,40.00617778999013,43.98739538364251,40.00617778999013,32.297266547953015,43.98739538364251,43.04585398832822,0,0,0,0,38,38,38,38,38,3.1622776601683795,6.324555320336759,8.366600265340756,10
18,9,0.20406270000012228,w,44.7,Limited Time - 800ms,e,49.69532376461954,44.66716891389616,35.82738922071381,42.890075495004446,35.82738922071381,49.69532376461954,42.890075495004446,44.66716891389616,0,0,0,0,38,38,38,38,38,3.1622776601683795,6.324555320336759,8.366600265340756,10
18,10,0.31002089999992677,w,35.2,Limited Time - 800ms,e,35.5673539321733,35.18625604023846,44.25718284614657,28.062774721493955,44.25718284614657,35.5673539321733,28.062774721493955,35.18625604023846,0,0,0,0,38,38,38,38,38,3.1622776601683795,6.324555320336759,8.366600265340756,10
18,11,0.234114899999895,w,54.7,Limited Time - 800ms,e,32.63062036093309,54.681807759999074,38.66794832317872,41.725430349193246,38.66794832317872,32.63062036093309,41.725430349193246,54.681807759999074,0,0,0,0,38,38,38,38,38,3.1622776601683795,6.324555320336759,8.366600265340756,10
18,12,0.3601888000000599,w,43.8,Limited Time - 800ms,e,42.914416430778495,43.78251647591624,35.06253817045587,40.3872361578855,35.06253817045587,42.914416430778495,40.3872361578855,43.78251647591624,0,0,0,0,38,38,38,38,38,3.1622776601683795,6.324555320336759,8.366600265340756,10
18,13,0.21349789999999302,o,38.3,Limited Time - 800ms,e,39.53713298385495,21.54161572167833,38.33799531563134,40.69956656325902,38.33799531563134,39.53713298385495,40.69956656325902,21.54161572167833,0,0,0,0,38,38,38,38,38,3.1622776601683795,6.324555320336759,8.366600265340756,10
