Round Number,Trial Number,Reaction Time,Choice,Reward,Time Condition,Payoff Condition,Q mapped,W mapped,O mapped,P mapped,One value,Two value,Three value,Four value,One mean,Two mean,Three mean,Four mean,Mean Shift,One shifted mean,Two shifted mean,Three shifted mean,Four shifted mean,One SD,Two SD,Three SD,Four SD
,,,,,,,,,,,,,,,,,,,,,,,,,,,
1,1,1.8052905,w,55.9,Unlimited Time,i,73.11824831,55.93215691,54.13431184,41.1402694,54.13431184,41.1402694,73.11824831,55.93215691,-10,-10,10,10,60,50,50,70,70,3.16227766,10,3.16227766,10
,,,,,,,,,,,,,,,,,,,,,,,,,,,
1,2,0.5697614,o,49.3,Unlimited Time,i,72.33617394,69.49626113,49.32533907,52.08616823,49.32533907,52.08616823,72.33617394,69.49626113,-10,-10,10,10,60,50,50,70,70,3.16227766,10,3.16227766,10
,,,,,,,,,,,,,,,,,,,,,,,,,,,
1,3,0.4499275,p,39.2,Unlimited Time,i,69.66619589,82.47906428,52.78826404,39.18780484,52.78826404,39.18780484,69.66619589,82.47906428,-10,-10,10,10,60,50,50,70,70,3.16227766,10,3.16227766,10
,,,,,,,,,,,,,,,,,,,,,,,,,,,
1,4,0.3919803,q,71.3,Unlimited Time,i,71.3186076,62.94976179,53.96541794,39.74099831,53.96541794,39.74099831,71.3186076,62.94976179,-10,-10,10,10,60,50,50,70,70,3.16227766,10,3.16227766,10
,,,,,,,,,,,,,,,,,,,,,,,,,,,
1,5,1.1457923,w,48.9,Unlimited Time,i,70.23524857,48.93111825,50.23328738,47.73209913,50.23328738,47.73209913,70.23524857,48.93111825,-10,-10,10,10,60,50,50,70,70,3.16227766,10,3.16227766,10
,,,,,,,,,,,,,,,,,,,,,,,,,,,
1,6,0.7033328,p,51.4,Unlimited Time,i,68.26509089,51.83962789,48.11337208,51.44982545,48.11337208,51.44982545,68.26509089,51.83962789,-10,-10,10,10,60,50,50,70,70,3.16227766,10,3.16227766,10
,,,,,,,,,,,,,,,,,,,,,,,,,,,
1,7,0.3779409,q,67.7,Unlimited Time,i,67.69299068,69.24931459,48.8867219,40.34319173,48.8867219,40.34319173,67.69299068,69.24931459,-10,-10,10,10,60,50,50,70,70,3.16227766,10,3.16227766,10
,,,,,,,,,,,,,,,,,,,,,,,,,,,
1,8,0.35939,o,45.8,Unlimited Time,i,69.4258327,62.96780837,45.80985713,56.40171143,45.80985713,56.40171143,69.4258327,62.96780837,-10,-10,10,10,60,50,50,70,70,3.16227766,10,3.16227766,10
,,,,,,,,,,,,,,,,,,,,,,,,,,,
1,9,1.0909003,p,51.4,Unlimited Time,i,62.44602013,71.30272828,51.694938,51.43494162,51.694938,51.43494162,62.44602013,71.30272828,-10,-10,10,10,60,50,50,70,70,3.16227766,10,3.16227766,10
,,,,,,,,,,,,,,,,,,,,,,,,,,,
1,10,0.4021995,o,46.9,Unlimited Time,i,74.92703376,68.16894726,46.94981797,60.90485343,46.94981797,60.90485343,74.92703376,68.16894726,-10,-10,10,10,60,50,50,70,70,3.16227766,10,3.16227766,10
,,,,,,,,,,,,,,,,,,,,,,,,,,,
1,11,0.3128304,q,67.5,Unlimited Time,i,67.51659405,72.82253992,53.86010723,58.20753913,53.86010723,58.20753913,67.51659405,72.82253992,-10,-10,10,10,60,50,50,70,70,3.16227766,10,3.16227766,10
,,,,,,,,,,,,,,,,,,,,,,,,,,,
1,12,0.217268,w,68.5,Unlimited Time,i,69.27342004,68.5014362,49.83954345,61.17984062,49.83954345,61.17984062,69.27342004,68.5014362,-10,-10,10,10,60,50,50,70,70,3.16227766,10,3.16227766,10
,,,,,,,,,,,,,,,,,,,,,,,,,,,
1,13,0.5779305,o,51.8,Unlimited Time,i,68.70846428,81.25503345,51.7778563,55.68087665,51.7778563,55.68087665,68.70846428,81.25503345,-10,-10,10,10,60,50,50,70,70,3.16227766,10,3.16227766,10
,,,,,,,,,,,,,,,,,,,,,,,,,,,
1,14,0.3703981,p,44.3,Unlimited Time,i,72.65768454,70.15666514,51.3643136,44.27034497,51.3643136,44.27034497,72.65768454,70.15666514,-10,-10,10,10,60,50,50,70,70,3.16227766,10,3.16227766,10
,,,,,,,,,,,,,,,,,,,,,,,,,,,
1,15,0.2792127,q,69.4,Unlimited Time,i,69.35449564,75.38172479,47.71129772,53.03205808,47.71129772,53.03205808,69.35449564,75.38172479,-10,-10,10,10,60,50,50,70,70,3.16227766,10,3.16227766,10
,,,,,,,,,,,,,,,,,,,,,,,,,,,
1,16,0.3381703,w,62.7,Unlimited Time,i,69.3900266,62.73944826,43.82112952,58.05717084,43.82112952,58.05717084,69.3900266,62.73944826,-10,-10,10,10,60,50,50,70,70,3.16227766,10,3.16227766,10
,,,,,,,,,,,,,,,,,,,,,,,,,,,
1,17,0.8129401,w,68.6,Unlimited Time,i,71.05283562,68.63136913,45.06943319,42.34696514,45.06943319,42.34696514,71.05283562,68.63136913,-10,-10,10,10,60,50,50,70,70,3.16227766,10,3.16227766,10
,,,,,,,,,,,,,,,,,,,,,,,,,,,
1,18,0.3900888,o,48.2,Unlimited Time,i,65.09392429,63.22452306,48.16628098,59.20640357,48.16628098,59.20640357,65.09392429,63.22452306,-10,-10,10,10,60,50,50,70,70,3.16227766,10,3.16227766,10
,,,,,,,,,,,,,,,,,,,,,,,,,,,
1,19,0.4341528,p,33.2,Unlimited Time,i,66.157298,67.17307619,50.60393654,33.16923791,50.60393654,33.16923791,66.157298,67.17307619,-10,-10,10,10,60,50,50,70,70,3.16227766,10,3.16227766,10
,,,,,,,,,,,,,,,,,,,,,,,,,,,
1,20,0.2936823,q,73.9,Unlimited Time,i,73.88666098,59.3458731,46.21848372,67.07665543,46.21848372,67.07665543,73.88666098,59.3458731,-10,-10,10,10,60,50,50,70,70,3.16227766,10,3.16227766,10
,,,,,,,,,,,,,,,,,,,,,,,,,,,
2,1,0.2774831,p,53.5,Limited Time,h,69.16104129,55.89907285,62.22299463,53.54488336,69.16104129,53.54488336,55.89907285,62.22299463,-10,-0.33,0.33,10,60,50,59.67,60.33,70,10,10,10,10
,,,,,,,,,,,,,,,,,,,,,,,,,,,
2,2,,,0,Limited Time,h,58.70007318,63.80026787,77.09937378,58.15819567,58.70007318,58.15819567,63.80026787,77.09937378,-10,-0.33,0.33,10,60,50,59.67,60.33,70,10,10,10,10
,,,,,,,,,,,,,,,,,,,,,,,,,,,
2,3,0.1188653,w,83,Limited Time,h,43.68501436,82.96793313,63.86154026,57.3215493,43.68501436,57.3215493,82.96793313,63.86154026,-10,-0.33,0.33,10,60,50,59.67,60.33,70,10,10,10,10
,,,,,,,,,,,,,,,,,,,,,,,,,,,
2,4,0.0605012,p,55.9,Limited Time,h,44.50605445,67.34549527,72.82659931,55.85935148,44.50605445,55.85935148,67.34549527,72.82659931,-10,-0.33,0.33,10,60,50,59.67,60.33,70,10,10,10,10
,,,,,,,,,,,,,,,,,,,,,,,,,,,
2,5,0.0589074,w,69.4,Limited Time,h,36.14426614,69.38532582,70.29954999,57.87269688,36.14426614,57.87269688,69.38532582,70.29954999,-10,-0.33,0.33,10,60,50,59.67,60.33,70,10,10,10,10
,,,,,,,,,,,,,,,,,,,,,,,,,,,
2,6,0.1841386,o,60.3,Limited Time,h,60.35893862,66.9383914,60.30364571,71.56878329,60.35893862,71.56878329,66.9383914,60.30364571,-10,-0.33,0.33,10,60,50,59.67,60.33,70,10,10,10,10
,,,,,,,,,,,,,,,,,,,,,,,,,,,
2,7,0.0551187,p,85.5,Limited Time,h,47.05543027,49.1484737,60.38429749,85.4837075,47.05543027,85.4837075,49.1484737,60.38429749,-10,-0.33,0.33,10,60,50,59.67,60.33,70,10,10,10,10
,,,,,,,,,,,,,,,,,,,,,,,,,,,
2,8,0.0747043,q,44,Limited Time,h,44.0494263,71.50619106,59.19480531,47.86522544,44.0494263,47.86522544,71.50619106,59.19480531,-10,-0.33,0.33,10,60,50,59.67,60.33,70,10,10,10,10
,,,,,,,,,,,,,,,,,,,,,,,,,,,
2,9,0.0586953,w,58.3,Limited Time,h,50.38391323,58.32185848,75.14933209,61.45231055,50.38391323,61.45231055,58.32185848,75.14933209,-10,-0.33,0.33,10,60,50,59.67,60.33,70,10,10,10,10
,,,,,,,,,,,,,,,,,,,,,,,,,,,
2,10,0.0300643,o,76.6,Limited Time,h,57.14187403,45.43159578,76.621155,69.33974413,57.14187403,69.33974413,45.43159578,76.621155,-10,-0.33,0.33,10,60,50,59.67,60.33,70,10,10,10,10
,,,,,,,,,,,,,,,,,,,,,,,,,,,
2,11,,,0,Limited Time,h,48.95754504,71.54207254,52.57928746,47.71793635,48.95754504,47.71793635,71.54207254,52.57928746,-10,-0.33,0.33,10,60,50,59.67,60.33,70,10,10,10,10
,,,,,,,,,,,,,,,,,,,,,,,,,,,
2,12,0.02303,q,43.2,Limited Time,h,43.15349939,52.13947532,79.40739547,41.38592545,43.15349939,41.38592545,52.13947532,79.40739547,-10,-0.33,0.33,10,60,50,59.67,60.33,70,10,10,10,10
,,,,,,,,,,,,,,,,,,,,,,,,,,,
2,13,0.1093456,o,61,Limited Time,h,79.22476529,51.21975721,61.02438183,58.76593226,79.22476529,58.76593226,51.21975721,61.02438183,-10,-0.33,0.33,10,60,50,59.67,60.33,70,10,10,10,10
,,,,,,,,,,,,,,,,,,,,,,,,,,,
2,14,,,0,Limited Time,h,47.69881198,42.42595329,86.76848071,61.89686701,47.69881198,61.89686701,42.42595329,86.76848071,-10,-0.33,0.33,10,60,50,59.67,60.33,70,10,10,10,10
,,,,,,,,,,,,,,,,,,,,,,,,,,,
2,15,0.05225,o,74.1,Limited Time,h,52.76220914,74.31742676,74.09691736,43.93647061,52.76220914,43.93647061,74.31742676,74.09691736,-10,-0.33,0.33,10,60,50,59.67,60.33,70,10,10,10,10
,,,,,,,,,,,,,,,,,,,,,,,,,,,
2,16,0.0551467,w,78.8,Limited Time,h,59.54917914,78.83515153,68.81472906,62.03289231,59.54917914,62.03289231,78.83515153,68.81472906,-10,-0.33,0.33,10,60,50,59.67,60.33,70,10,10,10,10
,,,,,,,,,,,,,,,,,,,,,,,,,,,
2,17,0.3158047,w,62.7,Limited Time,h,57.50671016,62.66421878,62.86430361,46.03651912,57.50671016,46.03651912,62.66421878,62.86430361,-10,-0.33,0.33,10,60,50,59.67,60.33,70,10,10,10,10
,,,,,,,,,,,,,,,,,,,,,,,,,,,
2,18,0.0602455,o,59.9,Limited Time,h,28.80008665,75.62874461,59.89429073,72.32621326,28.80008665,72.32621326,75.62874461,59.89429073,-10,-0.33,0.33,10,60,50,59.67,60.33,70,10,10,10,10
,,,,,,,,,,,,,,,,,,,,,,,,,,,
2,19,0.3591363,q,61.9,Limited Time,h,61.91972363,45.14958741,70.02576488,59.07994346,61.91972363,59.07994346,45.14958741,70.02576488,-10,-0.33,0.33,10,60,50,59.67,60.33,70,10,10,10,10
,,,,,,,,,,,,,,,,,,,,,,,,,,,
2,20,0.2483999,o,52.3,Limited Time,h,44.28561728,68.20081313,52.29241783,62.90250124,44.28561728,62.90250124,68.20081313,52.29241783,-10,-0.33,0.33,10,60,50,59.67,60.33,70,10,10,10,10
,,,,,,,,,,,,,,,,,,,,,,,,,,,
3,1,0.6195761,w,73.7,Unlimited Time,e,69.80434744,73.67954677,62.20159247,60.96468918,60.96468918,62.20159247,73.67954677,69.80434744,0,0,0,0,60,60,60,60,60,3.16227766,6.32455532,8.366600265,10
,,,,,,,,,,,,,,,,,,,,,,,,,,,
3,2,0.6833124,p,65.7,Unlimited Time,e,74.04163518,62.38658882,56.82379549,65.7311022,65.7311022,56.82379549,62.38658882,74.04163518,0,0,0,0,60,60,60,60,60,3.16227766,6.32455532,8.366600265,10
,,,,,,,,,,,,,,,,,,,,,,,,,,,
3,3,0.6089923,q,58.5,Unlimited Time,e,58.49477692,66.1973917,70.70893524,59.0622787,59.0622787,70.70893524,66.1973917,58.49477692,0,0,0,0,60,60,60,60,60,3.16227766,6.32455532,8.366600265,10
,,,,,,,,,,,,,,,,,,,,,,,,,,,
3,4,0.4411559,o,65.4,Unlimited Time,e,54.51435214,54.48486582,65.38236296,63.86075531,63.86075531,65.38236296,54.48486582,54.51435214,0,0,0,0,60,60,60,60,60,3.16227766,6.32455532,8.366600265,10
,,,,,,,,,,,,,,,,,,,,,,,,,,,
3,5,1.3324063,o,60.8,Unlimited Time,e,74.67143278,47.20769459,60.82288998,64.66836318,64.66836318,60.82288998,47.20769459,74.67143278,0,0,0,0,60,60,60,60,60,3.16227766,6.32455532,8.366600265,10
,,,,,,,,,,,,,,,,,,,,,,,,,,,
3,6,0.7768182,p,63,Unlimited Time,e,54.77136126,61.82444324,62.50894572,62.97527741,62.97527741,62.50894572,61.82444324,54.77136126,0,0,0,0,60,60,60,60,60,3.16227766,6.32455532,8.366600265,10
,,,,,,,,,,,,,,,,,,,,,,,,,,,
3,7,0.425043,q,73.1,Unlimited Time,e,73.09085241,88.0547555,53.72163161,62.71963876,62.71963876,53.72163161,88.0547555,73.09085241,0,0,0,0,60,60,60,60,60,3.16227766,6.32455532,8.366600265,10
,,,,,,,,,,,,,,,,,,,,,,,,,,,
3,8,0.4038166,w,67.6,Unlimited Time,e,53.30881197,67.63080088,49.44349716,62.38432752,62.38432752,49.44349716,67.63080088,53.30881197,0,0,0,0,60,60,60,60,60,3.16227766,6.32455532,8.366600265,10
,,,,,,,,,,,,,,,,,,,,,,,,,,,
3,9,0.8415424,q,66.5,Unlimited Time,e,66.52934059,68.69407589,64.9438177,60.72715175,60.72715175,64.9438177,68.69407589,66.52934059,0,0,0,0,60,60,60,60,60,3.16227766,6.32455532,8.366600265,10
,,,,,,,,,,,,,,,,,,,,,,,,,,,
3,10,0.5955017,p,64,Unlimited Time,e,77.71431429,52.59126636,45.17366501,63.97214328,63.97214328,45.17366501,52.59126636,77.71431429,0,0,0,0,60,60,60,60,60,3.16227766,6.32455532,8.366600265,10
,,,,,,,,,,,,,,,,,,,,,,,,,,,
3,11,0.5454908,o,52.2,Unlimited Time,e,55.14497008,68.5808907,52.23945521,61.96139374,61.96139374,52.23945521,68.5808907,55.14497008,0,0,0,0,60,60,60,60,60,3.16227766,6.32455532,8.366600265,10
,,,,,,,,,,,,,,,,,,,,,,,,,,,
3,12,0.3787945,w,65.3,Unlimited Time,e,47.39844482,65.2798874,56.63292371,59.8409687,59.8409687,56.63292371,65.2798874,47.39844482,0,0,0,0,60,60,60,60,60,3.16227766,6.32455532,8.366600265,10
,,,,,,,,,,,,,,,,,,,,,,,,,,,
3,13,0.823601,p,56.4,Unlimited Time,e,73.82468869,51.08358895,61.9556321,56.39384587,56.39384587,61.9556321,51.08358895,73.82468869,0,0,0,0,60,60,60,60,60,3.16227766,6.32455532,8.366600265,10
,,,,,,,,,,,,,,,,,,,,,,,,,,,
3,14,0.4523653,w,64,Unlimited Time,e,61.99994305,63.99446818,65.4341095,58.9083174,58.9083174,65.4341095,63.99446818,61.99994305,0,0,0,0,60,60,60,60,60,3.16227766,6.32455532,8.366600265,10
,,,,,,,,,,,,,,,,,,,,,,,,,,,
3,15,0.3384164,q,57.8,Unlimited Time,e,57.77569949,69.67662151,52.16105288,59.12877872,59.12877872,52.16105288,69.67662151,57.77569949,0,0,0,0,60,60,60,60,60,3.16227766,6.32455532,8.366600265,10
,,,,,,,,,,,,,,,,,,,,,,,,,,,
3,16,0.43672,o,64.2,Unlimited Time,e,60.82579784,57.62020804,64.1525374,56.94920805,56.94920805,64.1525374,57.62020804,60.82579784,0,0,0,0,60,60,60,60,60,3.16227766,6.32455532,8.366600265,10
,,,,,,,,,,,,,,,,,,,,,,,,,,,
3,17,0.4327463,p,64.7,Unlimited Time,e,63.60445734,72.20428634,55.45045997,64.71991669,64.71991669,55.45045997,72.20428634,63.60445734,0,0,0,0,60,60,60,60,60,3.16227766,6.32455532,8.366600265,10
,,,,,,,,,,,,,,,,,,,,,,,,,,,
3,18,0.4013219,q,56,Unlimited Time,e,55.96321882,59.26718622,55.5411937,62.91698444,62.91698444,55.5411937,59.26718622,55.96321882,0,0,0,0,60,60,60,60,60,3.16227766,6.32455532,8.366600265,10
,,,,,,,,,,,,,,,,,,,,,,,,,,,
3,19,1.3797719,w,50.4,Unlimited Time,e,59.99359012,50.43824677,69.95851445,58.66340019,58.66340019,69.95851445,50.43824677,59.99359012,0,0,0,0,60,60,60,60,60,3.16227766,6.32455532,8.366600265,10
,,,,,,,,,,,,,,,,,,,,,,,,,,,
3,20,0.4726474,o,57.5,Unlimited Time,e,58.10858044,54.3265738,57.51181631,62.34321655,62.34321655,57.51181631,54.3265738,58.10858044,0,0,0,0,60,60,60,60,60,3.16227766,6.32455532,8.366600265,10
,,,,,,,,,,,,,,,,,,,,,,,,,,,
4,1,0.3243135,p,60.8,Limited Time,l,59.5517338,66.04003074,44.37355858,60.812708,44.37355858,59.5517338,60.812708,66.04003074,-10,-0.33,0.33,10,60,50,59.67,60.33,70,3.16227766,3.16227766,3.16227766,3.16227766
,,,,,,,,,,,,,,,,,,,,,,,,,,,
4,2,,,0,Limited Time,l,61.48938073,72.41695049,53.93929217,61.67403675,53.93929217,61.48938073,61.67403675,72.41695049,-10,-0.33,0.33,10,60,50,59.67,60.33,70,3.16227766,3.16227766,3.16227766,3.16227766
,,,,,,,,,,,,,,,,,,,,,,,,,,,
4,3,0.0789775,q,54.6,Limited Time,l,54.62202854,74.9754734,54.78072079,58.26232858,54.78072079,54.62202854,58.26232858,74.9754734,-10,-0.33,0.33,10,60,50,59.67,60.33,70,3.16227766,3.16227766,3.16227766,3.16227766
,,,,,,,,,,,,,,,,,,,,,,,,,,,
4,4,0.1302378,p,60.5,Limited Time,l,59.21193052,72.92770813,48.82025909,60.49307854,48.82025909,59.21193052,60.49307854,72.92770813,-10,-0.33,0.33,10,60,50,59.67,60.33,70,3.16227766,3.16227766,3.16227766,3.16227766
,,,,,,,,,,,,,,,,,,,,,,,,,,,
4,5,0.0676734,q,62.5,Limited Time,l,62.53567462,70.98497359,51.02895154,63.77453073,51.02895154,62.53567462,63.77453073,70.98497359,-10,-0.33,0.33,10,60,50,59.67,60.33,70,3.16227766,3.16227766,3.16227766,3.16227766
,,,,,,,,,,,,,,,,,,,,,,,,,,,
4,6,0.1328702,w,66.6,Limited Time,l,61.93446256,66.60433832,50.34271359,57.62630565,50.34271359,61.93446256,57.62630565,66.60433832,-10,-0.33,0.33,10,60,50,59.67,60.33,70,3.16227766,3.16227766,3.16227766,3.16227766
,,,,,,,,,,,,,,,,,,,,,,,,,,,
4,7,,,0,Limited Time,l,62.6245725,70.2707041,48.83292495,61.73817778,48.83292495,62.6245725,61.73817778,70.2707041,-10,-0.33,0.33,10,60,50,59.67,60.33,70,3.16227766,3.16227766,3.16227766,3.16227766
,,,,,,,,,,,,,,,,,,,,,,,,,,,
4,8,,,0,Limited Time,l,61.40749799,71.60742328,50.21699009,64.79799714,50.21699009,61.40749799,64.79799714,71.60742328,-10,-0.33,0.33,10,60,50,59.67,60.33,70,3.16227766,3.16227766,3.16227766,3.16227766
,,,,,,,,,,,,,,,,,,,,,,,,,,,
4,9,0.1231933,o,50.7,Limited Time,l,60.49370205,67.05420446,50.71928426,58.74714249,50.71928426,60.49370205,58.74714249,67.05420446,-10,-0.33,0.33,10,60,50,59.67,60.33,70,3.16227766,3.16227766,3.16227766,3.16227766
,,,,,,,,,,,,,,,,,,,,,,,,,,,
4,10,,,0,Limited Time,l,59.49635822,73.47259868,49.12182864,62.91129273,49.12182864,59.49635822,62.91129273,73.47259868,-10,-0.33,0.33,10,60,50,59.67,60.33,70,3.16227766,3.16227766,3.16227766,3.16227766
,,,,,,,,,,,,,,,,,,,,,,,,,,,
4,11,0.0537614,q,69.6,Limited Time,l,69.62940274,69.46150666,47.0322507,59.69318229,47.0322507,69.62940274,59.69318229,69.46150666,-10,-0.33,0.33,10,60,50,59.67,60.33,70,3.16227766,3.16227766,3.16227766,3.16227766
,,,,,,,,,,,,,,,,,,,,,,,,,,,
4,12,0.0270282,o,59.4,Limited Time,l,63.57895596,77.88904656,59.36333325,61.58928757,59.36333325,63.57895596,61.58928757,77.88904656,-10,-0.33,0.33,10,60,50,59.67,60.33,70,3.16227766,3.16227766,3.16227766,3.16227766
,,,,,,,,,,,,,,,,,,,,,,,,,,,
4,13,,,0,Limited Time,l,58.72442445,71.03671448,53.1664031,59.74861627,53.1664031,58.72442445,59.74861627,71.03671448,-10,-0.33,0.33,10,60,50,59.67,60.33,70,3.16227766,3.16227766,3.16227766,3.16227766
,,,,,,,,,,,,,,,,,,,,,,,,,,,
4,14,0.1683072,w,70.5,Limited Time,l,63.55806674,70.45462018,52.70295282,66.53312332,52.70295282,63.55806674,66.53312332,70.45462018,-10,-0.33,0.33,10,60,50,59.67,60.33,70,3.16227766,3.16227766,3.16227766,3.16227766
,,,,,,,,,,,,,,,,,,,,,,,,,,,
4,15,0.2261923,o,42.7,Limited Time,l,61.82091589,72.68275385,42.67255416,62.09105243,42.67255416,61.82091589,62.09105243,72.68275385,-10,-0.33,0.33,10,60,50,59.67,60.33,70,3.16227766,3.16227766,3.16227766,3.16227766
,,,,,,,,,,,,,,,,,,,,,,,,,,,
4,16,,,0,Limited Time,l,66.76083872,69.17029359,53.13945223,53.52465788,53.13945223,66.76083872,53.52465788,69.17029359,-10,-0.33,0.33,10,60,50,59.67,60.33,70,3.16227766,3.16227766,3.16227766,3.16227766
,,,,,,,,,,,,,,,,,,,,,,,,,,,
4,17,0.1240168,o,56.1,Limited Time,l,59.19371648,64.42565762,56.09656762,64.03864434,56.09656762,59.19371648,64.03864434,64.42565762,-10,-0.33,0.33,10,60,50,59.67,60.33,70,3.16227766,3.16227766,3.16227766,3.16227766
,,,,,,,,,,,,,,,,,,,,,,,,,,,
4,18,0.1632416,p,57.7,Limited Time,l,58.72199758,67.72989407,47.42858077,57.6680639,47.42858077,58.72199758,57.6680639,67.72989407,-10,-0.33,0.33,10,60,50,59.67,60.33,70,3.16227766,3.16227766,3.16227766,3.16227766
,,,,,,,,,,,,,,,,,,,,,,,,,,,
4,19,0.0375509,w,65.4,Limited Time,l,64.28339405,65.36344901,52.9901288,56.75703731,52.9901288,64.28339405,56.75703731,65.36344901,-10,-0.33,0.33,10,60,50,59.67,60.33,70,3.16227766,3.16227766,3.16227766,3.16227766
,,,,,,,,,,,,,,,,,,,,,,,,,,,
4,20,0.0030415,q,63.3,Limited Time,l,63.30953343,71.95991175,48.59439913,60.14465202,48.59439913,63.30953343,60.14465202,71.95991175,-10,-0.33,0.33,10,60,50,59.67,60.33,70,3.16227766,3.16227766,3.16227766,3.16227766
,,,,,,,,,,,,,,,,,,,,,,,,,,,
5,1,0.3913942,p,54.1,Unlimited Time,i,55.93215691,41.1402694,73.11824831,54.13431184,54.13431184,41.1402694,73.11824831,55.93215691,-10,-10,10,10,60,50,50,70,70,3.16227766,10,3.16227766,10
,,,,,,,,,,,,,,,,,,,,,,,,,,,
5,2,0.0599201,q,69.5,Unlimited Time,i,69.49626113,52.08616823,72.33617394,49.32533907,49.32533907,52.08616823,72.33617394,69.49626113,-10,-10,10,10,60,50,50,70,70,3.16227766,10,3.16227766,10
,,,,,,,,,,,,,,,,,,,,,,,,,,,
5,3,0.7138059,o,69.7,Unlimited Time,i,82.47906428,39.18780484,69.66619589,52.78826404,52.78826404,39.18780484,69.66619589,82.47906428,-10,-10,10,10,60,50,50,70,70,3.16227766,10,3.16227766,10
,,,,,,,,,,,,,,,,,,,,,,,,,,,
5,4,0.3092897,p,54,Unlimited Time,i,62.94976179,39.74099831,71.3186076,53.96541794,53.96541794,39.74099831,71.3186076,62.94976179,-10,-10,10,10,60,50,50,70,70,3.16227766,10,3.16227766,10
,,,,,,,,,,,,,,,,,,,,,,,,,,,
5,5,0.3627006,w,47.7,Unlimited Time,i,48.93111825,47.73209913,70.23524857,50.23328738,50.23328738,47.73209913,70.23524857,48.93111825,-10,-10,10,10,60,50,50,70,70,3.16227766,10,3.16227766,10
,,,,,,,,,,,,,,,,,,,,,,,,,,,
5,6,0.3684299,q,51.8,Unlimited Time,i,51.83962789,51.44982545,68.26509089,48.11337208,48.11337208,51.44982545,68.26509089,51.83962789,-10,-10,10,10,60,50,50,70,70,3.16227766,10,3.16227766,10
,,,,,,,,,,,,,,,,,,,,,,,,,,,
5,7,0.4816861,o,67.7,Unlimited Time,i,69.24931459,40.34319173,67.69299068,48.8867219,48.8867219,40.34319173,67.69299068,69.24931459,-10,-10,10,10,60,50,50,70,70,3.16227766,10,3.16227766,10
,,,,,,,,,,,,,,,,,,,,,,,,,,,
5,8,0.3517007,p,45.8,Unlimited Time,i,62.96780837,56.40171143,69.4258327,45.80985713,45.80985713,56.40171143,69.4258327,62.96780837,-10,-10,10,10,60,50,50,70,70,3.16227766,10,3.16227766,10
,,,,,,,,,,,,,,,,,,,,,,,,,,,
5,9,0.3634664,w,51.4,Unlimited Time,i,71.30272828,51.43494162,62.44602013,51.694938,51.694938,51.43494162,62.44602013,71.30272828,-10,-10,10,10,60,50,50,70,70,3.16227766,10,3.16227766,10
,,,,,,,,,,,,,,,,,,,,,,,,,,,
5,10,0.3069532,q,68.2,Unlimited Time,i,68.16894726,60.90485343,74.92703376,46.94981797,46.94981797,60.90485343,74.92703376,68.16894726,-10,-10,10,10,60,50,50,70,70,3.16227766,10,3.16227766,10
,,,,,,,,,,,,,,,,,,,,,,,,,,,
5,11,0.4958366,o,67.5,Unlimited Time,i,72.82253992,58.20753913,67.51659405,53.86010723,53.86010723,58.20753913,67.51659405,72.82253992,-10,-10,10,10,60,50,50,70,70,3.16227766,10,3.16227766,10
,,,,,,,,,,,,,,,,,,,,,,,,,,,
5,12,0.2940348,p,49.8,Unlimited Time,i,68.5014362,61.17984062,69.27342004,49.83954345,49.83954345,61.17984062,69.27342004,68.5014362,-10,-10,10,10,60,50,50,70,70,3.16227766,10,3.16227766,10
,,,,,,,,,,,,,,,,,,,,,,,,,,,
5,13,0.3369465,w,55.7,Unlimited Time,i,81.25503345,55.68087665,68.70846428,51.7778563,51.7778563,55.68087665,68.70846428,81.25503345,-10,-10,10,10,60,50,50,70,70,3.16227766,10,3.16227766,10
,,,,,,,,,,,,,,,,,,,,,,,,,,,
5,14,0.365333,q,70.2,Unlimited Time,i,70.15666514,44.27034497,72.65768454,51.3643136,51.3643136,44.27034497,72.65768454,70.15666514,-10,-10,10,10,60,50,50,70,70,3.16227766,10,3.16227766,10
,,,,,,,,,,,,,,,,,,,,,,,,,,,
5,15,0.2959143,o,69.4,Unlimited Time,i,75.38172479,53.03205808,69.35449564,47.71129772,47.71129772,53.03205808,69.35449564,75.38172479,-10,-10,10,10,60,50,50,70,70,3.16227766,10,3.16227766,10
,,,,,,,,,,,,,,,,,,,,,,,,,,,
5,16,0.3052746,p,43.8,Unlimited Time,i,62.73944826,58.05717084,69.3900266,43.82112952,43.82112952,58.05717084,69.3900266,62.73944826,-10,-10,10,10,60,50,50,70,70,3.16227766,10,3.16227766,10
,,,,,,,,,,,,,,,,,,,,,,,,,,,
5,17,0.3078192,w,42.3,Unlimited Time,i,68.63136913,42.34696514,71.05283562,45.06943319,45.06943319,42.34696514,71.05283562,68.63136913,-10,-10,10,10,60,50,50,70,70,3.16227766,10,3.16227766,10
,,,,,,,,,,,,,,,,,,,,,,,,,,,
5,18,0.2462214,p,48.2,Unlimited Time,i,63.22452306,59.20640357,65.09392429,48.16628098,48.16628098,59.20640357,65.09392429,63.22452306,-10,-10,10,10,60,50,50,70,70,3.16227766,10,3.16227766,10
,,,,,,,,,,,,,,,,,,,,,,,,,,,
5,19,0.63649,o,66.2,Unlimited Time,i,67.17307619,33.16923791,66.157298,50.60393654,50.60393654,33.16923791,66.157298,67.17307619,-10,-10,10,10,60,50,50,70,70,3.16227766,10,3.16227766,10
,,,,,,,,,,,,,,,,,,,,,,,,,,,
5,20,0.2309101,q,59.3,Unlimited Time,i,59.3458731,67.07665543,73.88666098,46.21848372,46.21848372,67.07665543,73.88666098,59.3458731,-10,-10,10,10,60,50,50,70,70,3.16227766,10,3.16227766,10
,,,,,,,,,,,,,,,,,,,,,,,,,,,
6,1,0.2327224,p,62.2,Limited Time,e,69.80434744,60.96468918,73.67954677,62.20159247,60.96468918,62.20159247,73.67954677,69.80434744,0,0,0,0,60,60,60,60,60,3.16227766,6.32455532,8.366600265,10
,,,,,,,,,,,,,,,,,,,,,,,,,,,
6,2,0.3669895,q,74,Limited Time,e,74.04163518,65.7311022,62.38658882,56.82379549,65.7311022,56.82379549,62.38658882,74.04163518,0,0,0,0,60,60,60,60,60,3.16227766,6.32455532,8.366600265,10
,,,,,,,,,,,,,,,,,,,,,,,,,,,
6,3,0.001559,p,70.7,Limited Time,e,58.49477692,59.0622787,66.1973917,70.70893524,59.0622787,70.70893524,66.1973917,58.49477692,0,0,0,0,60,60,60,60,60,3.16227766,6.32455532,8.366600265,10
,,,,,,,,,,,,,,,,,,,,,,,,,,,
6,4,0.349438,w,63.9,Limited Time,e,54.51435214,63.86075531,54.48486582,65.38236296,63.86075531,65.38236296,54.48486582,54.51435214,0,0,0,0,60,60,60,60,60,3.16227766,6.32455532,8.366600265,10
,,,,,,,,,,,,,,,,,,,,,,,,,,,
6,5,0.3818955,p,60.8,Limited Time,e,74.67143278,64.66836318,47.20769459,60.82288998,64.66836318,60.82288998,47.20769459,74.67143278,0,0,0,0,60,60,60,60,60,3.16227766,6.32455532,8.366600265,10
,,,,,,,,,,,,,,,,,,,,,,,,,,,
6,6,0.3303664,w,63,Limited Time,e,54.77136126,62.97527741,61.82444324,62.50894572,62.97527741,62.50894572,61.82444324,54.77136126,0,0,0,0,60,60,60,60,60,3.16227766,6.32455532,8.366600265,10
,,,,,,,,,,,,,,,,,,,,,,,,,,,
6,7,0.2252281,q,73.1,Limited Time,e,73.09085241,62.71963876,88.0547555,53.72163161,62.71963876,53.72163161,88.0547555,73.09085241,0,0,0,0,60,60,60,60,60,3.16227766,6.32455532,8.366600265,10
,,,,,,,,,,,,,,,,,,,,,,,,,,,
6,8,0.3616979,o,67.6,Limited Time,e,53.30881197,62.38432752,67.63080088,49.44349716,62.38432752,49.44349716,67.63080088,53.30881197,0,0,0,0,60,60,60,60,60,3.16227766,6.32455532,8.366600265,10
,,,,,,,,,,,,,,,,,,,,,,,,,,,
6,9,0.2840727,q,66.5,Limited Time,e,66.52934059,60.72715175,68.69407589,64.9438177,60.72715175,64.9438177,68.69407589,66.52934059,0,0,0,0,60,60,60,60,60,3.16227766,6.32455532,8.366600265,10
,,,,,,,,,,,,,,,,,,,,,,,,,,,
6,10,0.0103543,o,52.6,Limited Time,e,77.71431429,63.97214328,52.59126636,45.17366501,63.97214328,45.17366501,52.59126636,77.71431429,0,0,0,0,60,60,60,60,60,3.16227766,6.32455532,8.366600265,10
,,,,,,,,,,,,,,,,,,,,,,,,,,,
6,11,,,0,Limited Time,e,55.14497008,61.96139374,68.5808907,52.23945521,61.96139374,52.23945521,68.5808907,55.14497008,0,0,0,0,60,60,60,60,60,3.16227766,6.32455532,8.366600265,10
,,,,,,,,,,,,,,,,,,,,,,,,,,,
6,12,0.032931,q,47.4,Limited Time,e,47.39844482,59.8409687,65.2798874,56.63292371,59.8409687,56.63292371,65.2798874,47.39844482,0,0,0,0,60,60,60,60,60,3.16227766,6.32455532,8.366600265,10
,,,,,,,,,,,,,,,,,,,,,,,,,,,
6,13,0.3167519,p,62,Limited Time,e,73.82468869,56.39384587,51.08358895,61.9556321,56.39384587,61.9556321,51.08358895,73.82468869,0,0,0,0,60,60,60,60,60,3.16227766,6.32455532,8.366600265,10
,,,,,,,,,,,,,,,,,,,,,,,,,,,
6,14,0.3085293,q,62,Limited Time,e,61.99994305,58.9083174,63.99446818,65.4341095,58.9083174,65.4341095,63.99446818,61.99994305,0,0,0,0,60,60,60,60,60,3.16227766,6.32455532,8.366600265,10
,,,,,,,,,,,,,,,,,,,,,,,,,,,
6,15,0.3031863,p,52.2,Limited Time,e,57.77569949,59.12877872,69.67662151,52.16105288,59.12877872,52.16105288,69.67662151,57.77569949,0,0,0,0,60,60,60,60,60,3.16227766,6.32455532,8.366600265,10
,,,,,,,,,,,,,,,,,,,,,,,,,,,
6,16,,,0,Limited Time,e,60.82579784,56.94920805,57.62020804,64.1525374,56.94920805,64.1525374,57.62020804,60.82579784,0,0,0,0,60,60,60,60,60,3.16227766,6.32455532,8.366600265,10
,,,,,,,,,,,,,,,,,,,,,,,,,,,
6,17,0.2875293,p,55.5,Limited Time,e,63.60445734,64.71991669,72.20428634,55.45045997,64.71991669,55.45045997,72.20428634,63.60445734,0,0,0,0,60,60,60,60,60,3.16227766,6.32455532,8.366600265,10
,,,,,,,,,,,,,,,,,,,,,,,,,,,
6,18,0.3019425,q,56,Limited Time,e,55.96321882,62.91698444,59.26718622,55.5411937,62.91698444,55.5411937,59.26718622,55.96321882,0,0,0,0,60,60,60,60,60,3.16227766,6.32455532,8.366600265,10
,,,,,,,,,,,,,,,,,,,,,,,,,,,
6,19,,,0,Limited Time,e,59.99359012,58.66340019,50.43824677,69.95851445,58.66340019,69.95851445,50.43824677,59.99359012,0,0,0,0,60,60,60,60,60,3.16227766,6.32455532,8.366600265,10
,,,,,,,,,,,,,,,,,,,,,,,,,,,
6,20,0.3625002,o,54.3,Limited Time,e,58.10858044,62.34321655,54.3265738,57.51181631,62.34321655,57.51181631,54.3265738,58.10858044,0,0,0,0,60,60,60,60,60,3.16227766,6.32455532,8.366600265,10
,,,,,,,,,,,,,,,,,,,,,,,,,,,
7,1,0.4407308,p,53.5,Unlimited Time,h,55.89907285,69.16104129,62.22299463,53.54488336,69.16104129,53.54488336,55.89907285,62.22299463,-10,-0.33,0.33,10,60,50,59.67,60.33,70,10,10,10,10
,,,,,,,,,,,,,,,,,,,,,,,,,,,
7,2,0.054519,w,58.7,Unlimited Time,h,63.80026787,58.70007318,77.09937378,58.15819567,58.70007318,58.15819567,63.80026787,77.09937378,-10,-0.33,0.33,10,60,50,59.67,60.33,70,10,10,10,10
,,,,,,,,,,,,,,,,,,,,,,,,,,,
7,3,0.2900759,q,83,Unlimited Time,h,82.96793313,43.68501436,63.86154026,57.3215493,43.68501436,57.3215493,82.96793313,63.86154026,-10,-0.33,0.33,10,60,50,59.67,60.33,70,10,10,10,10
,,,,,,,,,,,,,,,,,,,,,,,,,,,
7,4,0.3675474,o,72.8,Unlimited Time,h,67.34549527,44.50605445,72.82659931,55.85935148,44.50605445,55.85935148,67.34549527,72.82659931,-10,-0.33,0.33,10,60,50,59.67,60.33,70,10,10,10,10
,,,,,,,,,,,,,,,,,,,,,,,,,,,
7,5,0.2765755,p,57.9,Unlimited Time,h,69.38532582,36.14426614,70.29954999,57.87269688,36.14426614,57.87269688,69.38532582,70.29954999,-10,-0.33,0.33,10,60,50,59.67,60.33,70,10,10,10,10
,,,,,,,,,,,,,,,,,,,,,,,,,,,
7,6,0.2962293,w,60.4,Unlimited Time,h,66.9383914,60.35893862,60.30364571,71.56878329,60.35893862,71.56878329,66.9383914,60.30364571,-10,-0.33,0.33,10,60,50,59.67,60.33,70,10,10,10,10
,,,,,,,,,,,,,,,,,,,,,,,,,,,
7,7,0.575251,q,49.1,Unlimited Time,h,49.1484737,47.05543027,60.38429749,85.4837075,47.05543027,85.4837075,49.1484737,60.38429749,-10,-0.33,0.33,10,60,50,59.67,60.33,70,10,10,10,10
,,,,,,,,,,,,,,,,,,,,,,,,,,,
7,8,0.5379232,p,47.9,Unlimited Time,h,71.50619106,44.0494263,59.19480531,47.86522544,44.0494263,47.86522544,71.50619106,59.19480531,-10,-0.33,0.33,10,60,50,59.67,60.33,70,10,10,10,10
,,,,,,,,,,,,,,,,,,,,,,,,,,,
7,9,0.3854634,o,75.1,Unlimited Time,h,58.32185848,50.38391323,75.14933209,61.45231055,50.38391323,61.45231055,58.32185848,75.14933209,-10,-0.33,0.33,10,60,50,59.67,60.33,70,10,10,10,10
,,,,,,,,,,,,,,,,,,,,,,,,,,,
7,10,0.4496351,w,57.1,Unlimited Time,h,45.43159578,57.14187403,76.621155,69.33974413,57.14187403,69.33974413,45.43159578,76.621155,-10,-0.33,0.33,10,60,50,59.67,60.33,70,10,10,10,10
,,,,,,,,,,,,,,,,,,,,,,,,,,,
7,11,0.4153928,q,71.5,Unlimited Time,h,71.54207254,48.95754504,52.57928746,47.71793635,48.95754504,47.71793635,71.54207254,52.57928746,-10,-0.33,0.33,10,60,50,59.67,60.33,70,10,10,10,10
,,,,,,,,,,,,,,,,,,,,,,,,,,,
7,12,0.5370193,p,41.4,Unlimited Time,h,52.13947532,43.15349939,79.40739547,41.38592545,43.15349939,41.38592545,52.13947532,79.40739547,-10,-0.33,0.33,10,60,50,59.67,60.33,70,10,10,10,10
,,,,,,,,,,,,,,,,,,,,,,,,,,,
7,13,0.5532984,w,79.2,Unlimited Time,h,51.21975721,79.22476529,61.02438183,58.76593226,79.22476529,58.76593226,51.21975721,61.02438183,-10,-0.33,0.33,10,60,50,59.67,60.33,70,10,10,10,10
,,,,,,,,,,,,,,,,,,,,,,,,,,,
7,14,0.405078,q,42.4,Unlimited Time,h,42.42595329,47.69881198,86.76848071,61.89686701,47.69881198,61.89686701,42.42595329,86.76848071,-10,-0.33,0.33,10,60,50,59.67,60.33,70,10,10,10,10
,,,,,,,,,,,,,,,,,,,,,,,,,,,
7,15,0.4006498,o,74.1,Unlimited Time,h,74.31742676,52.76220914,74.09691736,43.93647061,52.76220914,43.93647061,74.31742676,74.09691736,-10,-0.33,0.33,10,60,50,59.67,60.33,70,10,10,10,10
,,,,,,,,,,,,,,,,,,,,,,,,,,,
7,16,0.3435849,p,62,Unlimited Time,h,78.83515153,59.54917914,68.81472906,62.03289231,59.54917914,62.03289231,78.83515153,68.81472906,-10,-0.33,0.33,10,60,50,59.67,60.33,70,10,10,10,10
,,,,,,,,,,,,,,,,,,,,,,,,,,,
7,17,0.4158338,o,62.9,Unlimited Time,h,62.66421878,57.50671016,62.86430361,46.03651912,57.50671016,46.03651912,62.66421878,62.86430361,-10,-0.33,0.33,10,60,50,59.67,60.33,70,10,10,10,10
,,,,,,,,,,,,,,,,,,,,,,,,,,,
7,18,0.5151416,p,72.3,Unlimited Time,h,75.62874461,28.80008665,59.89429073,72.32621326,28.80008665,72.32621326,75.62874461,59.89429073,-10,-0.33,0.33,10,60,50,59.67,60.33,70,10,10,10,10
,,,,,,,,,,,,,,,,,,,,,,,,,,,
7,19,0.5388164,o,70,Unlimited Time,h,45.14958741,61.91972363,70.02576488,59.07994346,61.91972363,59.07994346,45.14958741,70.02576488,-10,-0.33,0.33,10,60,50,59.67,60.33,70,10,10,10,10
,,,,,,,,,,,,,,,,,,,,,,,,,,,
7,20,0.1921673,p,62.9,Unlimited Time,h,68.20081313,44.28561728,52.29241783,62.90250124,44.28561728,62.90250124,68.20081313,52.29241783,-10,-0.33,0.33,10,60,50,59.67,60.33,70,10,10,10,10
,,,,,,,,,,,,,,,,,,,,,,,,,,,
8,1,0.2981331,p,61,Limited Time,e,69.80434744,73.67954677,62.20159247,60.96468918,60.96468918,62.20159247,73.67954677,69.80434744,0,0,0,0,60,60,60,60,60,3.16227766,6.32455532,8.366600265,10
,,,,,,,,,,,,,,,,,,,,,,,,,,,
8,2,0.089612,q,74,Limited Time,e,74.04163518,62.38658882,56.82379549,65.7311022,65.7311022,56.82379549,62.38658882,74.04163518,0,0,0,0,60,60,60,60,60,3.16227766,6.32455532,8.366600265,10
,,,,,,,,,,,,,,,,,,,,,,,,,,,
8,3,,,0,Limited Time,e,58.49477692,66.1973917,70.70893524,59.0622787,59.0622787,70.70893524,66.1973917,58.49477692,0,0,0,0,60,60,60,60,60,3.16227766,6.32455532,8.366600265,10
,,,,,,,,,,,,,,,,,,,,,,,,,,,
8,4,0.0914402,w,54.5,Limited Time,e,54.51435214,54.48486582,65.38236296,63.86075531,63.86075531,65.38236296,54.48486582,54.51435214,0,0,0,0,60,60,60,60,60,3.16227766,6.32455532,8.366600265,10
,,,,,,,,,,,,,,,,,,,,,,,,,,,
8,5,,,0,Limited Time,e,74.67143278,47.20769459,60.82288998,64.66836318,64.66836318,60.82288998,47.20769459,74.67143278,0,0,0,0,60,60,60,60,60,3.16227766,6.32455532,8.366600265,10
,,,,,,,,,,,,,,,,,,,,,,,,,,,
8,6,0.307034,w,61.8,Limited Time,e,54.77136126,61.82444324,62.50894572,62.97527741,62.97527741,62.50894572,61.82444324,54.77136126,0,0,0,0,60,60,60,60,60,3.16227766,6.32455532,8.366600265,10
,,,,,,,,,,,,,,,,,,,,,,,,,,,
8,7,,,0,Limited Time,e,73.09085241,88.0547555,53.72163161,62.71963876,62.71963876,53.72163161,88.0547555,73.09085241,0,0,0,0,60,60,60,60,60,3.16227766,6.32455532,8.366600265,10
,,,,,,,,,,,,,,,,,,,,,,,,,,,
8,8,0.3317764,q,53.3,Limited Time,e,53.30881197,67.63080088,49.44349716,62.38432752,62.38432752,49.44349716,67.63080088,53.30881197,0,0,0,0,60,60,60,60,60,3.16227766,6.32455532,8.366600265,10
,,,,,,,,,,,,,,,,,,,,,,,,,,,
8,9,0.2637841,p,60.7,Limited Time,e,66.52934059,68.69407589,64.9438177,60.72715175,60.72715175,64.9438177,68.69407589,66.52934059,0,0,0,0,60,60,60,60,60,3.16227766,6.32455532,8.366600265,10
,,,,,,,,,,,,,,,,,,,,,,,,,,,
8,10,0.3281514,o,45.2,Limited Time,e,77.71431429,52.59126636,45.17366501,63.97214328,63.97214328,45.17366501,52.59126636,77.71431429,0,0,0,0,60,60,60,60,60,3.16227766,6.32455532,8.366600265,10
,,,,,,,,,,,,,,,,,,,,,,,,,,,
8,11,0.3389199,o,52.2,Limited Time,e,55.14497008,68.5808907,52.23945521,61.96139374,61.96139374,52.23945521,68.5808907,55.14497008,0,0,0,0,60,60,60,60,60,3.16227766,6.32455532,8.366600265,10
,,,,,,,,,,,,,,,,,,,,,,,,,,,
8,12,0.212781,o,56.6,Limited Time,e,47.39844482,65.2798874,56.63292371,59.8409687,59.8409687,56.63292371,65.2798874,47.39844482,0,0,0,0,60,60,60,60,60,3.16227766,6.32455532,8.366600265,10
,,,,,,,,,,,,,,,,,,,,,,,,,,,
8,13,,,0,Limited Time,e,73.82468869,51.08358895,61.9556321,56.39384587,56.39384587,61.9556321,51.08358895,73.82468869,0,0,0,0,60,60,60,60,60,3.16227766,6.32455532,8.366600265,10
,,,,,,,,,,,,,,,,,,,,,,,,,,,
8,14,0.0781531,o,65.4,Limited Time,e,61.99994305,63.99446818,65.4341095,58.9083174,58.9083174,65.4341095,63.99446818,61.99994305,0,0,0,0,60,60,60,60,60,3.16227766,6.32455532,8.366600265,10
,,,,,,,,,,,,,,,,,,,,,,,,,,,
8,15,0.2366859,q,57.8,Limited Time,e,57.77569949,69.67662151,52.16105288,59.12877872,59.12877872,52.16105288,69.67662151,57.77569949,0,0,0,0,60,60,60,60,60,3.16227766,6.32455532,8.366600265,10
,,,,,,,,,,,,,,,,,,,,,,,,,,,
8,16,0.3101896,q,60.8,Limited Time,e,60.82579784,57.62020804,64.1525374,56.94920805,56.94920805,64.1525374,57.62020804,60.82579784,0,0,0,0,60,60,60,60,60,3.16227766,6.32455532,8.366600265,10
,,,,,,,,,,,,,,,,,,,,,,,,,,,
8,17,0.1964722,q,63.6,Limited Time,e,63.60445734,72.20428634,55.45045997,64.71991669,64.71991669,55.45045997,72.20428634,63.60445734,0,0,0,0,60,60,60,60,60,3.16227766,6.32455532,8.366600265,10
,,,,,,,,,,,,,,,,,,,,,,,,,,,
8,18,0.0676878,q,56,Limited Time,e,55.96321882,59.26718622,55.5411937,62.91698444,62.91698444,55.5411937,59.26718622,55.96321882,0,0,0,0,60,60,60,60,60,3.16227766,6.32455532,8.366600265,10
,,,,,,,,,,,,,,,,,,,,,,,,,,,
8,19,0.0605276,q,60,Limited Time,e,59.99359012,50.43824677,69.95851445,58.66340019,58.66340019,69.95851445,50.43824677,59.99359012,0,0,0,0,60,60,60,60,60,3.16227766,6.32455532,8.366600265,10
,,,,,,,,,,,,,,,,,,,,,,,,,,,
8,20,0.093523,q,58.1,Limited Time,e,58.10858044,54.3265738,57.51181631,62.34321655,62.34321655,57.51181631,54.3265738,58.10858044,0,0,0,0,60,60,60,60,60,3.16227766,6.32455532,8.366600265,10
,,,,,,,,,,,,,,,,,,,,,,,,,,,
9,1,0.4654754,w,69.8,Unlimited Time,e,60.96468918,69.80434744,73.67954677,62.20159247,60.96468918,62.20159247,73.67954677,69.80434744,0,0,0,0,60,60,60,60,60,3.16227766,6.32455532,8.366600265,10
,,,,,,,,,,,,,,,,,,,,,,,,,,,
9,2,0.4788636,p,56.8,Unlimited Time,e,65.7311022,74.04163518,62.38658882,56.82379549,65.7311022,56.82379549,62.38658882,74.04163518,0,0,0,0,60,60,60,60,60,3.16227766,6.32455532,8.366600265,10
,,,,,,,,,,,,,,,,,,,,,,,,,,,
9,3,0.3888911,q,59.1,Unlimited Time,e,59.0622787,58.49477692,66.1973917,70.70893524,59.0622787,70.70893524,66.1973917,58.49477692,0,0,0,0,60,60,60,60,60,3.16227766,6.32455532,8.366600265,10
,,,,,,,,,,,,,,,,,,,,,,,,,,,
9,4,0.4341101,o,54.5,Unlimited Time,e,63.86075531,54.51435214,54.48486582,65.38236296,63.86075531,65.38236296,54.48486582,54.51435214,0,0,0,0,60,60,60,60,60,3.16227766,6.32455532,8.366600265,10
,,,,,,,,,,,,,,,,,,,,,,,,,,,
9,5,0.3937285,p,60.8,Unlimited Time,e,64.66836318,74.67143278,47.20769459,60.82288998,64.66836318,60.82288998,47.20769459,74.67143278,0,0,0,0,60,60,60,60,60,3.16227766,6.32455532,8.366600265,10
,,,,,,,,,,,,,,,,,,,,,,,,,,,
9,6,0.3888935,w,54.8,Unlimited Time,e,62.97527741,54.77136126,61.82444324,62.50894572,62.97527741,62.50894572,61.82444324,54.77136126,0,0,0,0,60,60,60,60,60,3.16227766,6.32455532,8.366600265,10
,,,,,,,,,,,,,,,,,,,,,,,,,,,
9,7,0.3598919,q,62.7,Unlimited Time,e,62.71963876,73.09085241,88.0547555,53.72163161,62.71963876,53.72163161,88.0547555,73.09085241,0,0,0,0,60,60,60,60,60,3.16227766,6.32455532,8.366600265,10
,,,,,,,,,,,,,,,,,,,,,,,,,,,
9,8,0.3658327,p,49.4,Unlimited Time,e,62.38432752,53.30881197,67.63080088,49.44349716,62.38432752,49.44349716,67.63080088,53.30881197,0,0,0,0,60,60,60,60,60,3.16227766,6.32455532,8.366600265,10
,,,,,,,,,,,,,,,,,,,,,,,,,,,
9,9,0.3701704,o,68.7,Unlimited Time,e,60.72715175,66.52934059,68.69407589,64.9438177,60.72715175,64.9438177,68.69407589,66.52934059,0,0,0,0,60,60,60,60,60,3.16227766,6.32455532,8.366600265,10
,,,,,,,,,,,,,,,,,,,,,,,,,,,
9,10,0.4118892,w,77.7,Unlimited Time,e,63.97214328,77.71431429,52.59126636,45.17366501,63.97214328,45.17366501,52.59126636,77.71431429,0,0,0,0,60,60,60,60,60,3.16227766,6.32455532,8.366600265,10
,,,,,,,,,,,,,,,,,,,,,,,,,,,
9,11,0.3798259,o,68.6,Unlimited Time,e,61.96139374,55.14497008,68.5808907,52.23945521,61.96139374,52.23945521,68.5808907,55.14497008,0,0,0,0,60,60,60,60,60,3.16227766,6.32455532,8.366600265,10
,,,,,,,,,,,,,,,,,,,,,,,,,,,
9,12,0.1807335,w,47.4,Unlimited Time,e,59.8409687,47.39844482,65.2798874,56.63292371,59.8409687,56.63292371,65.2798874,47.39844482,0,0,0,0,60,60,60,60,60,3.16227766,6.32455532,8.366600265,10
,,,,,,,,,,,,,,,,,,,,,,,,,,,
9,13,0.3692685,p,62,Unlimited Time,e,56.39384587,73.82468869,51.08358895,61.9556321,56.39384587,61.9556321,51.08358895,73.82468869,0,0,0,0,60,60,60,60,60,3.16227766,6.32455532,8.366600265,10
,,,,,,,,,,,,,,,,,,,,,,,,,,,
9,14,0.1453609,q,58.9,Unlimited Time,e,58.9083174,61.99994305,63.99446818,65.4341095,58.9083174,65.4341095,63.99446818,61.99994305,0,0,0,0,60,60,60,60,60,3.16227766,6.32455532,8.366600265,10
,,,,,,,,,,,,,,,,,,,,,,,,,,,
9,15,0.2918427,o,69.7,Unlimited Time,e,59.12877872,57.77569949,69.67662151,52.16105288,59.12877872,52.16105288,69.67662151,57.77569949,0,0,0,0,60,60,60,60,60,3.16227766,6.32455532,8.366600265,10
,,,,,,,,,,,,,,,,,,,,,,,,,,,
9,16,0.1419172,w,60.8,Unlimited Time,e,56.94920805,60.82579784,57.62020804,64.1525374,56.94920805,64.1525374,57.62020804,60.82579784,0,0,0,0,60,60,60,60,60,3.16227766,6.32455532,8.366600265,10
,,,,,,,,,,,,,,,,,,,,,,,,,,,
9,17,0.1997509,p,55.5,Unlimited Time,e,64.71991669,63.60445734,72.20428634,55.45045997,64.71991669,55.45045997,72.20428634,63.60445734,0,0,0,0,60,60,60,60,60,3.16227766,6.32455532,8.366600265,10
,,,,,,,,,,,,,,,,,,,,,,,,,,,
9,18,0.1708232,q,62.9,Unlimited Time,e,62.91698444,55.96321882,59.26718622,55.5411937,62.91698444,55.5411937,59.26718622,55.96321882,0,0,0,0,60,60,60,60,60,3.16227766,6.32455532,8.366600265,10
,,,,,,,,,,,,,,,,,,,,,,,,,,,
9,19,0.545451,o,50.4,Unlimited Time,e,58.66340019,59.99359012,50.43824677,69.95851445,58.66340019,69.95851445,50.43824677,59.99359012,0,0,0,0,60,60,60,60,60,3.16227766,6.32455532,8.366600265,10
,,,,,,,,,,,,,,,,,,,,,,,,,,,
9,20,0.1452177,w,58.1,Unlimited Time,e,62.34321655,58.10858044,54.3265738,57.51181631,62.34321655,57.51181631,54.3265738,58.10858044,0,0,0,0,60,60,60,60,60,3.16227766,6.32455532,8.366600265,10
,,,,,,,,,,,,,,,,,,,,,,,,,,,
10,1,0.3535474,q,55.9,Limited Time,i,55.93215691,73.11824831,41.1402694,54.13431184,54.13431184,41.1402694,73.11824831,55.93215691,-10,-10,10,10,60,50,50,70,70,3.16227766,10,3.16227766,10
,,,,,,,,,,,,,,,,,,,,,,,,,,,
10,2,0.2198214,w,72.3,Limited Time,i,69.49626113,72.33617394,52.08616823,49.32533907,49.32533907,52.08616823,72.33617394,69.49626113,-10,-10,10,10,60,50,50,70,70,3.16227766,10,3.16227766,10
,,,,,,,,,,,,,,,,,,,,,,,,,,,
10,3,0.3005731,p,52.8,Limited Time,i,82.47906428,69.66619589,39.18780484,52.78826404,52.78826404,39.18780484,69.66619589,82.47906428,-10,-10,10,10,60,50,50,70,70,3.16227766,10,3.16227766,10
,,,,,,,,,,,,,,,,,,,,,,,,,,,
10,4,0.2367506,w,71.3,Limited Time,i,62.94976179,71.3186076,39.74099831,53.96541794,53.96541794,39.74099831,71.3186076,62.94976179,-10,-10,10,10,60,50,50,70,70,3.16227766,10,3.16227766,10
,,,,,,,,,,,,,,,,,,,,,,,,,,,
10,5,0.2830044,p,50.2,Limited Time,i,48.93111825,70.23524857,47.73209913,50.23328738,50.23328738,47.73209913,70.23524857,48.93111825,-10,-10,10,10,60,50,50,70,70,3.16227766,10,3.16227766,10
,,,,,,,,,,,,,,,,,,,,,,,,,,,
10,6,0.3552282,o,51.4,Limited Time,i,51.83962789,68.26509089,51.44982545,48.11337208,48.11337208,51.44982545,68.26509089,51.83962789,-10,-10,10,10,60,50,50,70,70,3.16227766,10,3.16227766,10
,,,,,,,,,,,,,,,,,,,,,,,,,,,
10,7,0.1262402,o,40.3,Limited Time,i,69.24931459,67.69299068,40.34319173,48.8867219,48.8867219,40.34319173,67.69299068,69.24931459,-10,-10,10,10,60,50,50,70,70,3.16227766,10,3.16227766,10
,,,,,,,,,,,,,,,,,,,,,,,,,,,
10,8,0.1890815,q,63,Limited Time,i,62.96780837,69.4258327,56.40171143,45.80985713,45.80985713,56.40171143,69.4258327,62.96780837,-10,-10,10,10,60,50,50,70,70,3.16227766,10,3.16227766,10
,,,,,,,,,,,,,,,,,,,,,,,,,,,
10,9,0.1227259,o,51.4,Limited Time,i,71.30272828,62.44602013,51.43494162,51.694938,51.694938,51.43494162,62.44602013,71.30272828,-10,-10,10,10,60,50,50,70,70,3.16227766,10,3.16227766,10
,,,,,,,,,,,,,,,,,,,,,,,,,,,
10,10,0.2919037,q,68.2,Limited Time,i,68.16894726,74.92703376,60.90485343,46.94981797,46.94981797,60.90485343,74.92703376,68.16894726,-10,-10,10,10,60,50,50,70,70,3.16227766,10,3.16227766,10
,,,,,,,,,,,,,,,,,,,,,,,,,,,
10,11,0.0076695,o,58.2,Limited Time,i,72.82253992,67.51659405,58.20753913,53.86010723,53.86010723,58.20753913,67.51659405,72.82253992,-10,-10,10,10,60,50,50,70,70,3.16227766,10,3.16227766,10
,,,,,,,,,,,,,,,,,,,,,,,,,,,
10,12,0.291694,w,69.3,Limited Time,i,68.5014362,69.27342004,61.17984062,49.83954345,49.83954345,61.17984062,69.27342004,68.5014362,-10,-10,10,10,60,50,50,70,70,3.16227766,10,3.16227766,10
,,,,,,,,,,,,,,,,,,,,,,,,,,,
10,13,0.3353798,o,55.7,Limited Time,i,81.25503345,68.70846428,55.68087665,51.7778563,51.7778563,55.68087665,68.70846428,81.25503345,-10,-10,10,10,60,50,50,70,70,3.16227766,10,3.16227766,10
,,,,,,,,,,,,,,,,,,,,,,,,,,,
10,14,0.3131895,o,44.3,Limited Time,i,70.15666514,72.65768454,44.27034497,51.3643136,51.3643136,44.27034497,72.65768454,70.15666514,-10,-10,10,10,60,50,50,70,70,3.16227766,10,3.16227766,10
,,,,,,,,,,,,,,,,,,,,,,,,,,,
10,15,0.0412479,q,75.4,Limited Time,i,75.38172479,69.35449564,53.03205808,47.71129772,47.71129772,53.03205808,69.35449564,75.38172479,-10,-10,10,10,60,50,50,70,70,3.16227766,10,3.16227766,10
,,,,,,,,,,,,,,,,,,,,,,,,,,,
10,16,,,0,Limited Time,i,62.73944826,69.3900266,58.05717084,43.82112952,43.82112952,58.05717084,69.3900266,62.73944826,-10,-10,10,10,60,50,50,70,70,3.16227766,10,3.16227766,10
,,,,,,,,,,,,,,,,,,,,,,,,,,,
10,17,0.3203929,o,42.3,Limited Time,i,68.63136913,71.05283562,42.34696514,45.06943319,45.06943319,42.34696514,71.05283562,68.63136913,-10,-10,10,10,60,50,50,70,70,3.16227766,10,3.16227766,10
,,,,,,,,,,,,,,,,,,,,,,,,,,,
10,18,0.1508174,q,63.2,Limited Time,i,63.22452306,65.09392429,59.20640357,48.16628098,48.16628098,59.20640357,65.09392429,63.22452306,-10,-10,10,10,60,50,50,70,70,3.16227766,10,3.16227766,10
,,,,,,,,,,,,,,,,,,,,,,,,,,,
10,19,0.2708185,o,33.2,Limited Time,i,67.17307619,66.157298,33.16923791,50.60393654,50.60393654,33.16923791,66.157298,67.17307619,-10,-10,10,10,60,50,50,70,70,3.16227766,10,3.16227766,10
,,,,,,,,,,,,,,,,,,,,,,,,,,,
10,20,0.2673217,q,59.3,Limited Time,i,59.3458731,73.88666098,67.07665543,46.21848372,46.21848372,67.07665543,73.88666098,59.3458731,-10,-10,10,10,60,50,50,70,70,3.16227766,10,3.16227766,10
,,,,,,,,,,,,,,,,,,,,,,,,,,,
11,1,0.8640604,o,60.8,Unlimited Time,l,44.37355858,59.5517338,60.812708,66.04003074,44.37355858,59.5517338,60.812708,66.04003074,-10,-0.33,0.33,10,60,50,59.67,60.33,70,3.16227766,3.16227766,3.16227766,3.16227766
,,,,,,,,,,,,,,,,,,,,,,,,,,,
11,2,0.7504524,w,61.5,Unlimited Time,l,53.93929217,61.48938073,61.67403675,72.41695049,53.93929217,61.48938073,61.67403675,72.41695049,-10,-0.33,0.33,10,60,50,59.67,60.33,70,3.16227766,3.16227766,3.16227766,3.16227766
,,,,,,,,,,,,,,,,,,,,,,,,,,,
11,3,0.7829358,q,54.8,Unlimited Time,l,54.78072079,54.62202854,58.26232858,74.9754734,54.78072079,54.62202854,58.26232858,74.9754734,-10,-0.33,0.33,10,60,50,59.67,60.33,70,3.16227766,3.16227766,3.16227766,3.16227766
,,,,,,,,,,,,,,,,,,,,,,,,,,,
11,4,0.6391413,p,72.9,Unlimited Time,l,48.82025909,59.21193052,60.49307854,72.92770813,48.82025909,59.21193052,60.49307854,72.92770813,-10,-0.33,0.33,10,60,50,59.67,60.33,70,3.16227766,3.16227766,3.16227766,3.16227766
,,,,,,,,,,,,,,,,,,,,,,,,,,,
11,5,0.7551795,w,62.5,Unlimited Time,l,51.02895154,62.53567462,63.77453073,70.98497359,51.02895154,62.53567462,63.77453073,70.98497359,-10,-0.33,0.33,10,60,50,59.67,60.33,70,3.16227766,3.16227766,3.16227766,3.16227766
,,,,,,,,,,,,,,,,,,,,,,,,,,,
11,6,0.6000424,o,57.6,Unlimited Time,l,50.34271359,61.93446256,57.62630565,66.60433832,50.34271359,61.93446256,57.62630565,66.60433832,-10,-0.33,0.33,10,60,50,59.67,60.33,70,3.16227766,3.16227766,3.16227766,3.16227766
,,,,,,,,,,,,,,,,,,,,,,,,,,,
11,7,0.5367203,p,70.3,Unlimited Time,l,48.83292495,62.6245725,61.73817778,70.2707041,48.83292495,62.6245725,61.73817778,70.2707041,-10,-0.33,0.33,10,60,50,59.67,60.33,70,3.16227766,3.16227766,3.16227766,3.16227766
,,,,,,,,,,,,,,,,,,,,,,,,,,,
11,8,0.4752541,q,50.2,Unlimited Time,l,50.21699009,61.40749799,64.79799714,71.60742328,50.21699009,61.40749799,64.79799714,71.60742328,-10,-0.33,0.33,10,60,50,59.67,60.33,70,3.16227766,3.16227766,3.16227766,3.16227766
,,,,,,,,,,,,,,,,,,,,,,,,,,,
11,9,0.642266,p,67.1,Unlimited Time,l,50.71928426,60.49370205,58.74714249,67.05420446,50.71928426,60.49370205,58.74714249,67.05420446,-10,-0.33,0.33,10,60,50,59.67,60.33,70,3.16227766,3.16227766,3.16227766,3.16227766
,,,,,,,,,,,,,,,,,,,,,,,,,,,
11,10,0.4566993,w,59.5,Unlimited Time,l,49.12182864,59.49635822,62.91129273,73.47259868,49.12182864,59.49635822,62.91129273,73.47259868,-10,-0.33,0.33,10,60,50,59.67,60.33,70,3.16227766,3.16227766,3.16227766,3.16227766
,,,,,,,,,,,,,,,,,,,,,,,,,,,
11,11,0.5082482,o,59.7,Unlimited Time,l,47.0322507,69.62940274,59.69318229,69.46150666,47.0322507,69.62940274,59.69318229,69.46150666,-10,-0.33,0.33,10,60,50,59.67,60.33,70,3.16227766,3.16227766,3.16227766,3.16227766
,,,,,,,,,,,,,,,,,,,,,,,,,,,
11,12,0.5310633,p,77.9,Unlimited Time,l,59.36333325,63.57895596,61.58928757,77.88904656,59.36333325,63.57895596,61.58928757,77.88904656,-10,-0.33,0.33,10,60,50,59.67,60.33,70,3.16227766,3.16227766,3.16227766,3.16227766
,,,,,,,,,,,,,,,,,,,,,,,,,,,
11,13,0.4778232,q,53.2,Unlimited Time,l,53.1664031,58.72442445,59.74861627,71.03671448,53.1664031,58.72442445,59.74861627,71.03671448,-10,-0.33,0.33,10,60,50,59.67,60.33,70,3.16227766,3.16227766,3.16227766,3.16227766
,,,,,,,,,,,,,,,,,,,,,,,,,,,
11,14,0.5032769,o,66.5,Unlimited Time,l,52.70295282,63.55806674,66.53312332,70.45462018,52.70295282,63.55806674,66.53312332,70.45462018,-10,-0.33,0.33,10,60,50,59.67,60.33,70,3.16227766,3.16227766,3.16227766,3.16227766
,,,,,,,,,,,,,,,,,,,,,,,,,,,
11,15,0.3960658,p,72.7,Unlimited Time,l,42.67255416,61.82091589,62.09105243,72.68275385,42.67255416,61.82091589,62.09105243,72.68275385,-10,-0.33,0.33,10,60,50,59.67,60.33,70,3.16227766,3.16227766,3.16227766,3.16227766
,,,,,,,,,,,,,,,,,,,,,,,,,,,
11,16,0.4441563,q,53.1,Unlimited Time,l,53.13945223,66.76083872,53.52465788,69.17029359,53.13945223,66.76083872,53.52465788,69.17029359,-10,-0.33,0.33,10,60,50,59.67,60.33,70,3.16227766,3.16227766,3.16227766,3.16227766
,,,,,,,,,,,,,,,,,,,,,,,,,,,
11,17,0.4391171,o,64,Unlimited Time,l,56.09656762,59.19371648,64.03864434,64.42565762,56.09656762,59.19371648,64.03864434,64.42565762,-10,-0.33,0.33,10,60,50,59.67,60.33,70,3.16227766,3.16227766,3.16227766,3.16227766
,,,,,,,,,,,,,,,,,,,,,,,,,,,
11,18,0.3487501,w,58.7,Unlimited Time,l,47.42858077,58.72199758,57.6680639,67.72989407,47.42858077,58.72199758,57.6680639,67.72989407,-10,-0.33,0.33,10,60,50,59.67,60.33,70,3.16227766,3.16227766,3.16227766,3.16227766
,,,,,,,,,,,,,,,,,,,,,,,,,,,
11,19,0.369979,p,65.4,Unlimited Time,l,52.9901288,64.28339405,56.75703731,65.36344901,52.9901288,64.28339405,56.75703731,65.36344901,-10,-0.33,0.33,10,60,50,59.67,60.33,70,3.16227766,3.16227766,3.16227766,3.16227766
,,,,,,,,,,,,,,,,,,,,,,,,,,,
11,20,0.4856616,q,48.6,Unlimited Time,l,48.59439913,63.30953343,60.14465202,71.95991175,48.59439913,63.30953343,60.14465202,71.95991175,-10,-0.33,0.33,10,60,50,59.67,60.33,70,3.16227766,3.16227766,3.16227766,3.16227766
,,,,,,,,,,,,,,,,,,,,,,,,,,,
12,1,0.3273766,p,60.8,Limited Time,l,66.04003074,59.5517338,44.37355858,60.812708,44.37355858,59.5517338,60.812708,66.04003074,-10,-0.33,0.33,10,60,50,59.67,60.33,70,3.16227766,3.16227766,3.16227766,3.16227766
,,,,,,,,,,,,,,,,,,,,,,,,,,,
12,2,0.0317541,q,72.4,Limited Time,l,72.41695049,61.48938073,53.93929217,61.67403675,53.93929217,61.48938073,61.67403675,72.41695049,-10,-0.33,0.33,10,60,50,59.67,60.33,70,3.16227766,3.16227766,3.16227766,3.16227766
,,,,,,,,,,,,,,,,,,,,,,,,,,,
12,3,0.0042951,o,54.8,Limited Time,l,74.9754734,54.62202854,54.78072079,58.26232858,54.78072079,54.62202854,58.26232858,74.9754734,-10,-0.33,0.33,10,60,50,59.67,60.33,70,3.16227766,3.16227766,3.16227766,3.16227766
,,,,,,,,,,,,,,,,,,,,,,,,,,,
12,4,0.3455443,p,60.5,Limited Time,l,72.92770813,59.21193052,48.82025909,60.49307854,48.82025909,59.21193052,60.49307854,72.92770813,-10,-0.33,0.33,10,60,50,59.67,60.33,70,3.16227766,3.16227766,3.16227766,3.16227766
,,,,,,,,,,,,,,,,,,,,,,,,,,,
12,5,,,0,Limited Time,l,70.98497359,62.53567462,51.02895154,63.77453073,51.02895154,62.53567462,63.77453073,70.98497359,-10,-0.33,0.33,10,60,50,59.67,60.33,70,3.16227766,3.16227766,3.16227766,3.16227766
,,,,,,,,,,,,,,,,,,,,,,,,,,,
12,6,0.3150755,q,66.6,Limited Time,l,66.60433832,61.93446256,50.34271359,57.62630565,50.34271359,61.93446256,57.62630565,66.60433832,-10,-0.33,0.33,10,60,50,59.67,60.33,70,3.16227766,3.16227766,3.16227766,3.16227766
,,,,,,,,,,,,,,,,,,,,,,,,,,,
12,7,0.3293813,p,61.7,Limited Time,l,70.2707041,62.6245725,48.83292495,61.73817778,48.83292495,62.6245725,61.73817778,70.2707041,-10,-0.33,0.33,10,60,50,59.67,60.33,70,3.16227766,3.16227766,3.16227766,3.16227766
,,,,,,,,,,,,,,,,,,,,,,,,,,,
12,8,0.058477,w,61.4,Limited Time,l,71.60742328,61.40749799,50.21699009,64.79799714,50.21699009,61.40749799,64.79799714,71.60742328,-10,-0.33,0.33,10,60,50,59.67,60.33,70,3.16227766,3.16227766,3.16227766,3.16227766
,,,,,,,,,,,,,,,,,,,,,,,,,,,
12,9,0.036517,o,50.7,Limited Time,l,67.05420446,60.49370205,50.71928426,58.74714249,50.71928426,60.49370205,58.74714249,67.05420446,-10,-0.33,0.33,10,60,50,59.67,60.33,70,3.16227766,3.16227766,3.16227766,3.16227766
,,,,,,,,,,,,,,,,,,,,,,,,,,,
12,10,0.1572498,q,73.5,Limited Time,l,73.47259868,59.49635822,49.12182864,62.91129273,49.12182864,59.49635822,62.91129273,73.47259868,-10,-0.33,0.33,10,60,50,59.67,60.33,70,3.16227766,3.16227766,3.16227766,3.16227766
,,,,,,,,,,,,,,,,,,,,,,,,,,,
12,11,0.287918,w,69.6,Limited Time,l,69.46150666,69.62940274,47.0322507,59.69318229,47.0322507,69.62940274,59.69318229,69.46150666,-10,-0.33,0.33,10,60,50,59.67,60.33,70,3.16227766,3.16227766,3.16227766,3.16227766
,,,,,,,,,,,,,,,,,,,,,,,,,,,
12,12,0.3035535,w,63.6,Limited Time,l,77.88904656,63.57895596,59.36333325,61.58928757,59.36333325,63.57895596,61.58928757,77.88904656,-10,-0.33,0.33,10,60,50,59.67,60.33,70,3.16227766,3.16227766,3.16227766,3.16227766
,,,,,,,,,,,,,,,,,,,,,,,,,,,
12,13,0.2345651,p,59.7,Limited Time,l,71.03671448,58.72442445,53.1664031,59.74861627,53.1664031,58.72442445,59.74861627,71.03671448,-10,-0.33,0.33,10,60,50,59.67,60.33,70,3.16227766,3.16227766,3.16227766,3.16227766
,,,,,,,,,,,,,,,,,,,,,,,,,,,
12,14,0.1806402,o,52.7,Limited Time,l,70.45462018,63.55806674,52.70295282,66.53312332,52.70295282,63.55806674,66.53312332,70.45462018,-10,-0.33,0.33,10,60,50,59.67,60.33,70,3.16227766,3.16227766,3.16227766,3.16227766
,,,,,,,,,,,,,,,,,,,,,,,,,,,
12,15,0.1466827,q,72.7,Limited Time,l,72.68275385,61.82091589,42.67255416,62.09105243,42.67255416,61.82091589,62.09105243,72.68275385,-10,-0.33,0.33,10,60,50,59.67,60.33,70,3.16227766,3.16227766,3.16227766,3.16227766
,,,,,,,,,,,,,,,,,,,,,,,,,,,
12,16,0.0758005,p,53.5,Limited Time,l,69.17029359,66.76083872,53.13945223,53.52465788,53.13945223,66.76083872,53.52465788,69.17029359,-10,-0.33,0.33,10,60,50,59.67,60.33,70,3.16227766,3.16227766,3.16227766,3.16227766
,,,,,,,,,,,,,,,,,,,,,,,,,,,
12,17,0.0152454,p,64,Limited Time,l,64.42565762,59.19371648,56.09656762,64.03864434,56.09656762,59.19371648,64.03864434,64.42565762,-10,-0.33,0.33,10,60,50,59.67,60.33,70,3.16227766,3.16227766,3.16227766,3.16227766
,,,,,,,,,,,,,,,,,,,,,,,,,,,
12,18,0.2636521,o,47.4,Limited Time,l,67.72989407,58.72199758,47.42858077,57.6680639,47.42858077,58.72199758,57.6680639,67.72989407,-10,-0.33,0.33,10,60,50,59.67,60.33,70,3.16227766,3.16227766,3.16227766,3.16227766
,,,,,,,,,,,,,,,,,,,,,,,,,,,
12,19,0.165174,q,65.4,Limited Time,l,65.36344901,64.28339405,52.9901288,56.75703731,52.9901288,64.28339405,56.75703731,65.36344901,-10,-0.33,0.33,10,60,50,59.67,60.33,70,3.16227766,3.16227766,3.16227766,3.16227766
,,,,,,,,,,,,,,,,,,,,,,,,,,,
12,20,0.2483433,p,60.1,Limited Time,l,71.95991175,63.30953343,48.59439913,60.14465202,48.59439913,63.30953343,60.14465202,71.95991175,-10,-0.33,0.33,10,60,50,59.67,60.33,70,3.16227766,3.16227766,3.16227766,3.16227766
,,,,,,,,,,,,,,,,,,,,,,,,,,,
13,1,0.2391535,p,44.4,Unlimited Time,l,60.812708,66.04003074,59.5517338,44.37355858,44.37355858,59.5517338,60.812708,66.04003074,-10,-0.33,0.33,10,60,50,59.67,60.33,70,3.16227766,3.16227766,3.16227766,3.16227766
,,,,,,,,,,,,,,,,,,,,,,,,,,,
13,2,0.0603118,o,61.5,Unlimited Time,l,61.67403675,72.41695049,61.48938073,53.93929217,53.93929217,61.48938073,61.67403675,72.41695049,-10,-0.33,0.33,10,60,50,59.67,60.33,70,3.16227766,3.16227766,3.16227766,3.16227766
,,,,,,,,,,,,,,,,,,,,,,,,,,,
13,3,0.1180043,w,75,Unlimited Time,l,58.26232858,74.9754734,54.62202854,54.78072079,54.78072079,54.62202854,58.26232858,74.9754734,-10,-0.33,0.33,10,60,50,59.67,60.33,70,3.16227766,3.16227766,3.16227766,3.16227766
,,,,,,,,,,,,,,,,,,,,,,,,,,,
13,4,0.0386697,p,48.8,Unlimited Time,l,60.49307854,72.92770813,59.21193052,48.82025909,48.82025909,59.21193052,60.49307854,72.92770813,-10,-0.33,0.33,10,60,50,59.67,60.33,70,3.16227766,3.16227766,3.16227766,3.16227766
,,,,,,,,,,,,,,,,,,,,,,,,,,,
13,5,0.1460928,q,63.8,Unlimited Time,l,63.77453073,70.98497359,62.53567462,51.02895154,51.02895154,62.53567462,63.77453073,70.98497359,-10,-0.33,0.33,10,60,50,59.67,60.33,70,3.16227766,3.16227766,3.16227766,3.16227766
,,,,,,,,,,,,,,,,,,,,,,,,,,,
13,6,0.1749868,p,50.3,Unlimited Time,l,57.62630565,66.60433832,61.93446256,50.34271359,50.34271359,61.93446256,57.62630565,66.60433832,-10,-0.33,0.33,10,60,50,59.67,60.33,70,3.16227766,3.16227766,3.16227766,3.16227766
,,,,,,,,,,,,,,,,,,,,,,,,,,,
13,7,0.0375936,q,61.7,Unlimited Time,l,61.73817778,70.2707041,62.6245725,48.83292495,48.83292495,62.6245725,61.73817778,70.2707041,-10,-0.33,0.33,10,60,50,59.67,60.33,70,3.16227766,3.16227766,3.16227766,3.16227766
,,,,,,,,,,,,,,,,,,,,,,,,,,,
13,8,0.0489773,p,50.2,Unlimited Time,l,64.79799714,71.60742328,61.40749799,50.21699009,50.21699009,61.40749799,64.79799714,71.60742328,-10,-0.33,0.33,10,60,50,59.67,60.33,70,3.16227766,3.16227766,3.16227766,3.16227766
,,,,,,,,,,,,,,,,,,,,,,,,,,,
13,9,0.19046,o,60.5,Unlimited Time,l,58.74714249,67.05420446,60.49370205,50.71928426,50.71928426,60.49370205,58.74714249,67.05420446,-10,-0.33,0.33,10,60,50,59.67,60.33,70,3.16227766,3.16227766,3.16227766,3.16227766
,,,,,,,,,,,,,,,,,,,,,,,,,,,
13,10,0.2085812,w,73.5,Unlimited Time,l,62.91129273,73.47259868,59.49635822,49.12182864,49.12182864,59.49635822,62.91129273,73.47259868,-10,-0.33,0.33,10,60,50,59.67,60.33,70,3.16227766,3.16227766,3.16227766,3.16227766
,,,,,,,,,,,,,,,,,,,,,,,,,,,
13,11,0.154852,q,59.7,Unlimited Time,l,59.69318229,69.46150666,69.62940274,47.0322507,47.0322507,69.62940274,59.69318229,69.46150666,-10,-0.33,0.33,10,60,50,59.67,60.33,70,3.16227766,3.16227766,3.16227766,3.16227766
,,,,,,,,,,,,,,,,,,,,,,,,,,,
13,12,0.0684535,p,59.4,Unlimited Time,l,61.58928757,77.88904656,63.57895596,59.36333325,59.36333325,63.57895596,61.58928757,77.88904656,-10,-0.33,0.33,10,60,50,59.67,60.33,70,3.16227766,3.16227766,3.16227766,3.16227766
,,,,,,,,,,,,,,,,,,,,,,,,,,,
13,13,0.0382353,w,71,Unlimited Time,l,59.74861627,71.03671448,58.72442445,53.1664031,53.1664031,58.72442445,59.74861627,71.03671448,-10,-0.33,0.33,10,60,50,59.67,60.33,70,3.16227766,3.16227766,3.16227766,3.16227766
,,,,,,,,,,,,,,,,,,,,,,,,,,,
13,14,0.175003,w,70.5,Unlimited Time,l,66.53312332,70.45462018,63.55806674,52.70295282,52.70295282,63.55806674,66.53312332,70.45462018,-10,-0.33,0.33,10,60,50,59.67,60.33,70,3.16227766,3.16227766,3.16227766,3.16227766
,,,,,,,,,,,,,,,,,,,,,,,,,,,
13,15,0.0871987,p,42.7,Unlimited Time,l,62.09105243,72.68275385,61.82091589,42.67255416,42.67255416,61.82091589,62.09105243,72.68275385,-10,-0.33,0.33,10,60,50,59.67,60.33,70,3.16227766,3.16227766,3.16227766,3.16227766
,,,,,,,,,,,,,,,,,,,,,,,,,,,
13,16,0.1585907,p,53.1,Unlimited Time,l,53.52465788,69.17029359,66.76083872,53.13945223,53.13945223,66.76083872,53.52465788,69.17029359,-10,-0.33,0.33,10,60,50,59.67,60.33,70,3.16227766,3.16227766,3.16227766,3.16227766
,,,,,,,,,,,,,,,,,,,,,,,,,,,
13,17,0.1942328,o,59.2,Unlimited Time,l,64.03864434,64.42565762,59.19371648,56.09656762,56.09656762,59.19371648,64.03864434,64.42565762,-10,-0.33,0.33,10,60,50,59.67,60.33,70,3.16227766,3.16227766,3.16227766,3.16227766
,,,,,,,,,,,,,,,,,,,,,,,,,,,
13,18,0.0710968,o,58.7,Unlimited Time,l,57.6680639,67.72989407,58.72199758,47.42858077,47.42858077,58.72199758,57.6680639,67.72989407,-10,-0.33,0.33,10,60,50,59.67,60.33,70,3.16227766,3.16227766,3.16227766,3.16227766
,,,,,,,,,,,,,,,,,,,,,,,,,,,
13,19,0.2142191,q,56.8,Unlimited Time,l,56.75703731,65.36344901,64.28339405,52.9901288,52.9901288,64.28339405,56.75703731,65.36344901,-10,-0.33,0.33,10,60,50,59.67,60.33,70,3.16227766,3.16227766,3.16227766,3.16227766
,,,,,,,,,,,,,,,,,,,,,,,,,,,
13,20,0.1365465,p,48.6,Unlimited Time,l,60.14465202,71.95991175,63.30953343,48.59439913,48.59439913,63.30953343,60.14465202,71.95991175,-10,-0.33,0.33,10,60,50,59.67,60.33,70,3.16227766,3.16227766,3.16227766,3.16227766
,,,,,,,,,,,,,,,,,,,,,,,,,,,
14,1,,,0,Limited Time,h,55.89907285,69.16104129,53.54488336,62.22299463,69.16104129,53.54488336,55.89907285,62.22299463,-10,-0.33,0.33,10,60,50,59.67,60.33,70,10,10,10,10
,,,,,,,,,,,,,,,,,,,,,,,,,,,
14,2,0.3168677,o,58.2,Limited Time,h,63.80026787,58.70007318,58.15819567,77.09937378,58.70007318,58.15819567,63.80026787,77.09937378,-10,-0.33,0.33,10,60,50,59.67,60.33,70,10,10,10,10
,,,,,,,,,,,,,,,,,,,,,,,,,,,
14,3,0.1534478,o,57.3,Limited Time,h,82.96793313,43.68501436,57.3215493,63.86154026,43.68501436,57.3215493,82.96793313,63.86154026,-10,-0.33,0.33,10,60,50,59.67,60.33,70,10,10,10,10
,,,,,,,,,,,,,,,,,,,,,,,,,,,
14,4,0.3370647,o,55.9,Limited Time,h,67.34549527,44.50605445,55.85935148,72.82659931,44.50605445,55.85935148,67.34549527,72.82659931,-10,-0.33,0.33,10,60,50,59.67,60.33,70,10,10,10,10
,,,,,,,,,,,,,,,,,,,,,,,,,,,
14,5,0.3624339,q,69.4,Limited Time,h,69.38532582,36.14426614,57.87269688,70.29954999,36.14426614,57.87269688,69.38532582,70.29954999,-10,-0.33,0.33,10,60,50,59.67,60.33,70,10,10,10,10
,,,,,,,,,,,,,,,,,,,,,,,,,,,
14,6,,,0,Limited Time,h,66.9383914,60.35893862,71.56878329,60.30364571,60.35893862,71.56878329,66.9383914,60.30364571,-10,-0.33,0.33,10,60,50,59.67,60.33,70,10,10,10,10
,,,,,,,,,,,,,,,,,,,,,,,,,,,
14,7,0.0130415,o,85.5,Limited Time,h,49.1484737,47.05543027,85.4837075,60.38429749,47.05543027,85.4837075,49.1484737,60.38429749,-10,-0.33,0.33,10,60,50,59.67,60.33,70,10,10,10,10
,,,,,,,,,,,,,,,,,,,,,,,,,,,
14,8,0.0142889,o,47.9,Limited Time,h,71.50619106,44.0494263,47.86522544,59.19480531,44.0494263,47.86522544,71.50619106,59.19480531,-10,-0.33,0.33,10,60,50,59.67,60.33,70,10,10,10,10
,,,,,,,,,,,,,,,,,,,,,,,,,,,
14,9,0.3443146,p,75.1,Limited Time,h,58.32185848,50.38391323,61.45231055,75.14933209,50.38391323,61.45231055,58.32185848,75.14933209,-10,-0.33,0.33,10,60,50,59.67,60.33,70,10,10,10,10
,,,,,,,,,,,,,,,,,,,,,,,,,,,
14,10,0.2260434,w,57.1,Limited Time,h,45.43159578,57.14187403,69.33974413,76.621155,57.14187403,69.33974413,45.43159578,76.621155,-10,-0.33,0.33,10,60,50,59.67,60.33,70,10,10,10,10
,,,,,,,,,,,,,,,,,,,,,,,,,,,
14,11,0.0147107,o,47.7,Limited Time,h,71.54207254,48.95754504,47.71793635,52.57928746,48.95754504,47.71793635,71.54207254,52.57928746,-10,-0.33,0.33,10,60,50,59.67,60.33,70,10,10,10,10
,,,,,,,,,,,,,,,,,,,,,,,,,,,
14,12,0.1469583,p,79.4,Limited Time,h,52.13947532,43.15349939,41.38592545,79.40739547,43.15349939,41.38592545,52.13947532,79.40739547,-10,-0.33,0.33,10,60,50,59.67,60.33,70,10,10,10,10
,,,,,,,,,,,,,,,,,,,,,,,,,,,
14,13,,,0,Limited Time,h,51.21975721,79.22476529,58.76593226,61.02438183,79.22476529,58.76593226,51.21975721,61.02438183,-10,-0.33,0.33,10,60,50,59.67,60.33,70,10,10,10,10
,,,,,,,,,,,,,,,,,,,,,,,,,,,
14,14,0.0260206,p,86.8,Limited Time,h,42.42595329,47.69881198,61.89686701,86.76848071,47.69881198,61.89686701,42.42595329,86.76848071,-10,-0.33,0.33,10,60,50,59.67,60.33,70,10,10,10,10
,,,,,,,,,,,,,,,,,,,,,,,,,,,
14,15,0.1580992,o,43.9,Limited Time,h,74.31742676,52.76220914,43.93647061,74.09691736,52.76220914,43.93647061,74.31742676,74.09691736,-10,-0.33,0.33,10,60,50,59.67,60.33,70,10,10,10,10
,,,,,,,,,,,,,,,,,,,,,,,,,,,
14,16,0.1718342,q,78.8,Limited Time,h,78.83515153,59.54917914,62.03289231,68.81472906,59.54917914,62.03289231,78.83515153,68.81472906,-10,-0.33,0.33,10,60,50,59.67,60.33,70,10,10,10,10
,,,,,,,,,,,,,,,,,,,,,,,,,,,
14,17,0.166983,w,57.5,Limited Time,h,62.66421878,57.50671016,46.03651912,62.86430361,57.50671016,46.03651912,62.66421878,62.86430361,-10,-0.33,0.33,10,60,50,59.67,60.33,70,10,10,10,10
,,,,,,,,,,,,,,,,,,,,,,,,,,,
14,18,0.1824498,q,75.6,Limited Time,h,75.62874461,28.80008665,72.32621326,59.89429073,28.80008665,72.32621326,75.62874461,59.89429073,-10,-0.33,0.33,10,60,50,59.67,60.33,70,10,10,10,10
,,,,,,,,,,,,,,,,,,,,,,,,,,,
14,19,0.0615701,p,70,Limited Time,h,45.14958741,61.91972363,59.07994346,70.02576488,61.91972363,59.07994346,45.14958741,70.02576488,-10,-0.33,0.33,10,60,50,59.67,60.33,70,10,10,10,10
,,,,,,,,,,,,,,,,,,,,,,,,,,,
14,20,0.0285764,q,68.2,Limited Time,h,68.20081313,44.28561728,62.90250124,52.29241783,44.28561728,62.90250124,68.20081313,52.29241783,-10,-0.33,0.33,10,60,50,59.67,60.33,70,10,10,10,10
,,,,,,,,,,,,,,,,,,,,,,,,,,,
15,1,0.7784734,o,69.2,Unlimited Time,h,55.89907285,62.22299463,69.16104129,53.54488336,69.16104129,53.54488336,55.89907285,62.22299463,-10,-0.33,0.33,10,60,50,59.67,60.33,70,10,10,10,10
,,,,,,,,,,,,,,,,,,,,,,,,,,,
15,2,0.0795582,w,77.1,Unlimited Time,h,63.80026787,77.09937378,58.70007318,58.15819567,58.70007318,58.15819567,63.80026787,77.09937378,-10,-0.33,0.33,10,60,50,59.67,60.33,70,10,10,10,10
,,,,,,,,,,,,,,,,,,,,,,,,,,,
15,3,0.2484038,p,57.3,Unlimited Time,h,82.96793313,63.86154026,43.68501436,57.3215493,43.68501436,57.3215493,82.96793313,63.86154026,-10,-0.33,0.33,10,60,50,59.67,60.33,70,10,10,10,10
,,,,,,,,,,,,,,,,,,,,,,,,,,,
15,4,0.3007643,q,67.3,Unlimited Time,h,67.34549527,72.82659931,44.50605445,55.85935148,44.50605445,55.85935148,67.34549527,72.82659931,-10,-0.33,0.33,10,60,50,59.67,60.33,70,10,10,10,10
,,,,,,,,,,,,,,,,,,,,,,,,,,,
15,5,0.3276937,o,36.1,Unlimited Time,h,69.38532582,70.29954999,36.14426614,57.87269688,36.14426614,57.87269688,69.38532582,70.29954999,-10,-0.33,0.33,10,60,50,59.67,60.33,70,10,10,10,10
,,,,,,,,,,,,,,,,,,,,,,,,,,,
15,6,0.2579278,p,71.6,Unlimited Time,h,66.9383914,60.30364571,60.35893862,71.56878329,60.35893862,71.56878329,66.9383914,60.30364571,-10,-0.33,0.33,10,60,50,59.67,60.33,70,10,10,10,10
,,,,,,,,,,,,,,,,,,,,,,,,,,,
15,7,0.2010101,w,60.4,Unlimited Time,h,49.1484737,60.38429749,47.05543027,85.4837075,47.05543027,85.4837075,49.1484737,60.38429749,-10,-0.33,0.33,10,60,50,59.67,60.33,70,10,10,10,10
,,,,,,,,,,,,,,,,,,,,,,,,,,,
15,8,0.2111985,q,71.5,Unlimited Time,h,71.50619106,59.19480531,44.0494263,47.86522544,44.0494263,47.86522544,71.50619106,59.19480531,-10,-0.33,0.33,10,60,50,59.67,60.33,70,10,10,10,10
,,,,,,,,,,,,,,,,,,,,,,,,,,,
15,9,0.169787,p,61.5,Unlimited Time,h,58.32185848,75.14933209,50.38391323,61.45231055,50.38391323,61.45231055,58.32185848,75.14933209,-10,-0.33,0.33,10,60,50,59.67,60.33,70,10,10,10,10
,,,,,,,,,,,,,,,,,,,,,,,,,,,
15,10,0.2421441,o,57.1,Unlimited Time,h,45.43159578,76.621155,57.14187403,69.33974413,57.14187403,69.33974413,45.43159578,76.621155,-10,-0.33,0.33,10,60,50,59.67,60.33,70,10,10,10,10
,,,,,,,,,,,,,,,,,,,,,,,,,,,
15,11,0.1055542,w,52.6,Unlimited Time,h,71.54207254,52.57928746,48.95754504,47.71793635,48.95754504,47.71793635,71.54207254,52.57928746,-10,-0.33,0.33,10,60,50,59.67,60.33,70,10,10,10,10
,,,,,,,,,,,,,,,,,,,,,,,,,,,
15,12,0.1314846,q,52.1,Unlimited Time,h,52.13947532,79.40739547,43.15349939,41.38592545,43.15349939,41.38592545,52.13947532,79.40739547,-10,-0.33,0.33,10,60,50,59.67,60.33,70,10,10,10,10
,,,,,,,,,,,,,,,,,,,,,,,,,,,
15,13,0.15921,p,58.8,Unlimited Time,h,51.21975721,61.02438183,79.22476529,58.76593226,79.22476529,58.76593226,51.21975721,61.02438183,-10,-0.33,0.33,10,60,50,59.67,60.33,70,10,10,10,10
,,,,,,,,,,,,,,,,,,,,,,,,,,,
15,14,0.4247529,o,47.7,Unlimited Time,h,42.42595329,86.76848071,47.69881198,61.89686701,47.69881198,61.89686701,42.42595329,86.76848071,-10,-0.33,0.33,10,60,50,59.67,60.33,70,10,10,10,10
,,,,,,,,,,,,,,,,,,,,,,,,,,,
15,15,0.1541326,w,74.1,Unlimited Time,h,74.31742676,74.09691736,52.76220914,43.93647061,52.76220914,43.93647061,74.31742676,74.09691736,-10,-0.33,0.33,10,60,50,59.67,60.33,70,10,10,10,10
,,,,,,,,,,,,,,,,,,,,,,,,,,,
15,16,0.4234328,p,62,Unlimited Time,h,78.83515153,68.81472906,59.54917914,62.03289231,59.54917914,62.03289231,78.83515153,68.81472906,-10,-0.33,0.33,10,60,50,59.67,60.33,70,10,10,10,10
,,,,,,,,,,,,,,,,,,,,,,,,,,,
15,17,0.5495075,p,46,Unlimited Time,h,62.66421878,62.86430361,57.50671016,46.03651912,57.50671016,46.03651912,62.66421878,62.86430361,-10,-0.33,0.33,10,60,50,59.67,60.33,70,10,10,10,10
,,,,,,,,,,,,,,,,,,,,,,,,,,,
15,18,0.0169689,w,59.9,Unlimited Time,h,75.62874461,59.89429073,28.80008665,72.32621326,28.80008665,72.32621326,75.62874461,59.89429073,-10,-0.33,0.33,10,60,50,59.67,60.33,70,10,10,10,10
,,,,,,,,,,,,,,,,,,,,,,,,,,,
15,19,0.0587924,o,61.9,Unlimited Time,h,45.14958741,70.02576488,61.91972363,59.07994346,61.91972363,59.07994346,45.14958741,70.02576488,-10,-0.33,0.33,10,60,50,59.67,60.33,70,10,10,10,10
,,,,,,,,,,,,,,,,,,,,,,,,,,,
15,20,0.1139752,q,68.2,Unlimited Time,h,68.20081313,52.29241783,44.28561728,62.90250124,44.28561728,62.90250124,68.20081313,52.29241783,-10,-0.33,0.33,10,60,50,59.67,60.33,70,10,10,10,10
,,,,,,,,,,,,,,,,,,,,,,,,,,,
16,1,,,0,Limited Time,i,54.13431184,41.1402694,73.11824831,55.93215691,54.13431184,41.1402694,73.11824831,55.93215691,-10,-10,10,10,60,50,50,70,70,3.16227766,10,3.16227766,10
,,,,,,,,,,,,,,,,,,,,,,,,,,,
16,2,0.0604183,p,69.5,Limited Time,i,49.32533907,52.08616823,72.33617394,69.49626113,49.32533907,52.08616823,72.33617394,69.49626113,-10,-10,10,10,60,50,50,70,70,3.16227766,10,3.16227766,10
,,,,,,,,,,,,,,,,,,,,,,,,,,,
16,3,0.0617355,w,39.2,Limited Time,i,52.78826404,39.18780484,69.66619589,82.47906428,52.78826404,39.18780484,69.66619589,82.47906428,-10,-10,10,10,60,50,50,70,70,3.16227766,10,3.16227766,10
,,,,,,,,,,,,,,,,,,,,,,,,,,,
16,4,0.2066786,p,62.9,Limited Time,i,53.96541794,39.74099831,71.3186076,62.94976179,53.96541794,39.74099831,71.3186076,62.94976179,-10,-10,10,10,60,50,50,70,70,3.16227766,10,3.16227766,10
,,,,,,,,,,,,,,,,,,,,,,,,,,,
16,5,0.2220257,o,70.2,Limited Time,i,50.23328738,47.73209913,70.23524857,48.93111825,50.23328738,47.73209913,70.23524857,48.93111825,-10,-10,10,10,60,50,50,70,70,3.16227766,10,3.16227766,10
,,,,,,,,,,,,,,,,,,,,,,,,,,,
16,6,0.0722795,q,48.1,Limited Time,i,48.11337208,51.44982545,68.26509089,51.83962789,48.11337208,51.44982545,68.26509089,51.83962789,-10,-10,10,10,60,50,50,70,70,3.16227766,10,3.16227766,10
,,,,,,,,,,,,,,,,,,,,,,,,,,,
16,7,0.124225,p,69.2,Limited Time,i,48.8867219,40.34319173,67.69299068,69.24931459,48.8867219,40.34319173,67.69299068,69.24931459,-10,-10,10,10,60,50,50,70,70,3.16227766,10,3.16227766,10
,,,,,,,,,,,,,,,,,,,,,,,,,,,
16,8,0.1245842,o,69.4,Limited Time,i,45.80985713,56.40171143,69.4258327,62.96780837,45.80985713,56.40171143,69.4258327,62.96780837,-10,-10,10,10,60,50,50,70,70,3.16227766,10,3.16227766,10
,,,,,,,,,,,,,,,,,,,,,,,,,,,
16,9,0.2000391,w,51.4,Limited Time,i,51.694938,51.43494162,62.44602013,71.30272828,51.694938,51.43494162,62.44602013,71.30272828,-10,-10,10,10,60,50,50,70,70,3.16227766,10,3.16227766,10
,,,,,,,,,,,,,,,,,,,,,,,,,,,
16,10,0.2834573,p,68.2,Limited Time,i,46.94981797,60.90485343,74.92703376,68.16894726,46.94981797,60.90485343,74.92703376,68.16894726,-10,-10,10,10,60,50,50,70,70,3.16227766,10,3.16227766,10
,,,,,,,,,,,,,,,,,,,,,,,,,,,
16,11,0.0018493,w,58.2,Limited Time,i,53.86010723,58.20753913,67.51659405,72.82253992,53.86010723,58.20753913,67.51659405,72.82253992,-10,-10,10,10,60,50,50,70,70,3.16227766,10,3.16227766,10
,,,,,,,,,,,,,,,,,,,,,,,,,,,
16,12,0.3360626,p,68.5,Limited Time,i,49.83954345,61.17984062,69.27342004,68.5014362,49.83954345,61.17984062,69.27342004,68.5014362,-10,-10,10,10,60,50,50,70,70,3.16227766,10,3.16227766,10
,,,,,,,,,,,,,,,,,,,,,,,,,,,
16,13,0.1107315,q,51.8,Limited Time,i,51.7778563,55.68087665,68.70846428,81.25503345,51.7778563,55.68087665,68.70846428,81.25503345,-10,-10,10,10,60,50,50,70,70,3.16227766,10,3.16227766,10
,,,,,,,,,,,,,,,,,,,,,,,,,,,
16,14,0.3064968,o,72.7,Limited Time,i,51.3643136,44.27034497,72.65768454,70.15666514,51.3643136,44.27034497,72.65768454,70.15666514,-10,-10,10,10,60,50,50,70,70,3.16227766,10,3.16227766,10
,,,,,,,,,,,,,,,,,,,,,,,,,,,
16,15,0.3442551,o,69.4,Limited Time,i,47.71129772,53.03205808,69.35449564,75.38172479,47.71129772,53.03205808,69.35449564,75.38172479,-10,-10,10,10,60,50,50,70,70,3.16227766,10,3.16227766,10
,,,,,,,,,,,,,,,,,,,,,,,,,,,
16,16,0.2349596,p,62.7,Limited Time,i,43.82112952,58.05717084,69.3900266,62.73944826,43.82112952,58.05717084,69.3900266,62.73944826,-10,-10,10,10,60,50,50,70,70,3.16227766,10,3.16227766,10
,,,,,,,,,,,,,,,,,,,,,,,,,,,
16,17,0.2980071,w,42.3,Limited Time,i,45.06943319,42.34696514,71.05283562,68.63136913,45.06943319,42.34696514,71.05283562,68.63136913,-10,-10,10,10,60,50,50,70,70,3.16227766,10,3.16227766,10
,,,,,,,,,,,,,,,,,,,,,,,,,,,
16,18,0.3011841,p,63.2,Limited Time,i,48.16628098,59.20640357,65.09392429,63.22452306,48.16628098,59.20640357,65.09392429,63.22452306,-10,-10,10,10,60,50,50,70,70,3.16227766,10,3.16227766,10
,,,,,,,,,,,,,,,,,,,,,,,,,,,
16,19,0.2007768,o,66.2,Limited Time,i,50.60393654,33.16923791,66.157298,67.17307619,50.60393654,33.16923791,66.157298,67.17307619,-10,-10,10,10,60,50,50,70,70,3.16227766,10,3.16227766,10
,,,,,,,,,,,,,,,,,,,,,,,,,,,
16,20,0.0082192,o,73.9,Limited Time,i,46.21848372,67.07665543,73.88666098,59.3458731,46.21848372,67.07665543,73.88666098,59.3458731,-10,-10,10,10,60,50,50,70,70,3.16227766,10,3.16227766,10
