Round Number,Trial Number,Reaction Time,Choice,Reward,Time Condition,Payoff Condition,Q mapped,W mapped,O mapped,P mapped,One value,Two value,Three value,Four value,One mean,Two mean,Three mean,Four mean,Mean Shift,One shifted mean,Two shifted mean,Three shifted mean,Four shifted mean,One SD,Two SD,Three SD,Four SD
,,,,,,,,,,,,,,,,,,,,,,,,,,,
1,1,0.3520377,q,66.9,Unlimited Time,i,66.88825124,58.83196902,52.79186474,53.48104112,53.48104112,52.79186474,66.88825124,58.83196902,-10,-10,10,10,59,49,49,69,69,3.16227766,10,3.16227766,10
,,,,,,,,,,,,,,,,,,,,,,,,,,,
1,2,1.0717904,w,70.6,Unlimited Time,i,75.83698208,70.62561427,41.12484216,52.05106544,52.05106544,41.12484216,75.83698208,70.62561427,-10,-10,10,10,59,49,49,69,69,3.16227766,10,3.16227766,10
,,,,,,,,,,,,,,,,,,,,,,,,,,,
1,3,2.2360723,w,86,Unlimited Time,i,68.84913328,86.03380109,42.73038257,48.74463316,48.74463316,42.73038257,68.84913328,86.03380109,-10,-10,10,10,59,49,49,69,69,3.16227766,10,3.16227766,10
,,,,,,,,,,,,,,,,,,,,,,,,,,,
1,4,0.7785059,w,54.9,Unlimited Time,i,77.2988861,54.92494976,66.16686427,46.97818873,46.97818873,66.16686427,77.2988861,54.92494976,-10,-10,10,10,59,49,49,69,69,3.16227766,10,3.16227766,10
,,,,,,,,,,,,,,,,,,,,,,,,,,,
1,5,0.639857,p,43,Unlimited Time,i,70.59514202,61.8435511,55.04159917,43.04426016,43.04426016,55.04159917,70.59514202,61.8435511,-10,-10,10,10,59,49,49,69,69,3.16227766,10,3.16227766,10
,,,,,,,,,,,,,,,,,,,,,,,,,,,
1,6,0.658192,w,71.5,Unlimited Time,i,62.40728563,71.45328403,32.80109305,46.43935644,46.43935644,32.80109305,62.40728563,71.45328403,-10,-10,10,10,59,49,49,69,69,3.16227766,10,3.16227766,10
,,,,,,,,,,,,,,,,,,,,,,,,,,,
1,7,0.4610048,w,74.8,Unlimited Time,i,66.57413618,74.7617616,54.73078963,54.82232683,54.82232683,54.73078963,66.57413618,74.7617616,-10,-10,10,10,59,49,49,69,69,3.16227766,10,3.16227766,10
,,,,,,,,,,,,,,,,,,,,,,,,,,,
1,8,0.4022073,o,38.2,Unlimited Time,i,68.02351207,70.89352403,38.16851884,44.44685984,44.44685984,38.16851884,68.02351207,70.89352403,-10,-10,10,10,59,49,49,69,69,3.16227766,10,3.16227766,10
,,,,,,,,,,,,,,,,,,,,,,,,,,,
1,9,0.392269,w,82.2,Unlimited Time,i,72.84510322,82.16756028,62.5478413,45.94980506,45.94980506,62.5478413,72.84510322,82.16756028,-10,-10,10,10,59,49,49,69,69,3.16227766,10,3.16227766,10
,,,,,,,,,,,,,,,,,,,,,,,,,,,
1,10,0.355043,w,68.8,Unlimited Time,i,69.50530402,68.80004738,40.21194252,53.57448859,53.57448859,40.21194252,69.50530402,68.80004738,-10,-10,10,10,59,49,49,69,69,3.16227766,10,3.16227766,10
,,,,,,,,,,,,,,,,,,,,,,,,,,,
1,11,0.4270744,w,58.5,Unlimited Time,i,63.06087039,58.48983721,31.22999094,48.76008971,48.76008971,31.22999094,63.06087039,58.48983721,-10,-10,10,10,59,49,49,69,69,3.16227766,10,3.16227766,10
,,,,,,,,,,,,,,,,,,,,,,,,,,,
1,12,0.4937519,w,69.6,Unlimited Time,i,73.25898536,69.56173927,45.25287459,57.4490601,57.4490601,45.25287459,73.25898536,69.56173927,-10,-10,10,10,59,49,49,69,69,3.16227766,10,3.16227766,10
,,,,,,,,,,,,,,,,,,,,,,,,,,,
1,13,0.3840785,w,63,Unlimited Time,i,62.95403795,62.95103037,37.79039447,50.65035883,50.65035883,37.79039447,62.95403795,62.95103037,-10,-10,10,10,59,49,49,69,69,3.16227766,10,3.16227766,10
,,,,,,,,,,,,,,,,,,,,,,,,,,,
1,14,0.3400147,w,86.2,Unlimited Time,i,66.85745434,86.18981351,46.5642265,54.20848752,54.20848752,46.5642265,66.85745434,86.18981351,-10,-10,10,10,59,49,49,69,69,3.16227766,10,3.16227766,10
,,,,,,,,,,,,,,,,,,,,,,,,,,,
1,15,0.4100114,w,43.7,Unlimited Time,i,69.73879387,43.69533911,40.49153246,48.11693645,48.11693645,40.49153246,69.73879387,43.69533911,-10,-10,10,10,59,49,49,69,69,3.16227766,10,3.16227766,10
,,,,,,,,,,,,,,,,,,,,,,,,,,,
1,16,0.5063435,w,70.4,Unlimited Time,i,68.32514752,70.37660179,56.73903821,49.97017344,49.97017344,56.73903821,68.32514752,70.37660179,-10,-10,10,10,59,49,49,69,69,3.16227766,10,3.16227766,10
,,,,,,,,,,,,,,,,,,,,,,,,,,,
1,17,0.2432134,w,71.1,Unlimited Time,i,64.60720134,71.09431059,48.36813058,48.13218439,48.13218439,48.36813058,64.60720134,71.09431059,-10,-10,10,10,59,49,49,69,69,3.16227766,10,3.16227766,10
,,,,,,,,,,,,,,,,,,,,,,,,,,,
1,18,0.1179178,w,53.8,Unlimited Time,i,64.57244712,53.84645589,32.71562126,47.38519446,47.38519446,32.71562126,64.57244712,53.84645589,-10,-10,10,10,59,49,49,69,69,3.16227766,10,3.16227766,10
,,,,,,,,,,,,,,,,,,,,,,,,,,,
1,19,0.3782442,w,76.9,Unlimited Time,i,63.26826681,76.94737658,53.82274988,47.63471108,47.63471108,53.82274988,63.26826681,76.94737658,-10,-10,10,10,59,49,49,69,69,3.16227766,10,3.16227766,10
,,,,,,,,,,,,,,,,,,,,,,,,,,,
1,20,0.016589,w,73.1,Unlimited Time,i,71.56576645,73.10960915,32.20171083,48.90917717,48.90917717,32.20171083,71.56576645,73.10960915,-10,-10,10,10,59,49,49,69,69,3.16227766,10,3.16227766,10
,,,,,,,,,,,,,,,,,,,,,,,,,,,
2,1,0.2761392,p,58.8,Limited Time,i,66.88825124,53.48104112,52.79186474,58.83196902,53.48104112,52.79186474,66.88825124,58.83196902,-10,-10,10,10,59,49,49,69,69,3.16227766,10,3.16227766,10
,,,,,,,,,,,,,,,,,,,,,,,,,,,
2,2,0.2972776,p,70.6,Limited Time,i,75.83698208,52.05106544,41.12484216,70.62561427,52.05106544,41.12484216,75.83698208,70.62561427,-10,-10,10,10,59,49,49,69,69,3.16227766,10,3.16227766,10
,,,,,,,,,,,,,,,,,,,,,,,,,,,
2,3,0.3059892,p,86,Limited Time,i,68.84913328,48.74463316,42.73038257,86.03380109,48.74463316,42.73038257,68.84913328,86.03380109,-10,-10,10,10,59,49,49,69,69,3.16227766,10,3.16227766,10
,,,,,,,,,,,,,,,,,,,,,,,,,,,
2,4,0.2253581,p,54.9,Limited Time,i,77.2988861,46.97818873,66.16686427,54.92494976,46.97818873,66.16686427,77.2988861,54.92494976,-10,-10,10,10,59,49,49,69,69,3.16227766,10,3.16227766,10
,,,,,,,,,,,,,,,,,,,,,,,,,,,
2,5,0.1875178,p,61.8,Limited Time,i,70.59514202,43.04426016,55.04159917,61.8435511,43.04426016,55.04159917,70.59514202,61.8435511,-10,-10,10,10,59,49,49,69,69,3.16227766,10,3.16227766,10
,,,,,,,,,,,,,,,,,,,,,,,,,,,
2,6,0.2205572,p,71.5,Limited Time,i,62.40728563,46.43935644,32.80109305,71.45328403,46.43935644,32.80109305,62.40728563,71.45328403,-10,-10,10,10,59,49,49,69,69,3.16227766,10,3.16227766,10
,,,,,,,,,,,,,,,,,,,,,,,,,,,
2,7,0.201744,p,74.8,Limited Time,i,66.57413618,54.82232683,54.73078963,74.7617616,54.82232683,54.73078963,66.57413618,74.7617616,-10,-10,10,10,59,49,49,69,69,3.16227766,10,3.16227766,10
,,,,,,,,,,,,,,,,,,,,,,,,,,,
2,8,0.1682802,p,70.9,Limited Time,i,68.02351207,44.44685984,38.16851884,70.89352403,44.44685984,38.16851884,68.02351207,70.89352403,-10,-10,10,10,59,49,49,69,69,3.16227766,10,3.16227766,10
,,,,,,,,,,,,,,,,,,,,,,,,,,,
2,9,0.2527805,p,82.2,Limited Time,i,72.84510322,45.94980506,62.5478413,82.16756028,45.94980506,62.5478413,72.84510322,82.16756028,-10,-10,10,10,59,49,49,69,69,3.16227766,10,3.16227766,10
,,,,,,,,,,,,,,,,,,,,,,,,,,,
2,10,0.225125,p,68.8,Limited Time,i,69.50530402,53.57448859,40.21194252,68.80004738,53.57448859,40.21194252,69.50530402,68.80004738,-10,-10,10,10,59,49,49,69,69,3.16227766,10,3.16227766,10
,,,,,,,,,,,,,,,,,,,,,,,,,,,
2,11,0.138675,p,58.5,Limited Time,i,63.06087039,48.76008971,31.22999094,58.48983721,48.76008971,31.22999094,63.06087039,58.48983721,-10,-10,10,10,59,49,49,69,69,3.16227766,10,3.16227766,10
,,,,,,,,,,,,,,,,,,,,,,,,,,,
2,12,0.0095192,p,69.6,Limited Time,i,73.25898536,57.4490601,45.25287459,69.56173927,57.4490601,45.25287459,73.25898536,69.56173927,-10,-10,10,10,59,49,49,69,69,3.16227766,10,3.16227766,10
,,,,,,,,,,,,,,,,,,,,,,,,,,,
2,13,0.0873012,p,63,Limited Time,i,62.95403795,50.65035883,37.79039447,62.95103037,50.65035883,37.79039447,62.95403795,62.95103037,-10,-10,10,10,59,49,49,69,69,3.16227766,10,3.16227766,10
,,,,,,,,,,,,,,,,,,,,,,,,,,,
2,14,0.0143431,p,86.2,Limited Time,i,66.85745434,54.20848752,46.5642265,86.18981351,54.20848752,46.5642265,66.85745434,86.18981351,-10,-10,10,10,59,49,49,69,69,3.16227766,10,3.16227766,10
,,,,,,,,,,,,,,,,,,,,,,,,,,,
2,15,0.1731799,p,43.7,Limited Time,i,69.73879387,48.11693645,40.49153246,43.69533911,48.11693645,40.49153246,69.73879387,43.69533911,-10,-10,10,10,59,49,49,69,69,3.16227766,10,3.16227766,10
,,,,,,,,,,,,,,,,,,,,,,,,,,,
2,16,0.0327846,p,70.4,Limited Time,i,68.32514752,49.97017344,56.73903821,70.37660179,49.97017344,56.73903821,68.32514752,70.37660179,-10,-10,10,10,59,49,49,69,69,3.16227766,10,3.16227766,10
,,,,,,,,,,,,,,,,,,,,,,,,,,,
2,17,0.0469893,p,71.1,Limited Time,i,64.60720134,48.13218439,48.36813058,71.09431059,48.13218439,48.36813058,64.60720134,71.09431059,-10,-10,10,10,59,49,49,69,69,3.16227766,10,3.16227766,10
,,,,,,,,,,,,,,,,,,,,,,,,,,,
2,18,0.0070092,p,53.8,Limited Time,i,64.57244712,47.38519446,32.71562126,53.84645589,47.38519446,32.71562126,64.57244712,53.84645589,-10,-10,10,10,59,49,49,69,69,3.16227766,10,3.16227766,10
,,,,,,,,,,,,,,,,,,,,,,,,,,,
2,19,0.2516667,p,76.9,Limited Time,i,63.26826681,47.63471108,53.82274988,76.94737658,47.63471108,53.82274988,63.26826681,76.94737658,-10,-10,10,10,59,49,49,69,69,3.16227766,10,3.16227766,10
,,,,,,,,,,,,,,,,,,,,,,,,,,,
2,20,0.0910976,p,73.1,Limited Time,i,71.56576645,48.90917717,32.20171083,73.10960915,48.90917717,32.20171083,71.56576645,73.10960915,-10,-10,10,10,59,49,49,69,69,3.16227766,10,3.16227766,10
,,,,,,,,,,,,,,,,,,,,,,,,,,,
3,1,0.3654012,q,63.7,Unlimited Time,h,63.67682304,68.19329621,59.3454195,43.3020035,43.3020035,63.67682304,68.19329621,59.3454195,-10,-0.33,0.33,10,59,49,58.67,59.33,69,10,10,10,10
,,,,,,,,,,,,,,,,,,,,,,,,,,,
3,2,0.2655812,q,46.5,Unlimited Time,h,46.48296327,54.11089844,75.21990206,41.3945191,41.3945191,46.48296327,54.11089844,75.21990206,-10,-0.33,0.33,10,59,49,58.67,59.33,69,10,10,10,10
,,,,,,,,,,,,,,,,,,,,,,,,,,,
3,3,0.2948491,q,70.3,Unlimited Time,h,70.26076701,57.4083031,68.75583065,46.38784963,46.38784963,70.26076701,57.4083031,68.75583065,-10,-0.33,0.33,10,59,49,58.67,59.33,69,10,10,10,10
,,,,,,,,,,,,,,,,,,,,,,,,,,,
3,4,0.254407,q,52,Unlimited Time,h,51.97718531,54.13748091,68.4532299,51.34798479,51.34798479,51.97718531,54.13748091,68.4532299,-10,-0.33,0.33,10,59,49,58.67,59.33,69,10,10,10,10
,,,,,,,,,,,,,,,,,,,,,,,,,,,
3,5,0.1561922,q,66.9,Unlimited Time,h,66.94261431,52.04785992,53.25991635,41.33621334,41.33621334,66.94261431,52.04785992,53.25991635,-10,-0.33,0.33,10,59,49,58.67,59.33,69,10,10,10,10
,,,,,,,,,,,,,,,,,,,,,,,,,,,
3,6,0.1879261,q,61.1,Unlimited Time,h,61.07772203,46.0201605,68.65622575,51.26652723,51.26652723,61.07772203,46.0201605,68.65622575,-10,-0.33,0.33,10,59,49,58.67,59.33,69,10,10,10,10
,,,,,,,,,,,,,,,,,,,,,,,,,,,
3,7,0.1834838,q,43.7,Unlimited Time,h,43.6770116,62.59912437,63.5723607,53.76799538,53.76799538,43.6770116,62.59912437,63.5723607,-10,-0.33,0.33,10,59,49,58.67,59.33,69,10,10,10,10
,,,,,,,,,,,,,,,,,,,,,,,,,,,
3,8,0.3930929,p,51,Unlimited Time,h,55.02844398,65.10211949,85.41082242,51.03533111,51.03533111,55.02844398,65.10211949,85.41082242,-10,-0.33,0.33,10,59,49,58.67,59.33,69,10,10,10,10
,,,,,,,,,,,,,,,,,,,,,,,,,,,
3,9,0.1207065,w,55.2,Unlimited Time,h,56.09568562,55.23964831,49.30636404,33.5620441,33.5620441,56.09568562,55.23964831,49.30636404,-10,-0.33,0.33,10,59,49,58.67,59.33,69,10,10,10,10
,,,,,,,,,,,,,,,,,,,,,,,,,,,
3,10,0.3596135,q,50,Unlimited Time,h,49.97892371,63.96674842,72.26617095,59.94079095,59.94079095,49.97892371,63.96674842,72.26617095,-10,-0.33,0.33,10,59,49,58.67,59.33,69,10,10,10,10
,,,,,,,,,,,,,,,,,,,,,,,,,,,
3,11,0.2960766,q,69.7,Unlimited Time,h,69.7150596,42.79677502,64.40906965,46.48004576,46.48004576,69.7150596,42.79677502,64.40906965,-10,-0.33,0.33,10,59,49,58.67,59.33,69,10,10,10,10
,,,,,,,,,,,,,,,,,,,,,,,,,,,
3,12,0.2642285,q,63.8,Unlimited Time,h,63.77752638,57.51266021,76.52403967,44.41938815,44.41938815,63.77752638,57.51266021,76.52403967,-10,-0.33,0.33,10,59,49,58.67,59.33,69,10,10,10,10
,,,,,,,,,,,,,,,,,,,,,,,,,,,
3,13,0.1260099,q,61.2,Unlimited Time,h,61.23721352,51.3965331,73.39218535,38.23864749,38.23864749,61.23721352,51.3965331,73.39218535,-10,-0.33,0.33,10,59,49,58.67,59.33,69,10,10,10,10
,,,,,,,,,,,,,,,,,,,,,,,,,,,
3,14,0.1109343,q,76.3,Unlimited Time,h,76.30215551,53.10220326,68.40573791,53.16947479,53.16947479,76.30215551,53.10220326,68.40573791,-10,-0.33,0.33,10,59,49,58.67,59.33,69,10,10,10,10
,,,,,,,,,,,,,,,,,,,,,,,,,,,
3,15,0.2668902,q,60.2,Unlimited Time,h,60.15805246,64.80155207,77.12215944,38.07867877,38.07867877,60.15805246,64.80155207,77.12215944,-10,-0.33,0.33,10,59,49,58.67,59.33,69,10,10,10,10
,,,,,,,,,,,,,,,,,,,,,,,,,,,
3,16,0.1120146,q,46.5,Unlimited Time,h,46.45995824,45.17374955,72.84055918,49.1710621,49.1710621,46.45995824,45.17374955,72.84055918,-10,-0.33,0.33,10,59,49,58.67,59.33,69,10,10,10,10
,,,,,,,,,,,,,,,,,,,,,,,,,,,
3,17,0.1201173,q,68.2,Unlimited Time,h,68.24281047,49.23989091,91.18799889,47.66626484,47.66626484,68.24281047,49.23989091,91.18799889,-10,-0.33,0.33,10,59,49,58.67,59.33,69,10,10,10,10
,,,,,,,,,,,,,,,,,,,,,,,,,,,
3,18,0.1532389,q,66.5,Unlimited Time,h,66.45614945,67.11233213,85.24784882,51.88533363,51.88533363,66.45614945,67.11233213,85.24784882,-10,-0.33,0.33,10,59,49,58.67,59.33,69,10,10,10,10
,,,,,,,,,,,,,,,,,,,,,,,,,,,
3,19,0.1040024,q,40.9,Unlimited Time,h,40.85352417,45.7599525,59.42156559,40.79372914,40.79372914,40.85352417,45.7599525,59.42156559,-10,-0.33,0.33,10,59,49,58.67,59.33,69,10,10,10,10
,,,,,,,,,,,,,,,,,,,,,,,,,,,
3,20,0.1010437,q,33.9,Unlimited Time,h,33.88460883,39.91467142,72.65676142,53.13872747,53.13872747,33.88460883,39.91467142,72.65676142,-10,-0.33,0.33,10,59,49,58.67,59.33,69,10,10,10,10
,,,,,,,,,,,,,,,,,,,,,,,,,,,
4,1,,,0,Limited Time,h,59.3454195,63.67682304,68.19329621,43.3020035,43.3020035,63.67682304,68.19329621,59.3454195,-10,-0.33,0.33,10,59,49,58.67,59.33,69,10,10,10,10
,,,,,,,,,,,,,,,,,,,,,,,,,,,
4,2,0.016459,o,54.1,Limited Time,h,75.21990206,46.48296327,54.11089844,41.3945191,41.3945191,46.48296327,54.11089844,75.21990206,-10,-0.33,0.33,10,59,49,58.67,59.33,69,10,10,10,10
,,,,,,,,,,,,,,,,,,,,,,,,,,,
4,3,0.0974648,o,57.4,Limited Time,h,68.75583065,70.26076701,57.4083031,46.38784963,46.38784963,70.26076701,57.4083031,68.75583065,-10,-0.33,0.33,10,59,49,58.67,59.33,69,10,10,10,10
,,,,,,,,,,,,,,,,,,,,,,,,,,,
4,4,0.0477143,q,68.5,Limited Time,h,68.4532299,51.97718531,54.13748091,51.34798479,51.34798479,51.97718531,54.13748091,68.4532299,-10,-0.33,0.33,10,59,49,58.67,59.33,69,10,10,10,10
,,,,,,,,,,,,,,,,,,,,,,,,,,,
4,5,0.2212904,q,53.3,Limited Time,h,53.25991635,66.94261431,52.04785992,41.33621334,41.33621334,66.94261431,52.04785992,53.25991635,-10,-0.33,0.33,10,59,49,58.67,59.33,69,10,10,10,10
,,,,,,,,,,,,,,,,,,,,,,,,,,,
4,6,0.2244026,p,51.3,Limited Time,h,68.65622575,61.07772203,46.0201605,51.26652723,51.26652723,61.07772203,46.0201605,68.65622575,-10,-0.33,0.33,10,59,49,58.67,59.33,69,10,10,10,10
,,,,,,,,,,,,,,,,,,,,,,,,,,,
4,7,0.2143972,w,43.7,Limited Time,h,63.5723607,43.6770116,62.59912437,53.76799538,53.76799538,43.6770116,62.59912437,63.5723607,-10,-0.33,0.33,10,59,49,58.67,59.33,69,10,10,10,10
,,,,,,,,,,,,,,,,,,,,,,,,,,,
4,8,0.0352049,w,55,Limited Time,h,85.41082242,55.02844398,65.10211949,51.03533111,51.03533111,55.02844398,65.10211949,85.41082242,-10,-0.33,0.33,10,59,49,58.67,59.33,69,10,10,10,10
,,,,,,,,,,,,,,,,,,,,,,,,,,,
4,9,0.0399008,w,56.1,Limited Time,h,49.30636404,56.09568562,55.23964831,33.5620441,33.5620441,56.09568562,55.23964831,49.30636404,-10,-0.33,0.33,10,59,49,58.67,59.33,69,10,10,10,10
,,,,,,,,,,,,,,,,,,,,,,,,,,,
4,10,0.1734846,w,50,Limited Time,h,72.26617095,49.97892371,63.96674842,59.94079095,59.94079095,49.97892371,63.96674842,72.26617095,-10,-0.33,0.33,10,59,49,58.67,59.33,69,10,10,10,10
,,,,,,,,,,,,,,,,,,,,,,,,,,,
4,11,0.1423818,w,69.7,Limited Time,h,64.40906965,69.7150596,42.79677502,46.48004576,46.48004576,69.7150596,42.79677502,64.40906965,-10,-0.33,0.33,10,59,49,58.67,59.33,69,10,10,10,10
,,,,,,,,,,,,,,,,,,,,,,,,,,,
4,12,0.2214937,o,57.5,Limited Time,h,76.52403967,63.77752638,57.51266021,44.41938815,44.41938815,63.77752638,57.51266021,76.52403967,-10,-0.33,0.33,10,59,49,58.67,59.33,69,10,10,10,10
,,,,,,,,,,,,,,,,,,,,,,,,,,,
4,13,0.0721742,o,51.4,Limited Time,h,73.39218535,61.23721352,51.3965331,38.23864749,38.23864749,61.23721352,51.3965331,73.39218535,-10,-0.33,0.33,10,59,49,58.67,59.33,69,10,10,10,10
,,,,,,,,,,,,,,,,,,,,,,,,,,,
4,14,0.006654,o,53.1,Limited Time,h,68.40573791,76.30215551,53.10220326,53.16947479,53.16947479,76.30215551,53.10220326,68.40573791,-10,-0.33,0.33,10,59,49,58.67,59.33,69,10,10,10,10
,,,,,,,,,,,,,,,,,,,,,,,,,,,
4,15,0.1173281,w,60.2,Limited Time,h,77.12215944,60.15805246,64.80155207,38.07867877,38.07867877,60.15805246,64.80155207,77.12215944,-10,-0.33,0.33,10,59,49,58.67,59.33,69,10,10,10,10
,,,,,,,,,,,,,,,,,,,,,,,,,,,
4,16,0.0536788,w,46.5,Limited Time,h,72.84055918,46.45995824,45.17374955,49.1710621,49.1710621,46.45995824,45.17374955,72.84055918,-10,-0.33,0.33,10,59,49,58.67,59.33,69,10,10,10,10
,,,,,,,,,,,,,,,,,,,,,,,,,,,
4,17,0.1323753,w,68.2,Limited Time,h,91.18799889,68.24281047,49.23989091,47.66626484,47.66626484,68.24281047,49.23989091,91.18799889,-10,-0.33,0.33,10,59,49,58.67,59.33,69,10,10,10,10
,,,,,,,,,,,,,,,,,,,,,,,,,,,
4,18,0.1743229,q,85.2,Limited Time,h,85.24784882,66.45614945,67.11233213,51.88533363,51.88533363,66.45614945,67.11233213,85.24784882,-10,-0.33,0.33,10,59,49,58.67,59.33,69,10,10,10,10
,,,,,,,,,,,,,,,,,,,,,,,,,,,
4,19,0.1487802,q,59.4,Limited Time,h,59.42156559,40.85352417,45.7599525,40.79372914,40.79372914,40.85352417,45.7599525,59.42156559,-10,-0.33,0.33,10,59,49,58.67,59.33,69,10,10,10,10
,,,,,,,,,,,,,,,,,,,,,,,,,,,
4,20,0.0701728,q,72.7,Limited Time,h,72.65676142,33.88460883,39.91467142,53.13872747,53.13872747,33.88460883,39.91467142,72.65676142,-10,-0.33,0.33,10,59,49,58.67,59.33,69,10,10,10,10
,,,,,,,,,,,,,,,,,,,,,,,,,,,
5,1,0.3243306,p,60.8,Unlimited Time,l,68.912002,46.78025025,67.98998326,60.81641248,46.78025025,60.81641248,68.912002,67.98998326,-10,-0.33,0.33,10,59,49,58.67,59.33,69,3.16227766,3.16227766,3.16227766,3.16227766
,,,,,,,,,,,,,,,,,,,,,,,,,,,
5,2,0.2908898,o,65.4,Unlimited Time,l,60.8137987,46.92753197,65.4188713,53.40995098,46.92753197,53.40995098,60.8137987,65.4188713,-10,-0.33,0.33,10,59,49,58.67,59.33,69,3.16227766,3.16227766,3.16227766,3.16227766
,,,,,,,,,,,,,,,,,,,,,,,,,,,
5,3,0.2838091,w,42.9,Unlimited Time,l,60.72239098,42.88993313,67.82986405,61.27872836,42.88993313,61.27872836,60.72239098,67.82986405,-10,-0.33,0.33,10,59,49,58.67,59.33,69,3.16227766,3.16227766,3.16227766,3.16227766
,,,,,,,,,,,,,,,,,,,,,,,,,,,
5,4,0.2981614,q,65.1,Unlimited Time,l,65.08635666,53.16487213,69.34623932,56.02228844,53.16487213,56.02228844,65.08635666,69.34623932,-10,-0.33,0.33,10,59,49,58.67,59.33,69,3.16227766,3.16227766,3.16227766,3.16227766
,,,,,,,,,,,,,,,,,,,,,,,,,,,
5,5,0.2347293,p,60.7,Unlimited Time,l,62.42750439,48.61323302,60.63928759,60.74048641,48.61323302,60.74048641,62.42750439,60.63928759,-10,-0.33,0.33,10,59,49,58.67,59.33,69,3.16227766,3.16227766,3.16227766,3.16227766
,,,,,,,,,,,,,,,,,,,,,,,,,,,
5,6,0.0475746,p,62.9,Unlimited Time,l,60.07135259,49.93431209,70.33028791,62.94915207,49.93431209,62.94915207,60.07135259,70.33028791,-10,-0.33,0.33,10,59,49,58.67,59.33,69,3.16227766,3.16227766,3.16227766,3.16227766
,,,,,,,,,,,,,,,,,,,,,,,,,,,
5,7,0.1977378,p,57.7,Unlimited Time,l,57.72880198,47.3235267,68.28035595,57.68844225,47.3235267,57.68844225,57.72880198,68.28035595,-10,-0.33,0.33,10,59,49,58.67,59.33,69,3.16227766,3.16227766,3.16227766,3.16227766
,,,,,,,,,,,,,,,,,,,,,,,,,,,
5,8,0.142017,p,65.1,Unlimited Time,l,60.14243372,49.52703746,66.46606537,65.09767957,49.52703746,65.09767957,60.14243372,66.46606537,-10,-0.33,0.33,10,59,49,58.67,59.33,69,3.16227766,3.16227766,3.16227766,3.16227766
,,,,,,,,,,,,,,,,,,,,,,,,,,,
5,9,0.0981561,p,57,Unlimited Time,l,55.56466504,45.37007035,65.81840734,56.96173978,45.37007035,56.96173978,55.56466504,65.81840734,-10,-0.33,0.33,10,59,49,58.67,59.33,69,3.16227766,3.16227766,3.16227766,3.16227766
,,,,,,,,,,,,,,,,,,,,,,,,,,,
5,10,0.099214,p,58.2,Unlimited Time,l,57.69280763,49.30723359,66.96366851,58.21516462,49.30723359,58.21516462,57.69280763,66.96366851,-10,-0.33,0.33,10,59,49,58.67,59.33,69,3.16227766,3.16227766,3.16227766,3.16227766
,,,,,,,,,,,,,,,,,,,,,,,,,,,
5,11,0.1381056,p,59.8,Unlimited Time,l,61.82529044,53.36803854,70.47081595,59.75503489,53.36803854,59.75503489,61.82529044,70.47081595,-10,-0.33,0.33,10,59,49,58.67,59.33,69,3.16227766,3.16227766,3.16227766,3.16227766
,,,,,,,,,,,,,,,,,,,,,,,,,,,
5,12,0.1458734,p,56.2,Unlimited Time,l,57.53617869,49.54160875,64.74569066,56.20053972,49.54160875,56.20053972,57.53617869,64.74569066,-10,-0.33,0.33,10,59,49,58.67,59.33,69,3.16227766,3.16227766,3.16227766,3.16227766
,,,,,,,,,,,,,,,,,,,,,,,,,,,
5,13,0.1377046,p,56.4,Unlimited Time,l,60.38437694,52.9342171,67.34019055,56.40658818,52.9342171,56.40658818,60.38437694,67.34019055,-10,-0.33,0.33,10,59,49,58.67,59.33,69,3.16227766,3.16227766,3.16227766,3.16227766
,,,,,,,,,,,,,,,,,,,,,,,,,,,
5,14,0.0737233,p,56.5,Unlimited Time,l,59.49364136,51.62608666,63.97810252,56.5465534,51.62608666,56.5465534,59.49364136,63.97810252,-10,-0.33,0.33,10,59,49,58.67,59.33,69,3.16227766,3.16227766,3.16227766,3.16227766
,,,,,,,,,,,,,,,,,,,,,,,,,,,
5,15,0.0640688,p,60,Unlimited Time,l,57.28270023,47.23027617,65.23600009,59.97261119,47.23027617,59.97261119,57.28270023,65.23600009,-10,-0.33,0.33,10,59,49,58.67,59.33,69,3.16227766,3.16227766,3.16227766,3.16227766
,,,,,,,,,,,,,,,,,,,,,,,,,,,
5,16,0.0971685,p,61.9,Unlimited Time,l,57.48504205,45.81750236,64.18309649,61.94996923,45.81750236,61.94996923,57.48504205,64.18309649,-10,-0.33,0.33,10,59,49,58.67,59.33,69,3.16227766,3.16227766,3.16227766,3.16227766
,,,,,,,,,,,,,,,,,,,,,,,,,,,
5,17,0.0694521,p,59.1,Unlimited Time,l,60.016659,47.68239146,67.88206375,59.14339681,47.68239146,59.14339681,60.016659,67.88206375,-10,-0.33,0.33,10,59,49,58.67,59.33,69,3.16227766,3.16227766,3.16227766,3.16227766
,,,,,,,,,,,,,,,,,,,,,,,,,,,
5,18,0.0860461,p,60.1,Unlimited Time,l,55.8912355,47.90276806,63.13957438,60.05018963,47.90276806,60.05018963,55.8912355,63.13957438,-10,-0.33,0.33,10,59,49,58.67,59.33,69,3.16227766,3.16227766,3.16227766,3.16227766
,,,,,,,,,,,,,,,,,,,,,,,,,,,
5,19,0.0847559,p,58.6,Unlimited Time,l,53.91930739,44.38041304,68.8275588,58.64178758,44.38041304,58.64178758,53.91930739,68.8275588,-10,-0.33,0.33,10,59,49,58.67,59.33,69,3.16227766,3.16227766,3.16227766,3.16227766
,,,,,,,,,,,,,,,,,,,,,,,,,,,
5,20,0.0280002,p,52,Unlimited Time,l,58.85114531,50.5889502,75.63591033,51.97360415,50.5889502,51.97360415,58.85114531,75.63591033,-10,-0.33,0.33,10,59,49,58.67,59.33,69,3.16227766,3.16227766,3.16227766,3.16227766
,,,,,,,,,,,,,,,,,,,,,,,,,,,
6,1,0.2251239,q,68.2,Limited Time,h,68.19329621,63.67682304,59.3454195,43.3020035,43.3020035,63.67682304,68.19329621,59.3454195,-10,-0.33,0.33,10,59,49,58.67,59.33,69,10,10,10,10
,,,,,,,,,,,,,,,,,,,,,,,,,,,
6,2,0.2156407,q,54.1,Limited Time,h,54.11089844,46.48296327,75.21990206,41.3945191,41.3945191,46.48296327,54.11089844,75.21990206,-10,-0.33,0.33,10,59,49,58.67,59.33,69,10,10,10,10
,,,,,,,,,,,,,,,,,,,,,,,,,,,
6,3,0.204322,q,57.4,Limited Time,h,57.4083031,70.26076701,68.75583065,46.38784963,46.38784963,70.26076701,57.4083031,68.75583065,-10,-0.33,0.33,10,59,49,58.67,59.33,69,10,10,10,10
,,,,,,,,,,,,,,,,,,,,,,,,,,,
6,4,0.0566213,w,52,Limited Time,h,54.13748091,51.97718531,68.4532299,51.34798479,51.34798479,51.97718531,54.13748091,68.4532299,-10,-0.33,0.33,10,59,49,58.67,59.33,69,10,10,10,10
,,,,,,,,,,,,,,,,,,,,,,,,,,,
6,5,0.16903,w,66.9,Limited Time,h,52.04785992,66.94261431,53.25991635,41.33621334,41.33621334,66.94261431,52.04785992,53.25991635,-10,-0.33,0.33,10,59,49,58.67,59.33,69,10,10,10,10
,,,,,,,,,,,,,,,,,,,,,,,,,,,
6,6,0.0483517,w,61.1,Limited Time,h,46.0201605,61.07772203,68.65622575,51.26652723,51.26652723,61.07772203,46.0201605,68.65622575,-10,-0.33,0.33,10,59,49,58.67,59.33,69,10,10,10,10
,,,,,,,,,,,,,,,,,,,,,,,,,,,
6,7,0.0193719,o,63.6,Limited Time,h,62.59912437,43.6770116,63.5723607,53.76799538,53.76799538,43.6770116,62.59912437,63.5723607,-10,-0.33,0.33,10,59,49,58.67,59.33,69,10,10,10,10
,,,,,,,,,,,,,,,,,,,,,,,,,,,
6,8,0.1041727,o,85.4,Limited Time,h,65.10211949,55.02844398,85.41082242,51.03533111,51.03533111,55.02844398,65.10211949,85.41082242,-10,-0.33,0.33,10,59,49,58.67,59.33,69,10,10,10,10
,,,,,,,,,,,,,,,,,,,,,,,,,,,
6,9,0.0178733,p,33.6,Limited Time,h,55.23964831,56.09568562,49.30636404,33.5620441,33.5620441,56.09568562,55.23964831,49.30636404,-10,-0.33,0.33,10,59,49,58.67,59.33,69,10,10,10,10
,,,,,,,,,,,,,,,,,,,,,,,,,,,
6,10,0.0214362,p,59.9,Limited Time,h,63.96674842,49.97892371,72.26617095,59.94079095,59.94079095,49.97892371,63.96674842,72.26617095,-10,-0.33,0.33,10,59,49,58.67,59.33,69,10,10,10,10
,,,,,,,,,,,,,,,,,,,,,,,,,,,
6,11,0.0077908,o,64.4,Limited Time,h,42.79677502,69.7150596,64.40906965,46.48004576,46.48004576,69.7150596,42.79677502,64.40906965,-10,-0.33,0.33,10,59,49,58.67,59.33,69,10,10,10,10
,,,,,,,,,,,,,,,,,,,,,,,,,,,
6,12,0.1811248,o,76.5,Limited Time,h,57.51266021,63.77752638,76.52403967,44.41938815,44.41938815,63.77752638,57.51266021,76.52403967,-10,-0.33,0.33,10,59,49,58.67,59.33,69,10,10,10,10
,,,,,,,,,,,,,,,,,,,,,,,,,,,
6,13,0.2007793,o,73.4,Limited Time,h,51.3965331,61.23721352,73.39218535,38.23864749,38.23864749,61.23721352,51.3965331,73.39218535,-10,-0.33,0.33,10,59,49,58.67,59.33,69,10,10,10,10
,,,,,,,,,,,,,,,,,,,,,,,,,,,
6,14,0.1337237,o,68.4,Limited Time,h,53.10220326,76.30215551,68.40573791,53.16947479,53.16947479,76.30215551,53.10220326,68.40573791,-10,-0.33,0.33,10,59,49,58.67,59.33,69,10,10,10,10
,,,,,,,,,,,,,,,,,,,,,,,,,,,
6,15,0.0223553,o,77.1,Limited Time,h,64.80155207,60.15805246,77.12215944,38.07867877,38.07867877,60.15805246,64.80155207,77.12215944,-10,-0.33,0.33,10,59,49,58.67,59.33,69,10,10,10,10
,,,,,,,,,,,,,,,,,,,,,,,,,,,
6,16,0.1487985,o,72.8,Limited Time,h,45.17374955,46.45995824,72.84055918,49.1710621,49.1710621,46.45995824,45.17374955,72.84055918,-10,-0.33,0.33,10,59,49,58.67,59.33,69,10,10,10,10
,,,,,,,,,,,,,,,,,,,,,,,,,,,
6,17,0.045421,o,91.2,Limited Time,h,49.23989091,68.24281047,91.18799889,47.66626484,47.66626484,68.24281047,49.23989091,91.18799889,-10,-0.33,0.33,10,59,49,58.67,59.33,69,10,10,10,10
,,,,,,,,,,,,,,,,,,,,,,,,,,,
6,18,0.2116826,o,85.2,Limited Time,h,67.11233213,66.45614945,85.24784882,51.88533363,51.88533363,66.45614945,67.11233213,85.24784882,-10,-0.33,0.33,10,59,49,58.67,59.33,69,10,10,10,10
,,,,,,,,,,,,,,,,,,,,,,,,,,,
6,19,0.232355,o,59.4,Limited Time,h,45.7599525,40.85352417,59.42156559,40.79372914,40.79372914,40.85352417,45.7599525,59.42156559,-10,-0.33,0.33,10,59,49,58.67,59.33,69,10,10,10,10
,,,,,,,,,,,,,,,,,,,,,,,,,,,
6,20,0.2168045,o,72.7,Limited Time,h,39.91467142,33.88460883,72.65676142,53.13872747,53.13872747,33.88460883,39.91467142,72.65676142,-10,-0.33,0.33,10,59,49,58.67,59.33,69,10,10,10,10
,,,,,,,,,,,,,,,,,,,,,,,,,,,
7,1,0.339121,q,60.5,Unlimited Time,e,60.5378586,56.1662634,50.48297611,70.57505576,60.5378586,50.48297611,56.1662634,70.57505576,0,0,0,0,59,59,59,59,59,3.16227766,6.32455532,8.366600265,10
,,,,,,,,,,,,,,,,,,,,,,,,,,,
7,2,0.0151723,q,56.2,Unlimited Time,e,56.23228439,64.83747241,62.5461016,46.68992619,56.23228439,62.5461016,64.83747241,46.68992619,0,0,0,0,59,59,59,59,59,3.16227766,6.32455532,8.366600265,10
,,,,,,,,,,,,,,,,,,,,,,,,,,,
7,3,0.1591683,w,59.1,Unlimited Time,e,58.12839846,59.06591303,57.8742699,53.41309511,58.12839846,57.8742699,59.06591303,53.41309511,0,0,0,0,59,59,59,59,59,3.16227766,6.32455532,8.366600265,10
,,,,,,,,,,,,,,,,,,,,,,,,,,,
7,4,0.0761492,w,56.1,Unlimited Time,e,61.53681187,56.12476406,65.90438933,56.86576172,61.53681187,65.90438933,56.12476406,56.86576172,0,0,0,0,59,59,59,59,59,3.16227766,6.32455532,8.366600265,10
,,,,,,,,,,,,,,,,,,,,,,,,,,,
7,5,0.1302474,w,59.7,Unlimited Time,e,61.09388168,59.72227853,54.54890697,49.49195677,61.09388168,54.54890697,59.72227853,49.49195677,0,0,0,0,59,59,59,59,59,3.16227766,6.32455532,8.366600265,10
,,,,,,,,,,,,,,,,,,,,,,,,,,,
7,6,0.1945463,o,49.5,Unlimited Time,e,59.30614998,63.60219101,49.5256567,67.9287853,59.30614998,49.5256567,63.60219101,67.9287853,0,0,0,0,59,59,59,59,59,3.16227766,6.32455532,8.366600265,10
,,,,,,,,,,,,,,,,,,,,,,,,,,,
7,7,0.1972739,p,48.2,Unlimited Time,e,56.06649145,56.56494793,65.4469781,48.23554422,56.06649145,65.4469781,56.56494793,48.23554422,0,0,0,0,59,59,59,59,59,3.16227766,6.32455532,8.366600265,10
,,,,,,,,,,,,,,,,,,,,,,,,,,,
7,8,0.1939365,p,49.1,Unlimited Time,e,57.68865265,54.6665979,58.73320705,49.14722212,57.68865265,58.73320705,54.6665979,49.14722212,0,0,0,0,59,59,59,59,59,3.16227766,6.32455532,8.366600265,10
,,,,,,,,,,,,,,,,,,,,,,,,,,,
7,9,0.1607602,w,55.9,Unlimited Time,e,58.61120406,55.856059,58.63346142,50.93943117,58.61120406,58.63346142,55.856059,50.93943117,0,0,0,0,59,59,59,59,59,3.16227766,6.32455532,8.366600265,10
,,,,,,,,,,,,,,,,,,,,,,,,,,,
7,10,0.1569364,w,64.2,Unlimited Time,e,59.34466452,64.24134637,68.28990943,67.7317711,59.34466452,68.28990943,64.24134637,67.7317711,0,0,0,0,59,59,59,59,59,3.16227766,6.32455532,8.366600265,10
,,,,,,,,,,,,,,,,,,,,,,,,,,,
7,11,0.1623747,w,64.5,Unlimited Time,e,55.32001948,64.46003708,53.91383453,55.80490696,55.32001948,53.91383453,64.46003708,55.80490696,0,0,0,0,59,59,59,59,59,3.16227766,6.32455532,8.366600265,10
,,,,,,,,,,,,,,,,,,,,,,,,,,,
7,12,0.1181861,w,51,Unlimited Time,e,58.54602413,51.039997,58.75600218,66.87027978,58.54602413,58.75600218,51.039997,66.87027978,0,0,0,0,59,59,59,59,59,3.16227766,6.32455532,8.366600265,10
,,,,,,,,,,,,,,,,,,,,,,,,,,,
7,13,0.0672127,w,60.4,Unlimited Time,e,54.97048733,60.42103067,62.54767334,45.07109221,54.97048733,62.54767334,60.42103067,45.07109221,0,0,0,0,59,59,59,59,59,3.16227766,6.32455532,8.366600265,10
,,,,,,,,,,,,,,,,,,,,,,,,,,,
7,14,0.1671216,w,78.8,Unlimited Time,e,58.126168,78.82233992,63.23795217,80.3214375,58.126168,63.23795217,78.82233992,80.3214375,0,0,0,0,59,59,59,59,59,3.16227766,6.32455532,8.366600265,10
,,,,,,,,,,,,,,,,,,,,,,,,,,,
7,15,0.1238953,w,59.3,Unlimited Time,e,63.70168221,59.32535584,63.7255543,39.266269,63.70168221,63.7255543,59.32535584,39.266269,0,0,0,0,59,59,59,59,59,3.16227766,6.32455532,8.366600265,10
,,,,,,,,,,,,,,,,,,,,,,,,,,,
7,16,0.0957745,w,70.5,Unlimited Time,e,62.20416194,70.51484015,66.99840474,49.31532561,62.20416194,66.99840474,70.51484015,49.31532561,0,0,0,0,59,59,59,59,59,3.16227766,6.32455532,8.366600265,10
,,,,,,,,,,,,,,,,,,,,,,,,,,,
7,17,0.1562913,w,51.5,Unlimited Time,e,57.77528372,51.50916649,51.53023669,58.24371698,57.77528372,51.53023669,51.50916649,58.24371698,0,0,0,0,59,59,59,59,59,3.16227766,6.32455532,8.366600265,10
,,,,,,,,,,,,,,,,,,,,,,,,,,,
7,18,0.1178585,w,51.1,Unlimited Time,e,58.81926591,51.08340657,47.21266935,70.6751428,58.81926591,47.21266935,51.08340657,70.6751428,0,0,0,0,59,59,59,59,59,3.16227766,6.32455532,8.366600265,10
,,,,,,,,,,,,,,,,,,,,,,,,,,,
7,19,0.1167157,w,72.9,Unlimited Time,e,60.19410423,72.93203747,52.094607,68.0229672,60.19410423,52.094607,72.93203747,68.0229672,0,0,0,0,59,59,59,59,59,3.16227766,6.32455532,8.366600265,10
,,,,,,,,,,,,,,,,,,,,,,,,,,,
7,20,0.1302362,o,59.2,Unlimited Time,e,59.56729275,47.93264784,59.22162113,64.9093873,59.56729275,59.22162113,47.93264784,64.9093873,0,0,0,0,59,59,59,59,59,3.16227766,6.32455532,8.366600265,10
,,,,,,,,,,,,,,,,,,,,,,,,,,,
8,1,0.3132831,q,46.8,Limited Time,l,46.78025025,68.912002,60.81641248,67.98998326,46.78025025,60.81641248,68.912002,67.98998326,-10,-0.33,0.33,10,59,49,58.67,59.33,69,3.16227766,3.16227766,3.16227766,3.16227766
,,,,,,,,,,,,,,,,,,,,,,,,,,,
8,2,0.2049027,w,60.8,Limited Time,l,46.92753197,60.8137987,53.40995098,65.4188713,46.92753197,53.40995098,60.8137987,65.4188713,-10,-0.33,0.33,10,59,49,58.67,59.33,69,3.16227766,3.16227766,3.16227766,3.16227766
,,,,,,,,,,,,,,,,,,,,,,,,,,,
8,3,0.1981389,o,61.3,Limited Time,l,42.88993313,60.72239098,61.27872836,67.82986405,42.88993313,61.27872836,60.72239098,67.82986405,-10,-0.33,0.33,10,59,49,58.67,59.33,69,3.16227766,3.16227766,3.16227766,3.16227766
,,,,,,,,,,,,,,,,,,,,,,,,,,,
8,4,0.2062837,p,69.3,Limited Time,l,53.16487213,65.08635666,56.02228844,69.34623932,53.16487213,56.02228844,65.08635666,69.34623932,-10,-0.33,0.33,10,59,49,58.67,59.33,69,3.16227766,3.16227766,3.16227766,3.16227766
,,,,,,,,,,,,,,,,,,,,,,,,,,,
8,5,0.0311812,p,60.6,Limited Time,l,48.61323302,62.42750439,60.74048641,60.63928759,48.61323302,60.74048641,62.42750439,60.63928759,-10,-0.33,0.33,10,59,49,58.67,59.33,69,3.16227766,3.16227766,3.16227766,3.16227766
,,,,,,,,,,,,,,,,,,,,,,,,,,,
8,6,0.1345573,o,62.9,Limited Time,l,49.93431209,60.07135259,62.94915207,70.33028791,49.93431209,62.94915207,60.07135259,70.33028791,-10,-0.33,0.33,10,59,49,58.67,59.33,69,3.16227766,3.16227766,3.16227766,3.16227766
,,,,,,,,,,,,,,,,,,,,,,,,,,,
8,7,0.0548352,p,68.3,Limited Time,l,47.3235267,57.72880198,57.68844225,68.28035595,47.3235267,57.68844225,57.72880198,68.28035595,-10,-0.33,0.33,10,59,49,58.67,59.33,69,3.16227766,3.16227766,3.16227766,3.16227766
,,,,,,,,,,,,,,,,,,,,,,,,,,,
8,8,0.0614568,p,66.5,Limited Time,l,49.52703746,60.14243372,65.09767957,66.46606537,49.52703746,65.09767957,60.14243372,66.46606537,-10,-0.33,0.33,10,59,49,58.67,59.33,69,3.16227766,3.16227766,3.16227766,3.16227766
,,,,,,,,,,,,,,,,,,,,,,,,,,,
8,9,0.0155443,p,65.8,Limited Time,l,45.37007035,55.56466504,56.96173978,65.81840734,45.37007035,56.96173978,55.56466504,65.81840734,-10,-0.33,0.33,10,59,49,58.67,59.33,69,3.16227766,3.16227766,3.16227766,3.16227766
,,,,,,,,,,,,,,,,,,,,,,,,,,,
8,10,0.0204867,p,67,Limited Time,l,49.30723359,57.69280763,58.21516462,66.96366851,49.30723359,58.21516462,57.69280763,66.96366851,-10,-0.33,0.33,10,59,49,58.67,59.33,69,3.16227766,3.16227766,3.16227766,3.16227766
,,,,,,,,,,,,,,,,,,,,,,,,,,,
8,11,0.1276021,p,70.5,Limited Time,l,53.36803854,61.82529044,59.75503489,70.47081595,53.36803854,59.75503489,61.82529044,70.47081595,-10,-0.33,0.33,10,59,49,58.67,59.33,69,3.16227766,3.16227766,3.16227766,3.16227766
,,,,,,,,,,,,,,,,,,,,,,,,,,,
8,12,0.0400588,p,64.7,Limited Time,l,49.54160875,57.53617869,56.20053972,64.74569066,49.54160875,56.20053972,57.53617869,64.74569066,-10,-0.33,0.33,10,59,49,58.67,59.33,69,3.16227766,3.16227766,3.16227766,3.16227766
,,,,,,,,,,,,,,,,,,,,,,,,,,,
8,13,0.0458775,p,67.3,Limited Time,l,52.9342171,60.38437694,56.40658818,67.34019055,52.9342171,56.40658818,60.38437694,67.34019055,-10,-0.33,0.33,10,59,49,58.67,59.33,69,3.16227766,3.16227766,3.16227766,3.16227766
,,,,,,,,,,,,,,,,,,,,,,,,,,,
8,14,0.230134,p,64,Limited Time,l,51.62608666,59.49364136,56.5465534,63.97810252,51.62608666,56.5465534,59.49364136,63.97810252,-10,-0.33,0.33,10,59,49,58.67,59.33,69,3.16227766,3.16227766,3.16227766,3.16227766
,,,,,,,,,,,,,,,,,,,,,,,,,,,
8,15,0.1679126,p,65.2,Limited Time,l,47.23027617,57.28270023,59.97261119,65.23600009,47.23027617,59.97261119,57.28270023,65.23600009,-10,-0.33,0.33,10,59,49,58.67,59.33,69,3.16227766,3.16227766,3.16227766,3.16227766
,,,,,,,,,,,,,,,,,,,,,,,,,,,
8,16,0.0611828,p,64.2,Limited Time,l,45.81750236,57.48504205,61.94996923,64.18309649,45.81750236,61.94996923,57.48504205,64.18309649,-10,-0.33,0.33,10,59,49,58.67,59.33,69,3.16227766,3.16227766,3.16227766,3.16227766
,,,,,,,,,,,,,,,,,,,,,,,,,,,
8,17,0.0778395,p,67.9,Limited Time,l,47.68239146,60.016659,59.14339681,67.88206375,47.68239146,59.14339681,60.016659,67.88206375,-10,-0.33,0.33,10,59,49,58.67,59.33,69,3.16227766,3.16227766,3.16227766,3.16227766
,,,,,,,,,,,,,,,,,,,,,,,,,,,
8,18,0.0505698,p,63.1,Limited Time,l,47.90276806,55.8912355,60.05018963,63.13957438,47.90276806,60.05018963,55.8912355,63.13957438,-10,-0.33,0.33,10,59,49,58.67,59.33,69,3.16227766,3.16227766,3.16227766,3.16227766
,,,,,,,,,,,,,,,,,,,,,,,,,,,
8,19,0.1174438,w,53.9,Limited Time,l,44.38041304,53.91930739,58.64178758,68.8275588,44.38041304,58.64178758,53.91930739,68.8275588,-10,-0.33,0.33,10,59,49,58.67,59.33,69,3.16227766,3.16227766,3.16227766,3.16227766
,,,,,,,,,,,,,,,,,,,,,,,,,,,
8,20,0.0677341,w,58.9,Limited Time,l,50.5889502,58.85114531,51.97360415,75.63591033,50.5889502,51.97360415,58.85114531,75.63591033,-10,-0.33,0.33,10,59,49,58.67,59.33,69,3.16227766,3.16227766,3.16227766,3.16227766
,,,,,,,,,,,,,,,,,,,,,,,,,,,
9,1,0.3411125,q,46.8,Unlimited Time,l,46.78025025,60.81641248,67.98998326,68.912002,46.78025025,60.81641248,68.912002,67.98998326,-10,-0.33,0.33,10,59,49,58.67,59.33,69,3.16227766,3.16227766,3.16227766,3.16227766
,,,,,,,,,,,,,,,,,,,,,,,,,,,
9,2,0.1012447,q,46.9,Unlimited Time,l,46.92753197,53.40995098,65.4188713,60.8137987,46.92753197,53.40995098,60.8137987,65.4188713,-10,-0.33,0.33,10,59,49,58.67,59.33,69,3.16227766,3.16227766,3.16227766,3.16227766
,,,,,,,,,,,,,,,,,,,,,,,,,,,
9,3,0.0855881,p,60.7,Unlimited Time,l,42.88993313,61.27872836,67.82986405,60.72239098,42.88993313,61.27872836,60.72239098,67.82986405,-10,-0.33,0.33,10,59,49,58.67,59.33,69,3.16227766,3.16227766,3.16227766,3.16227766
,,,,,,,,,,,,,,,,,,,,,,,,,,,
9,4,0.1290111,o,69.3,Unlimited Time,l,53.16487213,56.02228844,69.34623932,65.08635666,53.16487213,56.02228844,65.08635666,69.34623932,-10,-0.33,0.33,10,59,49,58.67,59.33,69,3.16227766,3.16227766,3.16227766,3.16227766
,,,,,,,,,,,,,,,,,,,,,,,,,,,
9,5,0.0612376,o,60.6,Unlimited Time,l,48.61323302,60.74048641,60.63928759,62.42750439,48.61323302,60.74048641,62.42750439,60.63928759,-10,-0.33,0.33,10,59,49,58.67,59.33,69,3.16227766,3.16227766,3.16227766,3.16227766
,,,,,,,,,,,,,,,,,,,,,,,,,,,
9,6,0.0412701,w,62.9,Unlimited Time,l,49.93431209,62.94915207,70.33028791,60.07135259,49.93431209,62.94915207,60.07135259,70.33028791,-10,-0.33,0.33,10,59,49,58.67,59.33,69,3.16227766,3.16227766,3.16227766,3.16227766
,,,,,,,,,,,,,,,,,,,,,,,,,,,
9,7,0.1557741,w,57.7,Unlimited Time,l,47.3235267,57.68844225,68.28035595,57.72880198,47.3235267,57.68844225,57.72880198,68.28035595,-10,-0.33,0.33,10,59,49,58.67,59.33,69,3.16227766,3.16227766,3.16227766,3.16227766
,,,,,,,,,,,,,,,,,,,,,,,,,,,
9,8,0.203048,w,65.1,Unlimited Time,l,49.52703746,65.09767957,66.46606537,60.14243372,49.52703746,65.09767957,60.14243372,66.46606537,-10,-0.33,0.33,10,59,49,58.67,59.33,69,3.16227766,3.16227766,3.16227766,3.16227766
,,,,,,,,,,,,,,,,,,,,,,,,,,,
9,9,0.2489468,o,65.8,Unlimited Time,l,45.37007035,56.96173978,65.81840734,55.56466504,45.37007035,56.96173978,55.56466504,65.81840734,-10,-0.33,0.33,10,59,49,58.67,59.33,69,3.16227766,3.16227766,3.16227766,3.16227766
,,,,,,,,,,,,,,,,,,,,,,,,,,,
9,10,0.1142575,p,57.7,Unlimited Time,l,49.30723359,58.21516462,66.96366851,57.69280763,49.30723359,58.21516462,57.69280763,66.96366851,-10,-0.33,0.33,10,59,49,58.67,59.33,69,3.16227766,3.16227766,3.16227766,3.16227766
,,,,,,,,,,,,,,,,,,,,,,,,,,,
9,11,0.0699983,p,61.8,Unlimited Time,l,53.36803854,59.75503489,70.47081595,61.82529044,53.36803854,59.75503489,61.82529044,70.47081595,-10,-0.33,0.33,10,59,49,58.67,59.33,69,3.16227766,3.16227766,3.16227766,3.16227766
,,,,,,,,,,,,,,,,,,,,,,,,,,,
9,12,0.1171675,o,64.7,Unlimited Time,l,49.54160875,56.20053972,64.74569066,57.53617869,49.54160875,56.20053972,57.53617869,64.74569066,-10,-0.33,0.33,10,59,49,58.67,59.33,69,3.16227766,3.16227766,3.16227766,3.16227766
,,,,,,,,,,,,,,,,,,,,,,,,,,,
9,13,0.0834896,o,67.3,Unlimited Time,l,52.9342171,56.40658818,67.34019055,60.38437694,52.9342171,56.40658818,60.38437694,67.34019055,-10,-0.33,0.33,10,59,49,58.67,59.33,69,3.16227766,3.16227766,3.16227766,3.16227766
,,,,,,,,,,,,,,,,,,,,,,,,,,,
9,14,0.0791211,o,64,Unlimited Time,l,51.62608666,56.5465534,63.97810252,59.49364136,51.62608666,56.5465534,59.49364136,63.97810252,-10,-0.33,0.33,10,59,49,58.67,59.33,69,3.16227766,3.16227766,3.16227766,3.16227766
,,,,,,,,,,,,,,,,,,,,,,,,,,,
9,15,0.0506693,o,65.2,Unlimited Time,l,47.23027617,59.97261119,65.23600009,57.28270023,47.23027617,59.97261119,57.28270023,65.23600009,-10,-0.33,0.33,10,59,49,58.67,59.33,69,3.16227766,3.16227766,3.16227766,3.16227766
,,,,,,,,,,,,,,,,,,,,,,,,,,,
9,16,0.0300736,o,64.2,Unlimited Time,l,45.81750236,61.94996923,64.18309649,57.48504205,45.81750236,61.94996923,57.48504205,64.18309649,-10,-0.33,0.33,10,59,49,58.67,59.33,69,3.16227766,3.16227766,3.16227766,3.16227766
,,,,,,,,,,,,,,,,,,,,,,,,,,,
9,17,0.0658707,o,67.9,Unlimited Time,l,47.68239146,59.14339681,67.88206375,60.016659,47.68239146,59.14339681,60.016659,67.88206375,-10,-0.33,0.33,10,59,49,58.67,59.33,69,3.16227766,3.16227766,3.16227766,3.16227766
,,,,,,,,,,,,,,,,,,,,,,,,,,,
9,18,0.0931128,o,63.1,Unlimited Time,l,47.90276806,60.05018963,63.13957438,55.8912355,47.90276806,60.05018963,55.8912355,63.13957438,-10,-0.33,0.33,10,59,49,58.67,59.33,69,3.16227766,3.16227766,3.16227766,3.16227766
,,,,,,,,,,,,,,,,,,,,,,,,,,,
9,19,0.0015519,o,68.8,Unlimited Time,l,44.38041304,58.64178758,68.8275588,53.91930739,44.38041304,58.64178758,53.91930739,68.8275588,-10,-0.33,0.33,10,59,49,58.67,59.33,69,3.16227766,3.16227766,3.16227766,3.16227766
,,,,,,,,,,,,,,,,,,,,,,,,,,,
9,20,0.0225312,o,75.6,Unlimited Time,l,50.5889502,51.97360415,75.63591033,58.85114531,50.5889502,51.97360415,58.85114531,75.63591033,-10,-0.33,0.33,10,59,49,58.67,59.33,69,3.16227766,3.16227766,3.16227766,3.16227766
,,,,,,,,,,,,,,,,,,,,,,,,,,,
10,1,0.3282187,q,58.8,Limited Time,i,58.83196902,53.48104112,66.88825124,52.79186474,53.48104112,52.79186474,66.88825124,58.83196902,-10,-10,10,10,59,49,49,69,69,3.16227766,10,3.16227766,10
,,,,,,,,,,,,,,,,,,,,,,,,,,,
10,2,0.2171872,w,52.1,Limited Time,i,70.62561427,52.05106544,75.83698208,41.12484216,52.05106544,41.12484216,75.83698208,70.62561427,-10,-10,10,10,59,49,49,69,69,3.16227766,10,3.16227766,10
,,,,,,,,,,,,,,,,,,,,,,,,,,,
10,3,0.24804,w,48.7,Limited Time,i,86.03380109,48.74463316,68.84913328,42.73038257,48.74463316,42.73038257,68.84913328,86.03380109,-10,-10,10,10,59,49,49,69,69,3.16227766,10,3.16227766,10
,,,,,,,,,,,,,,,,,,,,,,,,,,,
10,4,0.0457404,p,66.2,Limited Time,i,54.92494976,46.97818873,77.2988861,66.16686427,46.97818873,66.16686427,77.2988861,54.92494976,-10,-10,10,10,59,49,49,69,69,3.16227766,10,3.16227766,10
,,,,,,,,,,,,,,,,,,,,,,,,,,,
10,5,0.10908,o,70.6,Limited Time,i,61.8435511,43.04426016,70.59514202,55.04159917,43.04426016,55.04159917,70.59514202,61.8435511,-10,-10,10,10,59,49,49,69,69,3.16227766,10,3.16227766,10
,,,,,,,,,,,,,,,,,,,,,,,,,,,
10,6,0.0239583,o,62.4,Limited Time,i,71.45328403,46.43935644,62.40728563,32.80109305,46.43935644,32.80109305,62.40728563,71.45328403,-10,-10,10,10,59,49,49,69,69,3.16227766,10,3.16227766,10
,,,,,,,,,,,,,,,,,,,,,,,,,,,
10,7,0.213596,o,66.6,Limited Time,i,74.7617616,54.82232683,66.57413618,54.73078963,54.82232683,54.73078963,66.57413618,74.7617616,-10,-10,10,10,59,49,49,69,69,3.16227766,10,3.16227766,10
,,,,,,,,,,,,,,,,,,,,,,,,,,,
10,8,0.2721777,o,68,Limited Time,i,70.89352403,44.44685984,68.02351207,38.16851884,44.44685984,38.16851884,68.02351207,70.89352403,-10,-10,10,10,59,49,49,69,69,3.16227766,10,3.16227766,10
,,,,,,,,,,,,,,,,,,,,,,,,,,,
10,9,0.0083133,o,72.8,Limited Time,i,82.16756028,45.94980506,72.84510322,62.5478413,45.94980506,62.5478413,72.84510322,82.16756028,-10,-10,10,10,59,49,49,69,69,3.16227766,10,3.16227766,10
,,,,,,,,,,,,,,,,,,,,,,,,,,,
10,10,0.0194434,o,69.5,Limited Time,i,68.80004738,53.57448859,69.50530402,40.21194252,53.57448859,40.21194252,69.50530402,68.80004738,-10,-10,10,10,59,49,49,69,69,3.16227766,10,3.16227766,10
,,,,,,,,,,,,,,,,,,,,,,,,,,,
10,11,0.0316607,o,63.1,Limited Time,i,58.48983721,48.76008971,63.06087039,31.22999094,48.76008971,31.22999094,63.06087039,58.48983721,-10,-10,10,10,59,49,49,69,69,3.16227766,10,3.16227766,10
,,,,,,,,,,,,,,,,,,,,,,,,,,,
10,12,0.0681309,o,73.3,Limited Time,i,69.56173927,57.4490601,73.25898536,45.25287459,57.4490601,45.25287459,73.25898536,69.56173927,-10,-10,10,10,59,49,49,69,69,3.16227766,10,3.16227766,10
,,,,,,,,,,,,,,,,,,,,,,,,,,,
10,13,0.0438591,o,63,Limited Time,i,62.95103037,50.65035883,62.95403795,37.79039447,50.65035883,37.79039447,62.95403795,62.95103037,-10,-10,10,10,59,49,49,69,69,3.16227766,10,3.16227766,10
,,,,,,,,,,,,,,,,,,,,,,,,,,,
10,14,0.0349756,o,66.9,Limited Time,i,86.18981351,54.20848752,66.85745434,46.5642265,54.20848752,46.5642265,66.85745434,86.18981351,-10,-10,10,10,59,49,49,69,69,3.16227766,10,3.16227766,10
,,,,,,,,,,,,,,,,,,,,,,,,,,,
10,15,0.0810209,o,69.7,Limited Time,i,43.69533911,48.11693645,69.73879387,40.49153246,48.11693645,40.49153246,69.73879387,43.69533911,-10,-10,10,10,59,49,49,69,69,3.16227766,10,3.16227766,10
,,,,,,,,,,,,,,,,,,,,,,,,,,,
10,16,0.0950839,o,68.3,Limited Time,i,70.37660179,49.97017344,68.32514752,56.73903821,49.97017344,56.73903821,68.32514752,70.37660179,-10,-10,10,10,59,49,49,69,69,3.16227766,10,3.16227766,10
,,,,,,,,,,,,,,,,,,,,,,,,,,,
10,17,0.0510558,o,64.6,Limited Time,i,71.09431059,48.13218439,64.60720134,48.36813058,48.13218439,48.36813058,64.60720134,71.09431059,-10,-10,10,10,59,49,49,69,69,3.16227766,10,3.16227766,10
,,,,,,,,,,,,,,,,,,,,,,,,,,,
10,18,0.0686597,o,64.6,Limited Time,i,53.84645589,47.38519446,64.57244712,32.71562126,47.38519446,32.71562126,64.57244712,53.84645589,-10,-10,10,10,59,49,49,69,69,3.16227766,10,3.16227766,10
,,,,,,,,,,,,,,,,,,,,,,,,,,,
10,19,0.0502482,o,63.3,Limited Time,i,76.94737658,47.63471108,63.26826681,53.82274988,47.63471108,53.82274988,63.26826681,76.94737658,-10,-10,10,10,59,49,49,69,69,3.16227766,10,3.16227766,10
,,,,,,,,,,,,,,,,,,,,,,,,,,,
10,20,0.0250772,o,71.6,Limited Time,i,73.10960915,48.90917717,71.56576645,32.20171083,48.90917717,32.20171083,71.56576645,73.10960915,-10,-10,10,10,59,49,49,69,69,3.16227766,10,3.16227766,10
,,,,,,,,,,,,,,,,,,,,,,,,,,,
11,1,0.2577159,q,63.7,Unlimited Time,h,63.67682304,68.19329621,59.3454195,43.3020035,43.3020035,63.67682304,68.19329621,59.3454195,-10,-0.33,0.33,10,59,49,58.67,59.33,69,10,10,10,10
,,,,,,,,,,,,,,,,,,,,,,,,,,,
11,2,0.1824082,q,46.5,Unlimited Time,h,46.48296327,54.11089844,75.21990206,41.3945191,41.3945191,46.48296327,54.11089844,75.21990206,-10,-0.33,0.33,10,59,49,58.67,59.33,69,10,10,10,10
,,,,,,,,,,,,,,,,,,,,,,,,,,,
11,3,0.0763962,q,70.3,Unlimited Time,h,70.26076701,57.4083031,68.75583065,46.38784963,46.38784963,70.26076701,57.4083031,68.75583065,-10,-0.33,0.33,10,59,49,58.67,59.33,69,10,10,10,10
,,,,,,,,,,,,,,,,,,,,,,,,,,,
11,4,0.2051039,w,54.1,Unlimited Time,h,51.97718531,54.13748091,68.4532299,51.34798479,51.34798479,51.97718531,54.13748091,68.4532299,-10,-0.33,0.33,10,59,49,58.67,59.33,69,10,10,10,10
,,,,,,,,,,,,,,,,,,,,,,,,,,,
11,5,0.0157229,q,66.9,Unlimited Time,h,66.94261431,52.04785992,53.25991635,41.33621334,41.33621334,66.94261431,52.04785992,53.25991635,-10,-0.33,0.33,10,59,49,58.67,59.33,69,10,10,10,10
,,,,,,,,,,,,,,,,,,,,,,,,,,,
11,6,0.3299636,q,61.1,Unlimited Time,h,61.07772203,46.0201605,68.65622575,51.26652723,51.26652723,61.07772203,46.0201605,68.65622575,-10,-0.33,0.33,10,59,49,58.67,59.33,69,10,10,10,10
,,,,,,,,,,,,,,,,,,,,,,,,,,,
11,7,0.0129164,q,43.7,Unlimited Time,h,43.6770116,62.59912437,63.5723607,53.76799538,53.76799538,43.6770116,62.59912437,63.5723607,-10,-0.33,0.33,10,59,49,58.67,59.33,69,10,10,10,10
,,,,,,,,,,,,,,,,,,,,,,,,,,,
11,8,0.145913,q,55,Unlimited Time,h,55.02844398,65.10211949,85.41082242,51.03533111,51.03533111,55.02844398,65.10211949,85.41082242,-10,-0.33,0.33,10,59,49,58.67,59.33,69,10,10,10,10
,,,,,,,,,,,,,,,,,,,,,,,,,,,
11,9,0.1169979,p,33.6,Unlimited Time,h,56.09568562,55.23964831,49.30636404,33.5620441,33.5620441,56.09568562,55.23964831,49.30636404,-10,-0.33,0.33,10,59,49,58.67,59.33,69,10,10,10,10
,,,,,,,,,,,,,,,,,,,,,,,,,,,
11,10,0.1548153,p,59.9,Unlimited Time,h,49.97892371,63.96674842,72.26617095,59.94079095,59.94079095,49.97892371,63.96674842,72.26617095,-10,-0.33,0.33,10,59,49,58.67,59.33,69,10,10,10,10
,,,,,,,,,,,,,,,,,,,,,,,,,,,
11,11,0.4707171,o,64.4,Unlimited Time,h,69.7150596,42.79677502,64.40906965,46.48004576,46.48004576,69.7150596,42.79677502,64.40906965,-10,-0.33,0.33,10,59,49,58.67,59.33,69,10,10,10,10
,,,,,,,,,,,,,,,,,,,,,,,,,,,
11,12,0.1985109,o,76.5,Unlimited Time,h,63.77752638,57.51266021,76.52403967,44.41938815,44.41938815,63.77752638,57.51266021,76.52403967,-10,-0.33,0.33,10,59,49,58.67,59.33,69,10,10,10,10
,,,,,,,,,,,,,,,,,,,,,,,,,,,
11,13,0.2063949,o,73.4,Unlimited Time,h,61.23721352,51.3965331,73.39218535,38.23864749,38.23864749,61.23721352,51.3965331,73.39218535,-10,-0.33,0.33,10,59,49,58.67,59.33,69,10,10,10,10
,,,,,,,,,,,,,,,,,,,,,,,,,,,
11,14,0.0332572,o,68.4,Unlimited Time,h,76.30215551,53.10220326,68.40573791,53.16947479,53.16947479,76.30215551,53.10220326,68.40573791,-10,-0.33,0.33,10,59,49,58.67,59.33,69,10,10,10,10
,,,,,,,,,,,,,,,,,,,,,,,,,,,
11,15,0.0266293,o,77.1,Unlimited Time,h,60.15805246,64.80155207,77.12215944,38.07867877,38.07867877,60.15805246,64.80155207,77.12215944,-10,-0.33,0.33,10,59,49,58.67,59.33,69,10,10,10,10
,,,,,,,,,,,,,,,,,,,,,,,,,,,
11,16,0.0714699,o,72.8,Unlimited Time,h,46.45995824,45.17374955,72.84055918,49.1710621,49.1710621,46.45995824,45.17374955,72.84055918,-10,-0.33,0.33,10,59,49,58.67,59.33,69,10,10,10,10
,,,,,,,,,,,,,,,,,,,,,,,,,,,
11,17,0.0151391,o,91.2,Unlimited Time,h,68.24281047,49.23989091,91.18799889,47.66626484,47.66626484,68.24281047,49.23989091,91.18799889,-10,-0.33,0.33,10,59,49,58.67,59.33,69,10,10,10,10
,,,,,,,,,,,,,,,,,,,,,,,,,,,
11,18,0.0851463,o,85.2,Unlimited Time,h,66.45614945,67.11233213,85.24784882,51.88533363,51.88533363,66.45614945,67.11233213,85.24784882,-10,-0.33,0.33,10,59,49,58.67,59.33,69,10,10,10,10
,,,,,,,,,,,,,,,,,,,,,,,,,,,
11,19,0.0334508,o,59.4,Unlimited Time,h,40.85352417,45.7599525,59.42156559,40.79372914,40.79372914,40.85352417,45.7599525,59.42156559,-10,-0.33,0.33,10,59,49,58.67,59.33,69,10,10,10,10
,,,,,,,,,,,,,,,,,,,,,,,,,,,
11,20,0.0752533,o,72.7,Unlimited Time,h,33.88460883,39.91467142,72.65676142,53.13872747,53.13872747,33.88460883,39.91467142,72.65676142,-10,-0.33,0.33,10,59,49,58.67,59.33,69,10,10,10,10
,,,,,,,,,,,,,,,,,,,,,,,,,,,
12,1,0.2968473,q,50.5,Limited Time,e,50.48297611,70.57505576,56.1662634,60.5378586,60.5378586,50.48297611,56.1662634,70.57505576,0,0,0,0,59,59,59,59,59,3.16227766,6.32455532,8.366600265,10
,,,,,,,,,,,,,,,,,,,,,,,,,,,
12,2,0.154807,q,62.5,Limited Time,e,62.5461016,46.68992619,64.83747241,56.23228439,56.23228439,62.5461016,64.83747241,46.68992619,0,0,0,0,59,59,59,59,59,3.16227766,6.32455532,8.366600265,10
,,,,,,,,,,,,,,,,,,,,,,,,,,,
12,3,0.020872,w,53.4,Limited Time,e,57.8742699,53.41309511,59.06591303,58.12839846,58.12839846,57.8742699,59.06591303,53.41309511,0,0,0,0,59,59,59,59,59,3.16227766,6.32455532,8.366600265,10
,,,,,,,,,,,,,,,,,,,,,,,,,,,
12,4,0.2173921,w,56.9,Limited Time,e,65.90438933,56.86576172,56.12476406,61.53681187,61.53681187,65.90438933,56.12476406,56.86576172,0,0,0,0,59,59,59,59,59,3.16227766,6.32455532,8.366600265,10
,,,,,,,,,,,,,,,,,,,,,,,,,,,
12,5,0.094847,o,59.7,Limited Time,e,54.54890697,49.49195677,59.72227853,61.09388168,61.09388168,54.54890697,59.72227853,49.49195677,0,0,0,0,59,59,59,59,59,3.16227766,6.32455532,8.366600265,10
,,,,,,,,,,,,,,,,,,,,,,,,,,,
12,6,0.0245024,o,63.6,Limited Time,e,49.5256567,67.9287853,63.60219101,59.30614998,59.30614998,49.5256567,63.60219101,67.9287853,0,0,0,0,59,59,59,59,59,3.16227766,6.32455532,8.366600265,10
,,,,,,,,,,,,,,,,,,,,,,,,,,,
12,7,0.0417661,p,56.1,Limited Time,e,65.4469781,48.23554422,56.56494793,56.06649145,56.06649145,65.4469781,56.56494793,48.23554422,0,0,0,0,59,59,59,59,59,3.16227766,6.32455532,8.366600265,10
,,,,,,,,,,,,,,,,,,,,,,,,,,,
12,8,0.0126327,p,57.7,Limited Time,e,58.73320705,49.14722212,54.6665979,57.68865265,57.68865265,58.73320705,54.6665979,49.14722212,0,0,0,0,59,59,59,59,59,3.16227766,6.32455532,8.366600265,10
,,,,,,,,,,,,,,,,,,,,,,,,,,,
12,9,0.0275922,p,58.6,Limited Time,e,58.63346142,50.93943117,55.856059,58.61120406,58.61120406,58.63346142,55.856059,50.93943117,0,0,0,0,59,59,59,59,59,3.16227766,6.32455532,8.366600265,10
,,,,,,,,,,,,,,,,,,,,,,,,,,,
12,10,0.0977137,o,64.2,Limited Time,e,68.28990943,67.7317711,64.24134637,59.34466452,59.34466452,68.28990943,64.24134637,67.7317711,0,0,0,0,59,59,59,59,59,3.16227766,6.32455532,8.366600265,10
,,,,,,,,,,,,,,,,,,,,,,,,,,,
12,11,0.0165294,o,64.5,Limited Time,e,53.91383453,55.80490696,64.46003708,55.32001948,55.32001948,53.91383453,64.46003708,55.80490696,0,0,0,0,59,59,59,59,59,3.16227766,6.32455532,8.366600265,10
,,,,,,,,,,,,,,,,,,,,,,,,,,,
12,12,0.0331337,o,51,Limited Time,e,58.75600218,66.87027978,51.039997,58.54602413,58.54602413,58.75600218,51.039997,66.87027978,0,0,0,0,59,59,59,59,59,3.16227766,6.32455532,8.366600265,10
,,,,,,,,,,,,,,,,,,,,,,,,,,,
12,13,0.0186468,o,60.4,Limited Time,e,62.54767334,45.07109221,60.42103067,54.97048733,54.97048733,62.54767334,60.42103067,45.07109221,0,0,0,0,59,59,59,59,59,3.16227766,6.32455532,8.366600265,10
,,,,,,,,,,,,,,,,,,,,,,,,,,,
12,14,0.1050626,o,78.8,Limited Time,e,63.23795217,80.3214375,78.82233992,58.126168,58.126168,63.23795217,78.82233992,80.3214375,0,0,0,0,59,59,59,59,59,3.16227766,6.32455532,8.366600265,10
,,,,,,,,,,,,,,,,,,,,,,,,,,,
12,15,0.0571798,o,59.3,Limited Time,e,63.7255543,39.266269,59.32535584,63.70168221,63.70168221,63.7255543,59.32535584,39.266269,0,0,0,0,59,59,59,59,59,3.16227766,6.32455532,8.366600265,10
,,,,,,,,,,,,,,,,,,,,,,,,,,,
12,16,0.0922093,o,70.5,Limited Time,e,66.99840474,49.31532561,70.51484015,62.20416194,62.20416194,66.99840474,70.51484015,49.31532561,0,0,0,0,59,59,59,59,59,3.16227766,6.32455532,8.366600265,10
,,,,,,,,,,,,,,,,,,,,,,,,,,,
12,17,0.068235,o,51.5,Limited Time,e,51.53023669,58.24371698,51.50916649,57.77528372,57.77528372,51.53023669,51.50916649,58.24371698,0,0,0,0,59,59,59,59,59,3.16227766,6.32455532,8.366600265,10
,,,,,,,,,,,,,,,,,,,,,,,,,,,
12,18,0.0769624,o,51.1,Limited Time,e,47.21266935,70.6751428,51.08340657,58.81926591,58.81926591,47.21266935,51.08340657,70.6751428,0,0,0,0,59,59,59,59,59,3.16227766,6.32455532,8.366600265,10
,,,,,,,,,,,,,,,,,,,,,,,,,,,
12,19,0.0962816,o,72.9,Limited Time,e,52.094607,68.0229672,72.93203747,60.19410423,60.19410423,52.094607,72.93203747,68.0229672,0,0,0,0,59,59,59,59,59,3.16227766,6.32455532,8.366600265,10
,,,,,,,,,,,,,,,,,,,,,,,,,,,
12,20,0.0970049,o,47.9,Limited Time,e,59.22162113,64.9093873,47.93264784,59.56729275,59.56729275,59.22162113,47.93264784,64.9093873,0,0,0,0,59,59,59,59,59,3.16227766,6.32455532,8.366600265,10
,,,,,,,,,,,,,,,,,,,,,,,,,,,
13,1,0.3589843,q,50.5,Unlimited Time,e,50.48297611,70.57505576,56.1662634,60.5378586,60.5378586,50.48297611,56.1662634,70.57505576,0,0,0,0,59,59,59,59,59,3.16227766,6.32455532,8.366600265,10
,,,,,,,,,,,,,,,,,,,,,,,,,,,
13,2,0.0005842,q,62.5,Unlimited Time,e,62.5461016,46.68992619,64.83747241,56.23228439,56.23228439,62.5461016,64.83747241,46.68992619,0,0,0,0,59,59,59,59,59,3.16227766,6.32455532,8.366600265,10
,,,,,,,,,,,,,,,,,,,,,,,,,,,
13,3,0.0691328,w,53.4,Unlimited Time,e,57.8742699,53.41309511,59.06591303,58.12839846,58.12839846,57.8742699,59.06591303,53.41309511,0,0,0,0,59,59,59,59,59,3.16227766,6.32455532,8.366600265,10
,,,,,,,,,,,,,,,,,,,,,,,,,,,
13,4,0.1672527,w,56.9,Unlimited Time,e,65.90438933,56.86576172,56.12476406,61.53681187,61.53681187,65.90438933,56.12476406,56.86576172,0,0,0,0,59,59,59,59,59,3.16227766,6.32455532,8.366600265,10
,,,,,,,,,,,,,,,,,,,,,,,,,,,
13,5,0.1058259,o,59.7,Unlimited Time,e,54.54890697,49.49195677,59.72227853,61.09388168,61.09388168,54.54890697,59.72227853,49.49195677,0,0,0,0,59,59,59,59,59,3.16227766,6.32455532,8.366600265,10
,,,,,,,,,,,,,,,,,,,,,,,,,,,
13,6,0.1247826,p,59.3,Unlimited Time,e,49.5256567,67.9287853,63.60219101,59.30614998,59.30614998,49.5256567,63.60219101,67.9287853,0,0,0,0,59,59,59,59,59,3.16227766,6.32455532,8.366600265,10
,,,,,,,,,,,,,,,,,,,,,,,,,,,
13,7,0.0062004,p,56.1,Unlimited Time,e,65.4469781,48.23554422,56.56494793,56.06649145,56.06649145,65.4469781,56.56494793,48.23554422,0,0,0,0,59,59,59,59,59,3.16227766,6.32455532,8.366600265,10
,,,,,,,,,,,,,,,,,,,,,,,,,,,
13,8,0.0706518,p,57.7,Unlimited Time,e,58.73320705,49.14722212,54.6665979,57.68865265,57.68865265,58.73320705,54.6665979,49.14722212,0,0,0,0,59,59,59,59,59,3.16227766,6.32455532,8.366600265,10
,,,,,,,,,,,,,,,,,,,,,,,,,,,
13,9,0.1266621,p,58.6,Unlimited Time,e,58.63346142,50.93943117,55.856059,58.61120406,58.61120406,58.63346142,55.856059,50.93943117,0,0,0,0,59,59,59,59,59,3.16227766,6.32455532,8.366600265,10
,,,,,,,,,,,,,,,,,,,,,,,,,,,
13,10,0.0106862,p,59.3,Unlimited Time,e,68.28990943,67.7317711,64.24134637,59.34466452,59.34466452,68.28990943,64.24134637,67.7317711,0,0,0,0,59,59,59,59,59,3.16227766,6.32455532,8.366600265,10
,,,,,,,,,,,,,,,,,,,,,,,,,,,
13,11,0.0846714,p,55.3,Unlimited Time,e,53.91383453,55.80490696,64.46003708,55.32001948,55.32001948,53.91383453,64.46003708,55.80490696,0,0,0,0,59,59,59,59,59,3.16227766,6.32455532,8.366600265,10
,,,,,,,,,,,,,,,,,,,,,,,,,,,
13,12,0.0774353,p,58.5,Unlimited Time,e,58.75600218,66.87027978,51.039997,58.54602413,58.54602413,58.75600218,51.039997,66.87027978,0,0,0,0,59,59,59,59,59,3.16227766,6.32455532,8.366600265,10
,,,,,,,,,,,,,,,,,,,,,,,,,,,
13,13,0.0193938,p,55,Unlimited Time,e,62.54767334,45.07109221,60.42103067,54.97048733,54.97048733,62.54767334,60.42103067,45.07109221,0,0,0,0,59,59,59,59,59,3.16227766,6.32455532,8.366600265,10
,,,,,,,,,,,,,,,,,,,,,,,,,,,
13,14,0.0093121,q,63.2,Unlimited Time,e,63.23795217,80.3214375,78.82233992,58.126168,58.126168,63.23795217,78.82233992,80.3214375,0,0,0,0,59,59,59,59,59,3.16227766,6.32455532,8.366600265,10
,,,,,,,,,,,,,,,,,,,,,,,,,,,
13,15,0.0061255,q,63.7,Unlimited Time,e,63.7255543,39.266269,59.32535584,63.70168221,63.70168221,63.7255543,59.32535584,39.266269,0,0,0,0,59,59,59,59,59,3.16227766,6.32455532,8.366600265,10
,,,,,,,,,,,,,,,,,,,,,,,,,,,
13,16,0.0632357,q,67,Unlimited Time,e,66.99840474,49.31532561,70.51484015,62.20416194,62.20416194,66.99840474,70.51484015,49.31532561,0,0,0,0,59,59,59,59,59,3.16227766,6.32455532,8.366600265,10
,,,,,,,,,,,,,,,,,,,,,,,,,,,
13,17,0.1918288,q,51.5,Unlimited Time,e,51.53023669,58.24371698,51.50916649,57.77528372,57.77528372,51.53023669,51.50916649,58.24371698,0,0,0,0,59,59,59,59,59,3.16227766,6.32455532,8.366600265,10
,,,,,,,,,,,,,,,,,,,,,,,,,,,
13,18,0.0237029,q,47.2,Unlimited Time,e,47.21266935,70.6751428,51.08340657,58.81926591,58.81926591,47.21266935,51.08340657,70.6751428,0,0,0,0,59,59,59,59,59,3.16227766,6.32455532,8.366600265,10
,,,,,,,,,,,,,,,,,,,,,,,,,,,
13,19,0.2418561,w,68,Unlimited Time,e,52.094607,68.0229672,72.93203747,60.19410423,60.19410423,52.094607,72.93203747,68.0229672,0,0,0,0,59,59,59,59,59,3.16227766,6.32455532,8.366600265,10
,,,,,,,,,,,,,,,,,,,,,,,,,,,
13,20,0.3670103,w,64.9,Unlimited Time,e,59.22162113,64.9093873,47.93264784,59.56729275,59.56729275,59.22162113,47.93264784,64.9093873,0,0,0,0,59,59,59,59,59,3.16227766,6.32455532,8.366600265,10
,,,,,,,,,,,,,,,,,,,,,,,,,,,
14,1,0.3465693,q,70.6,Limited Time,e,70.57505576,60.5378586,50.48297611,56.1662634,60.5378586,50.48297611,56.1662634,70.57505576,0,0,0,0,59,59,59,59,59,3.16227766,6.32455532,8.366600265,10
,,,,,,,,,,,,,,,,,,,,,,,,,,,
14,2,0.2014397,q,46.7,Limited Time,e,46.68992619,56.23228439,62.5461016,64.83747241,56.23228439,62.5461016,64.83747241,46.68992619,0,0,0,0,59,59,59,59,59,3.16227766,6.32455532,8.366600265,10
,,,,,,,,,,,,,,,,,,,,,,,,,,,
14,3,0.2221331,q,53.4,Limited Time,e,53.41309511,58.12839846,57.8742699,59.06591303,58.12839846,57.8742699,59.06591303,53.41309511,0,0,0,0,59,59,59,59,59,3.16227766,6.32455532,8.366600265,10
,,,,,,,,,,,,,,,,,,,,,,,,,,,
14,4,0.024455,q,56.9,Limited Time,e,56.86576172,61.53681187,65.90438933,56.12476406,61.53681187,65.90438933,56.12476406,56.86576172,0,0,0,0,59,59,59,59,59,3.16227766,6.32455532,8.366600265,10
,,,,,,,,,,,,,,,,,,,,,,,,,,,
14,5,0.1017675,w,61.1,Limited Time,e,49.49195677,61.09388168,54.54890697,59.72227853,61.09388168,54.54890697,59.72227853,49.49195677,0,0,0,0,59,59,59,59,59,3.16227766,6.32455532,8.366600265,10
,,,,,,,,,,,,,,,,,,,,,,,,,,,
14,6,0.168537,q,67.9,Limited Time,e,67.9287853,59.30614998,49.5256567,63.60219101,59.30614998,49.5256567,63.60219101,67.9287853,0,0,0,0,59,59,59,59,59,3.16227766,6.32455532,8.366600265,10
,,,,,,,,,,,,,,,,,,,,,,,,,,,
14,7,0.1658872,q,48.2,Limited Time,e,48.23554422,56.06649145,65.4469781,56.56494793,56.06649145,65.4469781,56.56494793,48.23554422,0,0,0,0,59,59,59,59,59,3.16227766,6.32455532,8.366600265,10
,,,,,,,,,,,,,,,,,,,,,,,,,,,
14,8,0.1890988,o,58.7,Limited Time,e,49.14722212,57.68865265,58.73320705,54.6665979,57.68865265,58.73320705,54.6665979,49.14722212,0,0,0,0,59,59,59,59,59,3.16227766,6.32455532,8.366600265,10
,,,,,,,,,,,,,,,,,,,,,,,,,,,
14,9,0.1081483,o,58.6,Limited Time,e,50.93943117,58.61120406,58.63346142,55.856059,58.61120406,58.63346142,55.856059,50.93943117,0,0,0,0,59,59,59,59,59,3.16227766,6.32455532,8.366600265,10
,,,,,,,,,,,,,,,,,,,,,,,,,,,
14,10,0.2022587,o,68.3,Limited Time,e,67.7317711,59.34466452,68.28990943,64.24134637,59.34466452,68.28990943,64.24134637,67.7317711,0,0,0,0,59,59,59,59,59,3.16227766,6.32455532,8.366600265,10
,,,,,,,,,,,,,,,,,,,,,,,,,,,
14,11,0.1787894,p,64.5,Limited Time,e,55.80490696,55.32001948,53.91383453,64.46003708,55.32001948,53.91383453,64.46003708,55.80490696,0,0,0,0,59,59,59,59,59,3.16227766,6.32455532,8.366600265,10
,,,,,,,,,,,,,,,,,,,,,,,,,,,
14,12,0.1673702,p,51,Limited Time,e,66.87027978,58.54602413,58.75600218,51.039997,58.54602413,58.75600218,51.039997,66.87027978,0,0,0,0,59,59,59,59,59,3.16227766,6.32455532,8.366600265,10
,,,,,,,,,,,,,,,,,,,,,,,,,,,
14,13,0.2172596,p,60.4,Limited Time,e,45.07109221,54.97048733,62.54767334,60.42103067,54.97048733,62.54767334,60.42103067,45.07109221,0,0,0,0,59,59,59,59,59,3.16227766,6.32455532,8.366600265,10
,,,,,,,,,,,,,,,,,,,,,,,,,,,
14,14,0.0658951,p,78.8,Limited Time,e,80.3214375,58.126168,63.23795217,78.82233992,58.126168,63.23795217,78.82233992,80.3214375,0,0,0,0,59,59,59,59,59,3.16227766,6.32455532,8.366600265,10
,,,,,,,,,,,,,,,,,,,,,,,,,,,
14,15,0.0296876,p,59.3,Limited Time,e,39.266269,63.70168221,63.7255543,59.32535584,63.70168221,63.7255543,59.32535584,39.266269,0,0,0,0,59,59,59,59,59,3.16227766,6.32455532,8.366600265,10
,,,,,,,,,,,,,,,,,,,,,,,,,,,
14,16,0.2574438,p,70.5,Limited Time,e,49.31532561,62.20416194,66.99840474,70.51484015,62.20416194,66.99840474,70.51484015,49.31532561,0,0,0,0,59,59,59,59,59,3.16227766,6.32455532,8.366600265,10
,,,,,,,,,,,,,,,,,,,,,,,,,,,
14,17,0.040291,p,51.5,Limited Time,e,58.24371698,57.77528372,51.53023669,51.50916649,57.77528372,51.53023669,51.50916649,58.24371698,0,0,0,0,59,59,59,59,59,3.16227766,6.32455532,8.366600265,10
,,,,,,,,,,,,,,,,,,,,,,,,,,,
14,18,0.0215704,p,51.1,Limited Time,e,70.6751428,58.81926591,47.21266935,51.08340657,58.81926591,47.21266935,51.08340657,70.6751428,0,0,0,0,59,59,59,59,59,3.16227766,6.32455532,8.366600265,10
,,,,,,,,,,,,,,,,,,,,,,,,,,,
14,19,0.2179405,o,52.1,Limited Time,e,68.0229672,60.19410423,52.094607,72.93203747,60.19410423,52.094607,72.93203747,68.0229672,0,0,0,0,59,59,59,59,59,3.16227766,6.32455532,8.366600265,10
,,,,,,,,,,,,,,,,,,,,,,,,,,,
14,20,0.0181362,o,59.2,Limited Time,e,64.9093873,59.56729275,59.22162113,47.93264784,59.56729275,59.22162113,47.93264784,64.9093873,0,0,0,0,59,59,59,59,59,3.16227766,6.32455532,8.366600265,10
,,,,,,,,,,,,,,,,,,,,,,,,,,,
15,1,0.2853993,q,58.8,Unlimited Time,i,58.83196902,66.88825124,53.48104112,52.79186474,53.48104112,52.79186474,66.88825124,58.83196902,-10,-10,10,10,59,49,49,69,69,3.16227766,10,3.16227766,10
,,,,,,,,,,,,,,,,,,,,,,,,,,,
15,2,0.1805451,q,70.6,Unlimited Time,i,70.62561427,75.83698208,52.05106544,41.12484216,52.05106544,41.12484216,75.83698208,70.62561427,-10,-10,10,10,59,49,49,69,69,3.16227766,10,3.16227766,10
,,,,,,,,,,,,,,,,,,,,,,,,,,,
15,3,0.0591505,w,68.8,Unlimited Time,i,86.03380109,68.84913328,48.74463316,42.73038257,48.74463316,42.73038257,68.84913328,86.03380109,-10,-10,10,10,59,49,49,69,69,3.16227766,10,3.16227766,10
,,,,,,,,,,,,,,,,,,,,,,,,,,,
15,4,0.0443902,q,54.9,Unlimited Time,i,54.92494976,77.2988861,46.97818873,66.16686427,46.97818873,66.16686427,77.2988861,54.92494976,-10,-10,10,10,59,49,49,69,69,3.16227766,10,3.16227766,10
,,,,,,,,,,,,,,,,,,,,,,,,,,,
15,5,0.1620745,q,61.8,Unlimited Time,i,61.8435511,70.59514202,43.04426016,55.04159917,43.04426016,55.04159917,70.59514202,61.8435511,-10,-10,10,10,59,49,49,69,69,3.16227766,10,3.16227766,10
,,,,,,,,,,,,,,,,,,,,,,,,,,,
15,6,0.1910142,q,71.5,Unlimited Time,i,71.45328403,62.40728563,46.43935644,32.80109305,46.43935644,32.80109305,62.40728563,71.45328403,-10,-10,10,10,59,49,49,69,69,3.16227766,10,3.16227766,10
,,,,,,,,,,,,,,,,,,,,,,,,,,,
15,7,0.0866293,q,74.8,Unlimited Time,i,74.7617616,66.57413618,54.82232683,54.73078963,54.82232683,54.73078963,66.57413618,74.7617616,-10,-10,10,10,59,49,49,69,69,3.16227766,10,3.16227766,10
,,,,,,,,,,,,,,,,,,,,,,,,,,,
15,8,0.1014583,q,70.9,Unlimited Time,i,70.89352403,68.02351207,44.44685984,38.16851884,44.44685984,38.16851884,68.02351207,70.89352403,-10,-10,10,10,59,49,49,69,69,3.16227766,10,3.16227766,10
,,,,,,,,,,,,,,,,,,,,,,,,,,,
15,9,0.1700401,q,82.2,Unlimited Time,i,82.16756028,72.84510322,45.94980506,62.5478413,45.94980506,62.5478413,72.84510322,82.16756028,-10,-10,10,10,59,49,49,69,69,3.16227766,10,3.16227766,10
,,,,,,,,,,,,,,,,,,,,,,,,,,,
15,10,0.1214293,q,68.8,Unlimited Time,i,68.80004738,69.50530402,53.57448859,40.21194252,53.57448859,40.21194252,69.50530402,68.80004738,-10,-10,10,10,59,49,49,69,69,3.16227766,10,3.16227766,10
,,,,,,,,,,,,,,,,,,,,,,,,,,,
15,11,0.151901,q,58.5,Unlimited Time,i,58.48983721,63.06087039,48.76008971,31.22999094,48.76008971,31.22999094,63.06087039,58.48983721,-10,-10,10,10,59,49,49,69,69,3.16227766,10,3.16227766,10
,,,,,,,,,,,,,,,,,,,,,,,,,,,
15,12,0.1044291,q,69.6,Unlimited Time,i,69.56173927,73.25898536,57.4490601,45.25287459,57.4490601,45.25287459,73.25898536,69.56173927,-10,-10,10,10,59,49,49,69,69,3.16227766,10,3.16227766,10
,,,,,,,,,,,,,,,,,,,,,,,,,,,
15,13,0.0161982,q,63,Unlimited Time,i,62.95103037,62.95403795,50.65035883,37.79039447,50.65035883,37.79039447,62.95403795,62.95103037,-10,-10,10,10,59,49,49,69,69,3.16227766,10,3.16227766,10
,,,,,,,,,,,,,,,,,,,,,,,,,,,
15,14,0.1435077,q,86.2,Unlimited Time,i,86.18981351,66.85745434,54.20848752,46.5642265,54.20848752,46.5642265,66.85745434,86.18981351,-10,-10,10,10,59,49,49,69,69,3.16227766,10,3.16227766,10
,,,,,,,,,,,,,,,,,,,,,,,,,,,
15,15,0.1568259,q,43.7,Unlimited Time,i,43.69533911,69.73879387,48.11693645,40.49153246,48.11693645,40.49153246,69.73879387,43.69533911,-10,-10,10,10,59,49,49,69,69,3.16227766,10,3.16227766,10
,,,,,,,,,,,,,,,,,,,,,,,,,,,
15,16,0.1103386,q,70.4,Unlimited Time,i,70.37660179,68.32514752,49.97017344,56.73903821,49.97017344,56.73903821,68.32514752,70.37660179,-10,-10,10,10,59,49,49,69,69,3.16227766,10,3.16227766,10
,,,,,,,,,,,,,,,,,,,,,,,,,,,
15,17,0.269033,q,71.1,Unlimited Time,i,71.09431059,64.60720134,48.13218439,48.36813058,48.13218439,48.36813058,64.60720134,71.09431059,-10,-10,10,10,59,49,49,69,69,3.16227766,10,3.16227766,10
,,,,,,,,,,,,,,,,,,,,,,,,,,,
15,18,0.0160818,q,53.8,Unlimited Time,i,53.84645589,64.57244712,47.38519446,32.71562126,47.38519446,32.71562126,64.57244712,53.84645589,-10,-10,10,10,59,49,49,69,69,3.16227766,10,3.16227766,10
,,,,,,,,,,,,,,,,,,,,,,,,,,,
15,19,0.0127292,q,76.9,Unlimited Time,i,76.94737658,63.26826681,47.63471108,53.82274988,47.63471108,53.82274988,63.26826681,76.94737658,-10,-10,10,10,59,49,49,69,69,3.16227766,10,3.16227766,10
,,,,,,,,,,,,,,,,,,,,,,,,,,,
15,20,0.2213598,q,73.1,Unlimited Time,i,73.10960915,71.56576645,48.90917717,32.20171083,48.90917717,32.20171083,71.56576645,73.10960915,-10,-10,10,10,59,49,49,69,69,3.16227766,10,3.16227766,10
,,,,,,,,,,,,,,,,,,,,,,,,,,,
16,1,0.336977,q,68.9,Limited Time,l,68.912002,60.81641248,67.98998326,46.78025025,46.78025025,60.81641248,68.912002,67.98998326,-10,-0.33,0.33,10,59,49,58.67,59.33,69,3.16227766,3.16227766,3.16227766,3.16227766
,,,,,,,,,,,,,,,,,,,,,,,,,,,
16,2,0.0790983,q,60.8,Limited Time,l,60.8137987,53.40995098,65.4188713,46.92753197,46.92753197,53.40995098,60.8137987,65.4188713,-10,-0.33,0.33,10,59,49,58.67,59.33,69,3.16227766,3.16227766,3.16227766,3.16227766
,,,,,,,,,,,,,,,,,,,,,,,,,,,
16,3,0.1511739,q,60.7,Limited Time,l,60.72239098,61.27872836,67.82986405,42.88993313,42.88993313,61.27872836,60.72239098,67.82986405,-10,-0.33,0.33,10,59,49,58.67,59.33,69,3.16227766,3.16227766,3.16227766,3.16227766
,,,,,,,,,,,,,,,,,,,,,,,,,,,
16,4,0.1289145,q,65.1,Limited Time,l,65.08635666,56.02228844,69.34623932,53.16487213,53.16487213,56.02228844,65.08635666,69.34623932,-10,-0.33,0.33,10,59,49,58.67,59.33,69,3.16227766,3.16227766,3.16227766,3.16227766
,,,,,,,,,,,,,,,,,,,,,,,,,,,
16,5,0.0858239,q,62.4,Limited Time,l,62.42750439,60.74048641,60.63928759,48.61323302,48.61323302,60.74048641,62.42750439,60.63928759,-10,-0.33,0.33,10,59,49,58.67,59.33,69,3.16227766,3.16227766,3.16227766,3.16227766
,,,,,,,,,,,,,,,,,,,,,,,,,,,
16,6,0.1162097,q,60.1,Limited Time,l,60.07135259,62.94915207,70.33028791,49.93431209,49.93431209,62.94915207,60.07135259,70.33028791,-10,-0.33,0.33,10,59,49,58.67,59.33,69,3.16227766,3.16227766,3.16227766,3.16227766
,,,,,,,,,,,,,,,,,,,,,,,,,,,
16,7,0.116487,q,57.7,Limited Time,l,57.72880198,57.68844225,68.28035595,47.3235267,47.3235267,57.68844225,57.72880198,68.28035595,-10,-0.33,0.33,10,59,49,58.67,59.33,69,3.16227766,3.16227766,3.16227766,3.16227766
,,,,,,,,,,,,,,,,,,,,,,,,,,,
16,8,0.1387944,q,60.1,Limited Time,l,60.14243372,65.09767957,66.46606537,49.52703746,49.52703746,65.09767957,60.14243372,66.46606537,-10,-0.33,0.33,10,59,49,58.67,59.33,69,3.16227766,3.16227766,3.16227766,3.16227766
,,,,,,,,,,,,,,,,,,,,,,,,,,,
16,9,0.1266397,q,55.6,Limited Time,l,55.56466504,56.96173978,65.81840734,45.37007035,45.37007035,56.96173978,55.56466504,65.81840734,-10,-0.33,0.33,10,59,49,58.67,59.33,69,3.16227766,3.16227766,3.16227766,3.16227766
,,,,,,,,,,,,,,,,,,,,,,,,,,,
16,10,0.0967625,q,57.7,Limited Time,l,57.69280763,58.21516462,66.96366851,49.30723359,49.30723359,58.21516462,57.69280763,66.96366851,-10,-0.33,0.33,10,59,49,58.67,59.33,69,3.16227766,3.16227766,3.16227766,3.16227766
,,,,,,,,,,,,,,,,,,,,,,,,,,,
16,11,0.1361336,q,61.8,Limited Time,l,61.82529044,59.75503489,70.47081595,53.36803854,53.36803854,59.75503489,61.82529044,70.47081595,-10,-0.33,0.33,10,59,49,58.67,59.33,69,3.16227766,3.16227766,3.16227766,3.16227766
,,,,,,,,,,,,,,,,,,,,,,,,,,,
16,12,0.015297,q,57.5,Limited Time,l,57.53617869,56.20053972,64.74569066,49.54160875,49.54160875,56.20053972,57.53617869,64.74569066,-10,-0.33,0.33,10,59,49,58.67,59.33,69,3.16227766,3.16227766,3.16227766,3.16227766
,,,,,,,,,,,,,,,,,,,,,,,,,,,
16,13,0.1737683,q,60.4,Limited Time,l,60.38437694,56.40658818,67.34019055,52.9342171,52.9342171,56.40658818,60.38437694,67.34019055,-10,-0.33,0.33,10,59,49,58.67,59.33,69,3.16227766,3.16227766,3.16227766,3.16227766
,,,,,,,,,,,,,,,,,,,,,,,,,,,
16,14,0.1968541,q,59.5,Limited Time,l,59.49364136,56.5465534,63.97810252,51.62608666,51.62608666,56.5465534,59.49364136,63.97810252,-10,-0.33,0.33,10,59,49,58.67,59.33,69,3.16227766,3.16227766,3.16227766,3.16227766
,,,,,,,,,,,,,,,,,,,,,,,,,,,
16,15,0.1769847,q,57.3,Limited Time,l,57.28270023,59.97261119,65.23600009,47.23027617,47.23027617,59.97261119,57.28270023,65.23600009,-10,-0.33,0.33,10,59,49,58.67,59.33,69,3.16227766,3.16227766,3.16227766,3.16227766
,,,,,,,,,,,,,,,,,,,,,,,,,,,
16,16,0.2302209,q,57.5,Limited Time,l,57.48504205,61.94996923,64.18309649,45.81750236,45.81750236,61.94996923,57.48504205,64.18309649,-10,-0.33,0.33,10,59,49,58.67,59.33,69,3.16227766,3.16227766,3.16227766,3.16227766
,,,,,,,,,,,,,,,,,,,,,,,,,,,
16,17,0.2755257,q,60,Limited Time,l,60.016659,59.14339681,67.88206375,47.68239146,47.68239146,59.14339681,60.016659,67.88206375,-10,-0.33,0.33,10,59,49,58.67,59.33,69,3.16227766,3.16227766,3.16227766,3.16227766
,,,,,,,,,,,,,,,,,,,,,,,,,,,
16,18,,,0,Limited Time,l,55.8912355,60.05018963,63.13957438,47.90276806,47.90276806,60.05018963,55.8912355,63.13957438,-10,-0.33,0.33,10,59,49,58.67,59.33,69,3.16227766,3.16227766,3.16227766,3.16227766
,,,,,,,,,,,,,,,,,,,,,,,,,,,
16,19,,,0,Limited Time,l,53.91930739,58.64178758,68.8275588,44.38041304,44.38041304,58.64178758,53.91930739,68.8275588,-10,-0.33,0.33,10,59,49,58.67,59.33,69,3.16227766,3.16227766,3.16227766,3.16227766
,,,,,,,,,,,,,,,,,,,,,,,,,,,
16,20,0.18448,w,52,Limited Time,l,58.85114531,51.97360415,75.63591033,50.5889502,50.5889502,51.97360415,58.85114531,75.63591033,-10,-0.33,0.33,10,59,49,58.67,59.33,69,3.16227766,3.16227766,3.16227766,3.16227766
