Round Number,Trial Number,Reaction Time,Choice,Reward,Time Condition,Payoff Condition,Q mapped,W mapped,O mapped,P mapped,One value,Two value,Three value,Four value,One mean,Two mean,Three mean,Four mean,Mean Shift,One shifted mean,Two shifted mean,Three shifted mean,Four shifted mean,One SD,Two SD,Three SD,Four SD
1,1,0.542751673,w,64.2,Unlimited Time,i,51.94207228,64.15916975,62.57654201,41.36886629,41.36886629,51.94207228,64.15916975,62.57654201,-10,-10,10,10,55,45,45,65,65,3.16227766,10,3.16227766,10
1,2,0.769314412,o,75.5,Unlimited Time,i,31.86327372,67.05369045,75.49270019,43.86047609,43.86047609,31.86327372,67.05369045,75.49270019,-10,-10,10,10,55,45,45,65,65,3.16227766,10,3.16227766,10
1,3,0.470425571,o,83.3,Unlimited Time,i,57.9600091,62.78232739,83.30881975,43.70544152,43.70544152,57.9600091,62.78232739,83.30881975,-10,-10,10,10,55,45,45,65,65,3.16227766,10,3.16227766,10
1,4,0.431782713,p,44.8,Unlimited Time,i,40.81187175,65.36383702,78.1563817,44.80193297,44.80193297,40.81187175,65.36383702,78.1563817,-10,-10,10,10,55,45,45,65,65,3.16227766,10,3.16227766,10
1,5,1.266921293,o,57.7,Unlimited Time,i,38.84911214,65.19303867,57.74860814,41.61626535,41.61626535,38.84911214,65.19303867,57.74860814,-10,-10,10,10,55,45,45,65,65,3.16227766,10,3.16227766,10
1,6,0.286685289,q,44,Unlimited Time,i,44.03298041,66.07671551,72.51934061,45.74965884,45.74965884,44.03298041,66.07671551,72.51934061,-10,-10,10,10,55,45,45,65,65,3.16227766,10,3.16227766,10
1,7,0.810439493,w,67.2,Unlimited Time,i,39.90672778,67.24642326,59.08621669,47.81932584,47.81932584,39.90672778,67.24642326,59.08621669,-10,-10,10,10,55,45,45,65,65,3.16227766,10,3.16227766,10
1,8,0.485030459,w,62.4,Unlimited Time,i,52.58508069,62.40735675,84.94159581,41.87546521,41.87546521,52.58508069,62.40735675,84.94159581,-10,-10,10,10,55,45,45,65,65,3.16227766,10,3.16227766,10
1,9,0.274202683,o,91.9,Unlimited Time,i,34.10360279,61.74469487,91.94241941,44.46297106,44.46297106,34.10360279,61.74469487,91.94241941,-10,-10,10,10,55,45,45,65,65,3.16227766,10,3.16227766,10
1,10,0.322116696,o,59.8,Unlimited Time,i,33.76486089,58.06821492,59.75718671,40.29721022,40.29721022,33.76486089,58.06821492,59.75718671,-10,-10,10,10,55,45,45,65,65,3.16227766,10,3.16227766,10
1,11,0.267596954,w,64.3,Unlimited Time,i,44.19216072,64.26098784,66.52712348,41.12652547,41.12652547,44.19216072,64.26098784,66.52712348,-10,-10,10,10,55,45,45,65,65,3.16227766,10,3.16227766,10
1,12,0.544356058,w,69.1,Unlimited Time,i,50.3900976,69.12776249,59.3605704,44.42907127,44.42907127,50.3900976,69.12776249,59.3605704,-10,-10,10,10,55,45,45,65,65,3.16227766,10,3.16227766,10
1,13,0.567076695,o,63.9,Unlimited Time,i,69.56951521,62.45681937,63.89568398,39.8448857,39.8448857,69.56951521,62.45681937,63.89568398,-10,-10,10,10,55,45,45,65,65,3.16227766,10,3.16227766,10
1,14,0.269886681,p,46.7,Unlimited Time,i,36.83287149,68.25670384,77.51715848,46.72255513,46.72255513,36.83287149,68.25670384,77.51715848,-10,-10,10,10,55,45,45,65,65,3.16227766,10,3.16227766,10
1,15,0.567569857,q,41,Unlimited Time,i,40.98718691,68.36289288,56.575489,48.46183803,48.46183803,40.98718691,68.36289288,56.575489,-10,-10,10,10,55,45,45,65,65,3.16227766,10,3.16227766,10
1,16,0.143963314,w,62.4,Unlimited Time,i,35.98633985,62.40884391,72.84822004,46.36033709,46.36033709,35.98633985,62.40884391,72.84822004,-10,-10,10,10,55,45,45,65,65,3.16227766,10,3.16227766,10
1,17,0.23900071,o,73.7,Unlimited Time,i,24.75266979,64.33199862,73.70637429,49.49100841,49.49100841,24.75266979,64.33199862,73.70637429,-10,-10,10,10,55,45,45,65,65,3.16227766,10,3.16227766,10
1,18,0.300155969,o,66.4,Unlimited Time,i,52.10078583,67.62030733,66.43335261,48.01829338,48.01829338,52.10078583,67.62030733,66.43335261,-10,-10,10,10,55,45,45,65,65,3.16227766,10,3.16227766,10
1,19,0.228040065,w,62.6,Unlimited Time,i,39.13042926,62.57236588,66.87352544,43.75176001,43.75176001,39.13042926,62.57236588,66.87352544,-10,-10,10,10,55,45,45,65,65,3.16227766,10,3.16227766,10
1,20,0.445138204,w,65.4,Unlimited Time,i,57.25717681,65.35711159,58.59134184,48.08376091,48.08376091,57.25717681,65.35711159,58.59134184,-10,-10,10,10,55,45,45,65,65,3.16227766,10,3.16227766,10
2,1,0.29080857,w,62.6,Limited Time,i,41.36886629,62.57654201,64.15916975,51.94207228,41.36886629,51.94207228,64.15916975,62.57654201,-10,-10,10,10,55,45,45,65,65,3.16227766,10,3.16227766,10
2,2,0.245537847,o,67.1,Limited Time,i,43.86047609,75.49270019,67.05369045,31.86327372,43.86047609,31.86327372,67.05369045,75.49270019,-10,-10,10,10,55,45,45,65,65,3.16227766,10,3.16227766,10
2,3,0.249010396,q,43.7,Limited Time,i,43.70544152,83.30881975,62.78232739,57.9600091,43.70544152,57.9600091,62.78232739,83.30881975,-10,-10,10,10,55,45,45,65,65,3.16227766,10,3.16227766,10
2,4,0.25788201,o,65.4,Limited Time,i,44.80193297,78.1563817,65.36383702,40.81187175,44.80193297,40.81187175,65.36383702,78.1563817,-10,-10,10,10,55,45,45,65,65,3.16227766,10,3.16227766,10
2,5,0.255369727,p,38.8,Limited Time,i,41.61626535,57.74860814,65.19303867,38.84911214,41.61626535,38.84911214,65.19303867,57.74860814,-10,-10,10,10,55,45,45,65,65,3.16227766,10,3.16227766,10
2,6,0.220968914,w,72.5,Limited Time,i,45.74965884,72.51934061,66.07671551,44.03298041,45.74965884,44.03298041,66.07671551,72.51934061,-10,-10,10,10,55,45,45,65,65,3.16227766,10,3.16227766,10
2,7,0.235581861,o,67.2,Limited Time,i,47.81932584,59.08621669,67.24642326,39.90672778,47.81932584,39.90672778,67.24642326,59.08621669,-10,-10,10,10,55,45,45,65,65,3.16227766,10,3.16227766,10
2,8,0.212196928,w,84.9,Limited Time,i,41.87546521,84.94159581,62.40735675,52.58508069,41.87546521,52.58508069,62.40735675,84.94159581,-10,-10,10,10,55,45,45,65,65,3.16227766,10,3.16227766,10
2,9,0.245683072,w,91.9,Limited Time,i,44.46297106,91.94241941,61.74469487,34.10360279,44.46297106,34.10360279,61.74469487,91.94241941,-10,-10,10,10,55,45,45,65,65,3.16227766,10,3.16227766,10
2,10,0.264265863,w,59.8,Limited Time,i,40.29721022,59.75718671,58.06821492,33.76486089,40.29721022,33.76486089,58.06821492,59.75718671,-10,-10,10,10,55,45,45,65,65,3.16227766,10,3.16227766,10
2,11,0.246008623,o,64.3,Limited Time,i,41.12652547,66.52712348,64.26098784,44.19216072,41.12652547,44.19216072,64.26098784,66.52712348,-10,-10,10,10,55,45,45,65,65,3.16227766,10,3.16227766,10
2,12,0.213768552,w,59.4,Limited Time,i,44.42907127,59.3605704,69.12776249,50.3900976,44.42907127,50.3900976,69.12776249,59.3605704,-10,-10,10,10,55,45,45,65,65,3.16227766,10,3.16227766,10
2,13,0.225275877,w,63.9,Limited Time,i,39.8448857,63.89568398,62.45681937,69.56951521,39.8448857,69.56951521,62.45681937,63.89568398,-10,-10,10,10,55,45,45,65,65,3.16227766,10,3.16227766,10
2,14,0.223866375,o,68.3,Limited Time,i,46.72255513,77.51715848,68.25670384,36.83287149,46.72255513,36.83287149,68.25670384,77.51715848,-10,-10,10,10,55,45,45,65,65,3.16227766,10,3.16227766,10
2,15,0.21338887,q,48.5,Limited Time,i,48.46183803,56.575489,68.36289288,40.98718691,48.46183803,40.98718691,68.36289288,56.575489,-10,-10,10,10,55,45,45,65,65,3.16227766,10,3.16227766,10
2,16,0.213021728,p,36,Limited Time,i,46.36033709,72.84822004,62.40884391,35.98633985,46.36033709,35.98633985,62.40884391,72.84822004,-10,-10,10,10,55,45,45,65,65,3.16227766,10,3.16227766,10
2,17,0.183209973,w,73.7,Limited Time,i,49.49100841,73.70637429,64.33199862,24.75266979,49.49100841,24.75266979,64.33199862,73.70637429,-10,-10,10,10,55,45,45,65,65,3.16227766,10,3.16227766,10
2,18,0.181975363,o,67.6,Limited Time,i,48.01829338,66.43335261,67.62030733,52.10078583,48.01829338,52.10078583,67.62030733,66.43335261,-10,-10,10,10,55,45,45,65,65,3.16227766,10,3.16227766,10
2,19,0.167949747,w,66.9,Limited Time,i,43.75176001,66.87352544,62.57236588,39.13042926,43.75176001,39.13042926,62.57236588,66.87352544,-10,-10,10,10,55,45,45,65,65,3.16227766,10,3.16227766,10
2,20,0.172091788,w,58.6,Limited Time,i,48.08376091,58.59134184,65.35711159,57.25717681,48.08376091,57.25717681,65.35711159,58.59134184,-10,-10,10,10,55,45,45,65,65,3.16227766,10,3.16227766,10
3,1,1.099529369,w,50.7,Unlimited Time,h,52.87479363,50.72159374,56.55092127,54.3929821,52.87479363,56.55092127,50.72159374,54.3929821,-10,-0.33,0.33,10,55,45,54.67,55.33,65,10,10,10,10
3,2,0.24047027,q,41.6,Unlimited Time,h,41.63849559,57.25429386,62.97706365,66.01101935,41.63849559,62.97706365,57.25429386,66.01101935,-10,-0.33,0.33,10,55,45,54.67,55.33,65,10,10,10,10
3,3,0.308727191,o,56.4,Unlimited Time,h,71.98794716,61.49080101,56.43319914,61.88387448,71.98794716,56.43319914,61.49080101,61.88387448,-10,-0.33,0.33,10,55,45,54.67,55.33,65,10,10,10,10
3,4,0.267198949,p,74,Unlimited Time,h,29.24056071,75.76273962,49.63256771,73.9540183,29.24056071,49.63256771,75.76273962,73.9540183,-10,-0.33,0.33,10,55,45,54.67,55.33,65,10,10,10,10
3,5,0.272378912,p,87.3,Unlimited Time,h,40.5784791,50.72676729,47.69037487,87.29418919,40.5784791,47.69037487,50.72676729,87.29418919,-10,-0.33,0.33,10,55,45,54.67,55.33,65,10,10,10,10
3,6,0.278784617,p,77.5,Unlimited Time,h,48.55886118,42.42346114,40.69965776,77.51973631,48.55886118,40.69965776,42.42346114,77.51973631,-10,-0.33,0.33,10,55,45,54.67,55.33,65,10,10,10,10
3,7,0.270901794,p,51.5,Unlimited Time,h,51.72124317,56.89159196,51.00674447,51.524229,51.72124317,51.00674447,56.89159196,51.524229,-10,-0.33,0.33,10,55,45,54.67,55.33,65,10,10,10,10
3,8,0.224018928,o,60.1,Unlimited Time,h,66.1067155,68.20267986,60.12468352,39.50901125,66.1067155,60.12468352,68.20267986,39.50901125,-10,-0.33,0.33,10,55,45,54.67,55.33,65,10,10,10,10
3,9,0.277143434,o,31.5,Unlimited Time,h,49.63271955,58.03209818,31.51920263,63.59441266,49.63271955,31.51920263,58.03209818,63.59441266,-10,-0.33,0.33,10,55,45,54.67,55.33,65,10,10,10,10
3,10,0.215519798,w,52.9,Unlimited Time,h,58.48671149,52.94680181,56.13758923,64.27654388,58.48671149,56.13758923,52.94680181,64.27654388,-10,-0.33,0.33,10,55,45,54.67,55.33,65,10,10,10,10
3,11,0.213101217,w,57.4,Unlimited Time,h,50.20390646,57.43375518,54.85558453,54.77663619,50.20390646,54.85558453,57.43375518,54.77663619,-10,-0.33,0.33,10,55,45,54.67,55.33,65,10,10,10,10
3,12,0.165113697,w,53.8,Unlimited Time,h,49.62552,53.78457865,41.90033469,61.19797373,49.62552,41.90033469,53.78457865,61.19797373,-10,-0.33,0.33,10,55,45,54.67,55.33,65,10,10,10,10
3,13,0.19221103,w,52.6,Unlimited Time,h,26.36249854,52.63608173,44.79280686,68.75309987,26.36249854,44.79280686,52.63608173,68.75309987,-10,-0.33,0.33,10,55,45,54.67,55.33,65,10,10,10,10
3,14,0.181643189,w,41.8,Unlimited Time,h,48.094107,41.80262776,50.76459076,59.01963292,48.094107,50.76459076,41.80262776,59.01963292,-10,-0.33,0.33,10,55,45,54.67,55.33,65,10,10,10,10
3,15,0.108662708,q,46,Unlimited Time,h,46.01198189,48.87027827,59.95248223,71.33407054,46.01198189,59.95248223,48.87027827,71.33407054,-10,-0.33,0.33,10,55,45,54.67,55.33,65,10,10,10,10
3,16,0.15070566,q,62.7,Unlimited Time,h,62.65216373,47.21555788,50.01482256,91.18689569,62.65216373,50.01482256,47.21555788,91.18689569,-10,-0.33,0.33,10,55,45,54.67,55.33,65,10,10,10,10
3,17,0.189129416,o,50.2,Unlimited Time,h,39.28967634,56.69065895,50.1780438,60.91743573,39.28967634,50.1780438,56.69065895,60.91743573,-10,-0.33,0.33,10,55,45,54.67,55.33,65,10,10,10,10
3,18,0.05424731,p,66.2,Unlimited Time,h,58.41443001,55.16871155,51.27802772,66.17605881,58.41443001,51.27802772,55.16871155,66.17605881,-10,-0.33,0.33,10,55,45,54.67,55.33,65,10,10,10,10
3,19,0.198485812,p,62,Unlimited Time,h,47.75977074,61.88484263,56.46770445,61.98998241,47.75977074,56.46770445,61.88484263,61.98998241,-10,-0.33,0.33,10,55,45,54.67,55.33,65,10,10,10,10
3,20,0.26302929,o,51.8,Unlimited Time,h,53.79432529,42.79789168,51.83981148,48.06044563,53.79432529,51.83981148,42.79789168,48.06044563,-10,-0.33,0.33,10,55,45,54.67,55.33,65,10,10,10,10
4,1,,,0,Limited Time,h,56.55092127,52.87479363,50.72159374,54.3929821,52.87479363,56.55092127,50.72159374,54.3929821,-10,-0.33,0.33,10,55,45,54.67,55.33,65,10,10,10,10
4,2,,,0,Limited Time,h,62.97706365,41.63849559,57.25429386,66.01101935,41.63849559,62.97706365,57.25429386,66.01101935,-10,-0.33,0.33,10,55,45,54.67,55.33,65,10,10,10,10
4,3,,,0,Limited Time,h,56.43319914,71.98794716,61.49080101,61.88387448,71.98794716,56.43319914,61.49080101,61.88387448,-10,-0.33,0.33,10,55,45,54.67,55.33,65,10,10,10,10
4,4,0.150846252,w,29.2,Limited Time,h,49.63256771,29.24056071,75.76273962,73.9540183,29.24056071,49.63256771,75.76273962,73.9540183,-10,-0.33,0.33,10,55,45,54.67,55.33,65,10,10,10,10
4,5,0.027695571,w,40.6,Limited Time,h,47.69037487,40.5784791,50.72676729,87.29418919,40.5784791,47.69037487,50.72676729,87.29418919,-10,-0.33,0.33,10,55,45,54.67,55.33,65,10,10,10,10
4,6,0.226411351,o,42.4,Limited Time,h,40.69965776,48.55886118,42.42346114,77.51973631,48.55886118,40.69965776,42.42346114,77.51973631,-10,-0.33,0.33,10,55,45,54.67,55.33,65,10,10,10,10
4,7,0.271113329,q,51,Limited Time,h,51.00674447,51.72124317,56.89159196,51.524229,51.72124317,51.00674447,56.89159196,51.524229,-10,-0.33,0.33,10,55,45,54.67,55.33,65,10,10,10,10
4,8,0.201268199,p,39.5,Limited Time,h,60.12468352,66.1067155,68.20267986,39.50901125,66.1067155,60.12468352,68.20267986,39.50901125,-10,-0.33,0.33,10,55,45,54.67,55.33,65,10,10,10,10
4,9,,,0,Limited Time,h,31.51920263,49.63271955,58.03209818,63.59441266,49.63271955,31.51920263,58.03209818,63.59441266,-10,-0.33,0.33,10,55,45,54.67,55.33,65,10,10,10,10
4,10,0.102779875,p,64.3,Limited Time,h,56.13758923,58.48671149,52.94680181,64.27654388,58.48671149,56.13758923,52.94680181,64.27654388,-10,-0.33,0.33,10,55,45,54.67,55.33,65,10,10,10,10
4,11,0.023714028,w,50.2,Limited Time,h,54.85558453,50.20390646,57.43375518,54.77663619,50.20390646,54.85558453,57.43375518,54.77663619,-10,-0.33,0.33,10,55,45,54.67,55.33,65,10,10,10,10
4,12,,,0,Limited Time,h,41.90033469,49.62552,53.78457865,61.19797373,49.62552,41.90033469,53.78457865,61.19797373,-10,-0.33,0.33,10,55,45,54.67,55.33,65,10,10,10,10
4,13,0.077638559,q,44.8,Limited Time,h,44.79280686,26.36249854,52.63608173,68.75309987,26.36249854,44.79280686,52.63608173,68.75309987,-10,-0.33,0.33,10,55,45,54.67,55.33,65,10,10,10,10
4,14,0.017051709,w,48.1,Limited Time,h,50.76459076,48.094107,41.80262776,59.01963292,48.094107,50.76459076,41.80262776,59.01963292,-10,-0.33,0.33,10,55,45,54.67,55.33,65,10,10,10,10
4,15,,,0,Limited Time,h,59.95248223,46.01198189,48.87027827,71.33407054,46.01198189,59.95248223,48.87027827,71.33407054,-10,-0.33,0.33,10,55,45,54.67,55.33,65,10,10,10,10
4,16,0.115168533,p,91.2,Limited Time,h,50.01482256,62.65216373,47.21555788,91.18689569,62.65216373,50.01482256,47.21555788,91.18689569,-10,-0.33,0.33,10,55,45,54.67,55.33,65,10,10,10,10
4,17,0.152366281,p,60.9,Limited Time,h,50.1780438,39.28967634,56.69065895,60.91743573,39.28967634,50.1780438,56.69065895,60.91743573,-10,-0.33,0.33,10,55,45,54.67,55.33,65,10,10,10,10
4,18,0.003408292,o,55.2,Limited Time,h,51.27802772,58.41443001,55.16871155,66.17605881,58.41443001,51.27802772,55.16871155,66.17605881,-10,-0.33,0.33,10,55,45,54.67,55.33,65,10,10,10,10
4,19,0.008514459,p,62,Limited Time,h,56.46770445,47.75977074,61.88484263,61.98998241,47.75977074,56.46770445,61.88484263,61.98998241,-10,-0.33,0.33,10,55,45,54.67,55.33,65,10,10,10,10
4,20,0.065902897,p,48.1,Limited Time,h,51.83981148,53.79432529,42.79789168,48.06044563,53.79432529,51.83981148,42.79789168,48.06044563,-10,-0.33,0.33,10,55,45,54.67,55.33,65,10,10,10,10
5,1,0.141886196,w,64.2,Unlimited Time,i,51.94207228,64.15916975,62.57654201,41.36886629,41.36886629,51.94207228,64.15916975,62.57654201,-10,-10,10,10,55,45,45,65,65,3.16227766,10,3.16227766,10
5,2,0.096961189,w,67.1,Unlimited Time,i,31.86327372,67.05369045,75.49270019,43.86047609,43.86047609,31.86327372,67.05369045,75.49270019,-10,-10,10,10,55,45,45,65,65,3.16227766,10,3.16227766,10
5,3,0.174377942,o,83.3,Unlimited Time,i,57.9600091,62.78232739,83.30881975,43.70544152,43.70544152,57.9600091,62.78232739,83.30881975,-10,-10,10,10,55,45,45,65,65,3.16227766,10,3.16227766,10
5,4,0.193588256,p,44.8,Unlimited Time,i,40.81187175,65.36383702,78.1563817,44.80193297,44.80193297,40.81187175,65.36383702,78.1563817,-10,-10,10,10,55,45,45,65,65,3.16227766,10,3.16227766,10
5,5,0.246637292,o,57.7,Unlimited Time,i,38.84911214,65.19303867,57.74860814,41.61626535,41.61626535,38.84911214,65.19303867,57.74860814,-10,-10,10,10,55,45,45,65,65,3.16227766,10,3.16227766,10
5,6,0.386622328,p,45.7,Unlimited Time,i,44.03298041,66.07671551,72.51934061,45.74965884,45.74965884,44.03298041,66.07671551,72.51934061,-10,-10,10,10,55,45,45,65,65,3.16227766,10,3.16227766,10
5,7,0.282397402,w,67.2,Unlimited Time,i,39.90672778,67.24642326,59.08621669,47.81932584,47.81932584,39.90672778,67.24642326,59.08621669,-10,-10,10,10,55,45,45,65,65,3.16227766,10,3.16227766,10
5,8,0.80189782,q,52.6,Unlimited Time,i,52.58508069,62.40735675,84.94159581,41.87546521,41.87546521,52.58508069,62.40735675,84.94159581,-10,-10,10,10,55,45,45,65,65,3.16227766,10,3.16227766,10
5,9,0.121639679,w,61.7,Unlimited Time,i,34.10360279,61.74469487,91.94241941,44.46297106,44.46297106,34.10360279,61.74469487,91.94241941,-10,-10,10,10,55,45,45,65,65,3.16227766,10,3.16227766,10
5,10,0.378474983,o,59.8,Unlimited Time,i,33.76486089,58.06821492,59.75718671,40.29721022,40.29721022,33.76486089,58.06821492,59.75718671,-10,-10,10,10,55,45,45,65,65,3.16227766,10,3.16227766,10
5,11,0.339931626,p,41.1,Unlimited Time,i,44.19216072,64.26098784,66.52712348,41.12652547,41.12652547,44.19216072,64.26098784,66.52712348,-10,-10,10,10,55,45,45,65,65,3.16227766,10,3.16227766,10
5,12,0.213433295,w,69.1,Unlimited Time,i,50.3900976,69.12776249,59.3605704,44.42907127,44.42907127,50.3900976,69.12776249,59.3605704,-10,-10,10,10,55,45,45,65,65,3.16227766,10,3.16227766,10
5,13,0.256971716,o,63.9,Unlimited Time,i,69.56951521,62.45681937,63.89568398,39.8448857,39.8448857,69.56951521,62.45681937,63.89568398,-10,-10,10,10,55,45,45,65,65,3.16227766,10,3.16227766,10
5,14,0.229435698,w,68.3,Unlimited Time,i,36.83287149,68.25670384,77.51715848,46.72255513,46.72255513,36.83287149,68.25670384,77.51715848,-10,-10,10,10,55,45,45,65,65,3.16227766,10,3.16227766,10
5,15,0.299821958,o,56.6,Unlimited Time,i,40.98718691,68.36289288,56.575489,48.46183803,48.46183803,40.98718691,68.36289288,56.575489,-10,-10,10,10,55,45,45,65,65,3.16227766,10,3.16227766,10
5,16,0.207773515,w,62.4,Unlimited Time,i,35.98633985,62.40884391,72.84822004,46.36033709,46.36033709,35.98633985,62.40884391,72.84822004,-10,-10,10,10,55,45,45,65,65,3.16227766,10,3.16227766,10
5,17,0.136619084,w,64.3,Unlimited Time,i,24.75266979,64.33199862,73.70637429,49.49100841,49.49100841,24.75266979,64.33199862,73.70637429,-10,-10,10,10,55,45,45,65,65,3.16227766,10,3.16227766,10
5,18,0.244451871,w,67.6,Unlimited Time,i,52.10078583,67.62030733,66.43335261,48.01829338,48.01829338,52.10078583,67.62030733,66.43335261,-10,-10,10,10,55,45,45,65,65,3.16227766,10,3.16227766,10
5,19,0.240507892,w,62.6,Unlimited Time,i,39.13042926,62.57236588,66.87352544,43.75176001,43.75176001,39.13042926,62.57236588,66.87352544,-10,-10,10,10,55,45,45,65,65,3.16227766,10,3.16227766,10
5,20,0.236299926,w,65.4,Unlimited Time,i,57.25717681,65.35711159,58.59134184,48.08376091,48.08376091,57.25717681,65.35711159,58.59134184,-10,-10,10,10,55,45,45,65,65,3.16227766,10,3.16227766,10
6,1,0.150178632,w,43.3,Limited Time,l,54.79920741,43.3176552,59.08401572,58.69030632,43.3176552,59.08401572,54.79920741,58.69030632,-10,-0.33,0.33,10,55,45,54.67,55.33,65,3.16227766,3.16227766,3.16227766,3.16227766
6,2,0.045838969,o,57.8,Limited Time,l,54.23827096,46.59428935,57.78993634,63.29759212,46.59428935,57.78993634,54.23827096,63.29759212,-10,-0.33,0.33,10,55,45,54.67,55.33,65,3.16227766,3.16227766,3.16227766,3.16227766
6,3,0.153234178,p,76.1,Limited Time,l,59.54194105,46.28309846,51.60451032,76.08566865,46.28309846,51.60451032,59.54194105,76.08566865,-10,-0.33,0.33,10,55,45,54.67,55.33,65,3.16227766,3.16227766,3.16227766,3.16227766
6,4,0.118388528,q,51.8,Limited Time,l,51.81712427,47.81989013,58.19106778,65.95876958,47.81989013,58.19106778,51.81712427,65.95876958,-10,-0.33,0.33,10,55,45,54.67,55.33,65,3.16227766,3.16227766,3.16227766,3.16227766
6,5,0.081939207,p,60,Limited Time,l,50.86955332,48.94084142,61.74360747,59.98896128,48.94084142,61.74360747,50.86955332,59.98896128,-10,-0.33,0.33,10,55,45,54.67,55.33,65,3.16227766,3.16227766,3.16227766,3.16227766
6,6,0.131876449,o,56,Limited Time,l,52.15550953,47.95135186,56.02221467,66.23554225,47.95135186,56.02221467,52.15550953,66.23554225,-10,-0.33,0.33,10,55,45,54.67,55.33,65,3.16227766,3.16227766,3.16227766,3.16227766
6,7,0.038719857,w,41.4,Limited Time,l,57.54715809,41.39803993,55.80149576,66.43961455,41.39803993,55.80149576,57.54715809,66.43961455,-10,-0.33,0.33,10,55,45,54.67,55.33,65,3.16227766,3.16227766,3.16227766,3.16227766
6,8,0.039305647,o,50.2,Limited Time,l,56.24804751,47.02972618,50.2355972,70.95776018,47.02972618,50.2355972,56.24804751,70.95776018,-10,-0.33,0.33,10,55,45,54.67,55.33,65,3.16227766,3.16227766,3.16227766,3.16227766
6,9,0.023226399,p,67,Limited Time,l,52.6455628,42.88192904,55.80155112,66.98741646,42.88192904,55.80155112,52.6455628,66.98741646,-10,-0.33,0.33,10,55,45,54.67,55.33,65,3.16227766,3.16227766,3.16227766,3.16227766
6,10,0.096004084,p,65.4,Limited Time,l,58.22396662,48.82998305,53.05114398,65.41254872,48.82998305,53.05114398,58.22396662,65.41254872,-10,-0.33,0.33,10,55,45,54.67,55.33,65,3.16227766,3.16227766,3.16227766,3.16227766
6,11,0.064929993,p,63.3,Limited Time,l,56.6752218,43.80722716,46.79809359,63.30125156,43.80722716,46.79809359,56.6752218,63.30125156,-10,-0.33,0.33,10,55,45,54.67,55.33,65,3.16227766,3.16227766,3.16227766,3.16227766
6,12,0.027685908,p,56.5,Limited Time,l,57.09261903,46.35519801,51.34687797,56.47941329,46.35519801,51.34687797,57.09261903,56.47941329,-10,-0.33,0.33,10,55,45,54.67,55.33,65,3.16227766,3.16227766,3.16227766,3.16227766
6,13,0.024518321,p,59.5,Limited Time,l,55.71623797,45.20526433,55.67547984,59.52889764,45.20526433,55.67547984,55.71623797,59.52889764,-10,-0.33,0.33,10,55,45,54.67,55.33,65,3.16227766,3.16227766,3.16227766,3.16227766
6,14,0.367855158,p,65.7,Limited Time,l,55.16469501,44.51227351,50.93326253,65.6744663,44.51227351,50.93326253,55.16469501,65.6744663,-10,-0.33,0.33,10,55,45,54.67,55.33,65,3.16227766,3.16227766,3.16227766,3.16227766
6,15,0.069774469,q,54.6,Limited Time,l,54.61176693,44.92681006,54.25553248,65.52572989,44.92681006,54.25553248,54.61176693,65.52572989,-10,-0.33,0.33,10,55,45,54.67,55.33,65,3.16227766,3.16227766,3.16227766,3.16227766
6,16,0.015526714,p,65.9,Limited Time,l,58.33155012,48.98670793,54.18119902,65.91217397,48.98670793,54.18119902,58.33155012,65.91217397,-10,-0.33,0.33,10,55,45,54.67,55.33,65,3.16227766,3.16227766,3.16227766,3.16227766
6,17,0.077379373,o,50.5,Limited Time,l,58.00360112,46.10842683,50.4894084,66.58565793,46.10842683,50.4894084,58.00360112,66.58565793,-10,-0.33,0.33,10,55,45,54.67,55.33,65,3.16227766,3.16227766,3.16227766,3.16227766
6,18,0.013872736,p,65.2,Limited Time,l,56.54053954,46.75994496,52.59150972,65.23346514,46.75994496,52.59150972,56.54053954,65.23346514,-10,-0.33,0.33,10,55,45,54.67,55.33,65,3.16227766,3.16227766,3.16227766,3.16227766
6,19,,,0,Limited Time,l,58.73020667,42.1037893,56.07635562,60.84793133,42.1037893,56.07635562,58.73020667,60.84793133,-10,-0.33,0.33,10,55,45,54.67,55.33,65,3.16227766,3.16227766,3.16227766,3.16227766
6,20,0.215935692,p,68.9,Limited Time,l,51.07981838,47.28428522,57.00332595,68.94178932,47.28428522,57.00332595,51.07981838,68.94178932,-10,-0.33,0.33,10,55,45,54.67,55.33,65,3.16227766,3.16227766,3.16227766,3.16227766
7,1,0.393413719,w,41.3,Unlimited Time,e,59.59347425,41.34912003,48.08681808,57.50795609,48.08681808,57.50795609,41.34912003,59.59347425,0,0,0,0,55,55,55,55,55,3.16227766,6.32455532,8.366600265,10
7,2,0.278367235,o,57.4,Unlimited Time,e,50.70366747,59.92556498,57.38843718,54.54445995,57.38843718,54.54445995,59.92556498,50.70366747,0,0,0,0,55,55,55,55,55,3.16227766,6.32455532,8.366600265,10
7,3,0.236864598,p,48.9,Unlimited Time,e,59.55557402,36.4235433,52.07514992,48.86783621,52.07514992,48.86783621,36.4235433,59.55557402,0,0,0,0,55,55,55,55,55,3.16227766,6.32455532,8.366600265,10
7,4,0.228999018,q,61.1,Unlimited Time,e,61.11498912,60.75795055,52.82703163,57.49387988,52.82703163,57.49387988,60.75795055,61.11498912,0,0,0,0,55,55,55,55,55,3.16227766,6.32455532,8.366600265,10
7,5,0.273732618,o,48,Unlimited Time,e,72.44890815,52.2458981,48.01512219,49.91336854,48.01512219,49.91336854,52.2458981,72.44890815,0,0,0,0,55,55,55,55,55,3.16227766,6.32455532,8.366600265,10
7,6,0.168643609,q,54,Unlimited Time,e,54.03187755,57.64098931,55.48974912,59.13759633,55.48974912,59.13759633,57.64098931,54.03187755,0,0,0,0,55,55,55,55,55,3.16227766,6.32455532,8.366600265,10
7,7,0.221596139,q,40.4,Unlimited Time,e,40.38620972,57.23970182,53.61786355,54.54165613,53.61786355,54.54165613,57.23970182,40.38620972,0,0,0,0,55,55,55,55,55,3.16227766,6.32455532,8.366600265,10
7,8,0.24804899,o,50.2,Unlimited Time,e,62.43510554,50.57369595,50.22149452,52.78441726,50.22149452,52.78441726,50.57369595,62.43510554,0,0,0,0,55,55,55,55,55,3.16227766,6.32455532,8.366600265,10
7,9,0.176284531,p,60.1,Unlimited Time,e,51.21408426,54.03692257,56.12878864,60.09458023,56.12878864,60.09458023,54.03692257,51.21408426,0,0,0,0,55,55,55,55,55,3.16227766,6.32455532,8.366600265,10
7,10,0.191813528,p,57.6,Unlimited Time,e,33.44979683,71.44789817,55.16207717,57.62390568,55.16207717,57.62390568,71.44789817,33.44979683,0,0,0,0,55,55,55,55,55,3.16227766,6.32455532,8.366600265,10
7,11,0.079797564,w,55.3,Unlimited Time,e,61.01761178,55.34657437,56.63320267,60.88372783,56.63320267,60.88372783,55.34657437,61.01761178,0,0,0,0,55,55,55,55,55,3.16227766,6.32455532,8.366600265,10
7,12,0.154959382,o,53.9,Unlimited Time,e,47.91130016,45.66540025,53.91105605,47.80107887,53.91105605,47.80107887,45.66540025,47.91130016,0,0,0,0,55,55,55,55,55,3.16227766,6.32455532,8.366600265,10
7,13,0.067234794,p,51.7,Unlimited Time,e,45.10235673,51.82878199,54.51190585,51.72471745,54.51190585,51.72471745,51.82878199,45.10235673,0,0,0,0,55,55,55,55,55,3.16227766,6.32455532,8.366600265,10
7,14,0.140731702,p,57.9,Unlimited Time,e,56.97440868,47.98432991,55.1466366,57.9338625,55.1466366,57.9338625,47.98432991,56.97440868,0,0,0,0,55,55,55,55,55,3.16227766,6.32455532,8.366600265,10
7,15,0.226792953,p,56,Unlimited Time,e,51.35739054,52.3509799,53.28447842,56.0350447,53.28447842,56.0350447,52.3509799,51.35739054,0,0,0,0,55,55,55,55,55,3.16227766,6.32455532,8.366600265,10
7,16,0.174041415,p,41.5,Unlimited Time,e,32.13926136,56.15495249,56.83910879,41.49315533,56.83910879,41.49315533,56.15495249,32.13926136,0,0,0,0,55,55,55,55,55,3.16227766,6.32455532,8.366600265,10
7,17,0.244463499,w,57.5,Unlimited Time,e,49.51261651,57.48631228,55.67336564,49.09773765,55.67336564,49.09773765,57.48631228,49.51261651,0,0,0,0,55,55,55,55,55,3.16227766,6.32455532,8.366600265,10
7,18,0.131620781,o,63.1,Unlimited Time,e,64.51763302,55.86412254,63.10245309,58.23773722,63.10245309,58.23773722,55.86412254,64.51763302,0,0,0,0,55,55,55,55,55,3.16227766,6.32455532,8.366600265,10
7,19,0.154003596,p,51.5,Unlimited Time,e,35.39107535,56.98014996,57.57446284,51.45866846,57.57446284,51.45866846,56.98014996,35.39107535,0,0,0,0,55,55,55,55,55,3.16227766,6.32455532,8.366600265,10
7,20,0.112356255,o,51.4,Unlimited Time,e,65.5651057,63.36430642,51.40732443,51.74668247,51.40732443,51.74668247,63.36430642,65.5651057,0,0,0,0,55,55,55,55,55,3.16227766,6.32455532,8.366600265,10
8,1,,,0,Limited Time,e,41.34912003,48.08681808,57.50795609,59.59347425,48.08681808,57.50795609,41.34912003,59.59347425,0,0,0,0,55,55,55,55,55,3.16227766,6.32455532,8.366600265,10
8,2,,,0,Limited Time,e,59.92556498,57.38843718,54.54445995,50.70366747,57.38843718,54.54445995,59.92556498,50.70366747,0,0,0,0,55,55,55,55,55,3.16227766,6.32455532,8.366600265,10
8,3,0.069174984,q,36.4,Limited Time,e,36.4235433,52.07514992,48.86783621,59.55557402,52.07514992,48.86783621,36.4235433,59.55557402,0,0,0,0,55,55,55,55,55,3.16227766,6.32455532,8.366600265,10
8,4,0.004210153,q,60.8,Limited Time,e,60.75795055,52.82703163,57.49387988,61.11498912,52.82703163,57.49387988,60.75795055,61.11498912,0,0,0,0,55,55,55,55,55,3.16227766,6.32455532,8.366600265,10
8,5,0.043593184,q,52.2,Limited Time,e,52.2458981,48.01512219,49.91336854,72.44890815,48.01512219,49.91336854,52.2458981,72.44890815,0,0,0,0,55,55,55,55,55,3.16227766,6.32455532,8.366600265,10
8,6,0.075560487,p,54,Limited Time,e,57.64098931,55.48974912,59.13759633,54.03187755,55.48974912,59.13759633,57.64098931,54.03187755,0,0,0,0,55,55,55,55,55,3.16227766,6.32455532,8.366600265,10
8,7,0.020995215,o,54.5,Limited Time,e,57.23970182,53.61786355,54.54165613,40.38620972,53.61786355,54.54165613,57.23970182,40.38620972,0,0,0,0,55,55,55,55,55,3.16227766,6.32455532,8.366600265,10
8,8,,,0,Limited Time,e,50.57369595,50.22149452,52.78441726,62.43510554,50.22149452,52.78441726,50.57369595,62.43510554,0,0,0,0,55,55,55,55,55,3.16227766,6.32455532,8.366600265,10
8,9,0.352490663,w,56.1,Limited Time,e,54.03692257,56.12878864,60.09458023,51.21408426,56.12878864,60.09458023,54.03692257,51.21408426,0,0,0,0,55,55,55,55,55,3.16227766,6.32455532,8.366600265,10
8,10,0.196427023,q,71.4,Limited Time,e,71.44789817,55.16207717,57.62390568,33.44979683,55.16207717,57.62390568,71.44789817,33.44979683,0,0,0,0,55,55,55,55,55,3.16227766,6.32455532,8.366600265,10
8,11,0.146610882,o,60.9,Limited Time,e,55.34657437,56.63320267,60.88372783,61.01761178,56.63320267,60.88372783,55.34657437,61.01761178,0,0,0,0,55,55,55,55,55,3.16227766,6.32455532,8.366600265,10
8,12,0.007094437,w,53.9,Limited Time,e,45.66540025,53.91105605,47.80107887,47.91130016,53.91105605,47.80107887,45.66540025,47.91130016,0,0,0,0,55,55,55,55,55,3.16227766,6.32455532,8.366600265,10
8,13,0.043495442,p,45.1,Limited Time,e,51.82878199,54.51190585,51.72471745,45.10235673,54.51190585,51.72471745,51.82878199,45.10235673,0,0,0,0,55,55,55,55,55,3.16227766,6.32455532,8.366600265,10
8,14,0.043254177,w,55.1,Limited Time,e,47.98432991,55.1466366,57.9338625,56.97440868,55.1466366,57.9338625,47.98432991,56.97440868,0,0,0,0,55,55,55,55,55,3.16227766,6.32455532,8.366600265,10
8,15,,,0,Limited Time,e,52.3509799,53.28447842,56.0350447,51.35739054,53.28447842,56.0350447,52.3509799,51.35739054,0,0,0,0,55,55,55,55,55,3.16227766,6.32455532,8.366600265,10
8,16,0.094754694,p,32.1,Limited Time,e,56.15495249,56.83910879,41.49315533,32.13926136,56.83910879,41.49315533,56.15495249,32.13926136,0,0,0,0,55,55,55,55,55,3.16227766,6.32455532,8.366600265,10
8,17,0.047144057,q,57.5,Limited Time,e,57.48631228,55.67336564,49.09773765,49.51261651,55.67336564,49.09773765,57.48631228,49.51261651,0,0,0,0,55,55,55,55,55,3.16227766,6.32455532,8.366600265,10
8,18,0.030896972,o,58.2,Limited Time,e,55.86412254,63.10245309,58.23773722,64.51763302,63.10245309,58.23773722,55.86412254,64.51763302,0,0,0,0,55,55,55,55,55,3.16227766,6.32455532,8.366600265,10
8,19,,,0,Limited Time,e,56.98014996,57.57446284,51.45866846,35.39107535,57.57446284,51.45866846,56.98014996,35.39107535,0,0,0,0,55,55,55,55,55,3.16227766,6.32455532,8.366600265,10
8,20,0.094293189,w,51.4,Limited Time,e,63.36430642,51.40732443,51.74668247,65.5651057,51.40732443,51.74668247,63.36430642,65.5651057,0,0,0,0,55,55,55,55,55,3.16227766,6.32455532,8.366600265,10
9,1,0.322582827,w,58.7,Unlimited Time,l,54.79920741,58.69030632,59.08401572,43.3176552,43.3176552,59.08401572,54.79920741,58.69030632,-10,-0.33,0.33,10,55,45,54.67,55.33,65,3.16227766,3.16227766,3.16227766,3.16227766
9,2,0.300924841,o,57.8,Unlimited Time,l,54.23827096,63.29759212,57.78993634,46.59428935,46.59428935,57.78993634,54.23827096,63.29759212,-10,-0.33,0.33,10,55,45,54.67,55.33,65,3.16227766,3.16227766,3.16227766,3.16227766
9,3,0.29431329,w,76.1,Unlimited Time,l,59.54194105,76.08566865,51.60451032,46.28309846,46.28309846,51.60451032,59.54194105,76.08566865,-10,-0.33,0.33,10,55,45,54.67,55.33,65,3.16227766,3.16227766,3.16227766,3.16227766
9,4,0.28843144,q,51.8,Unlimited Time,l,51.81712427,65.95876958,58.19106778,47.81989013,47.81989013,58.19106778,51.81712427,65.95876958,-10,-0.33,0.33,10,55,45,54.67,55.33,65,3.16227766,3.16227766,3.16227766,3.16227766
9,5,0.064297562,w,60,Unlimited Time,l,50.86955332,59.98896128,61.74360747,48.94084142,48.94084142,61.74360747,50.86955332,59.98896128,-10,-0.33,0.33,10,55,45,54.67,55.33,65,3.16227766,3.16227766,3.16227766,3.16227766
9,6,0.153706959,w,66.2,Unlimited Time,l,52.15550953,66.23554225,56.02221467,47.95135186,47.95135186,56.02221467,52.15550953,66.23554225,-10,-0.33,0.33,10,55,45,54.67,55.33,65,3.16227766,3.16227766,3.16227766,3.16227766
9,7,0.536053171,p,41.4,Unlimited Time,l,57.54715809,66.43961455,55.80149576,41.39803993,41.39803993,55.80149576,57.54715809,66.43961455,-10,-0.33,0.33,10,55,45,54.67,55.33,65,3.16227766,3.16227766,3.16227766,3.16227766
9,8,0.178284015,o,50.2,Unlimited Time,l,56.24804751,70.95776018,50.2355972,47.02972618,47.02972618,50.2355972,56.24804751,70.95776018,-10,-0.33,0.33,10,55,45,54.67,55.33,65,3.16227766,3.16227766,3.16227766,3.16227766
9,9,0.101118151,w,67,Unlimited Time,l,52.6455628,66.98741646,55.80155112,42.88192904,42.88192904,55.80155112,52.6455628,66.98741646,-10,-0.33,0.33,10,55,45,54.67,55.33,65,3.16227766,3.16227766,3.16227766,3.16227766
9,10,0.224345692,w,65.4,Unlimited Time,l,58.22396662,65.41254872,53.05114398,48.82998305,48.82998305,53.05114398,58.22396662,65.41254872,-10,-0.33,0.33,10,55,45,54.67,55.33,65,3.16227766,3.16227766,3.16227766,3.16227766
9,11,0.202457749,q,56.7,Unlimited Time,l,56.6752218,63.30125156,46.79809359,43.80722716,43.80722716,46.79809359,56.6752218,63.30125156,-10,-0.33,0.33,10,55,45,54.67,55.33,65,3.16227766,3.16227766,3.16227766,3.16227766
9,12,0.010009139,w,56.5,Unlimited Time,l,57.09261903,56.47941329,51.34687797,46.35519801,46.35519801,51.34687797,57.09261903,56.47941329,-10,-0.33,0.33,10,55,45,54.67,55.33,65,3.16227766,3.16227766,3.16227766,3.16227766
9,13,0.117780835,w,59.5,Unlimited Time,l,55.71623797,59.52889764,55.67547984,45.20526433,45.20526433,55.67547984,55.71623797,59.52889764,-10,-0.33,0.33,10,55,45,54.67,55.33,65,3.16227766,3.16227766,3.16227766,3.16227766
9,14,0.128712998,w,65.7,Unlimited Time,l,55.16469501,65.6744663,50.93326253,44.51227351,44.51227351,50.93326253,55.16469501,65.6744663,-10,-0.33,0.33,10,55,45,54.67,55.33,65,3.16227766,3.16227766,3.16227766,3.16227766
9,15,0.098224568,w,65.5,Unlimited Time,l,54.61176693,65.52572989,54.25553248,44.92681006,44.92681006,54.25553248,54.61176693,65.52572989,-10,-0.33,0.33,10,55,45,54.67,55.33,65,3.16227766,3.16227766,3.16227766,3.16227766
9,16,0.062836663,w,65.9,Unlimited Time,l,58.33155012,65.91217397,54.18119902,48.98670793,48.98670793,54.18119902,58.33155012,65.91217397,-10,-0.33,0.33,10,55,45,54.67,55.33,65,3.16227766,3.16227766,3.16227766,3.16227766
9,17,0.08907076,w,66.6,Unlimited Time,l,58.00360112,66.58565793,50.4894084,46.10842683,46.10842683,50.4894084,58.00360112,66.58565793,-10,-0.33,0.33,10,55,45,54.67,55.33,65,3.16227766,3.16227766,3.16227766,3.16227766
9,18,0.101210596,w,65.2,Unlimited Time,l,56.54053954,65.23346514,52.59150972,46.75994496,46.75994496,52.59150972,56.54053954,65.23346514,-10,-0.33,0.33,10,55,45,54.67,55.33,65,3.16227766,3.16227766,3.16227766,3.16227766
9,19,0.044721206,w,60.8,Unlimited Time,l,58.73020667,60.84793133,56.07635562,42.1037893,42.1037893,56.07635562,58.73020667,60.84793133,-10,-0.33,0.33,10,55,45,54.67,55.33,65,3.16227766,3.16227766,3.16227766,3.16227766
9,20,0.05358776,w,68.9,Unlimited Time,l,51.07981838,68.94178932,57.00332595,47.28428522,47.28428522,57.00332595,51.07981838,68.94178932,-10,-0.33,0.33,10,55,45,54.67,55.33,65,3.16227766,3.16227766,3.16227766,3.16227766
10,1,0.252778179,w,59.1,Limited Time,l,43.3176552,59.08401572,58.69030632,54.79920741,43.3176552,59.08401572,54.79920741,58.69030632,-10,-0.33,0.33,10,55,45,54.67,55.33,65,3.16227766,3.16227766,3.16227766,3.16227766
10,2,0.130957549,w,57.8,Limited Time,l,46.59428935,57.78993634,63.29759212,54.23827096,46.59428935,57.78993634,54.23827096,63.29759212,-10,-0.33,0.33,10,55,45,54.67,55.33,65,3.16227766,3.16227766,3.16227766,3.16227766
10,3,0.091007314,w,51.6,Limited Time,l,46.28309846,51.60451032,76.08566865,59.54194105,46.28309846,51.60451032,59.54194105,76.08566865,-10,-0.33,0.33,10,55,45,54.67,55.33,65,3.16227766,3.16227766,3.16227766,3.16227766
10,4,0.113289574,o,66,Limited Time,l,47.81989013,58.19106778,65.95876958,51.81712427,47.81989013,58.19106778,51.81712427,65.95876958,-10,-0.33,0.33,10,55,45,54.67,55.33,65,3.16227766,3.16227766,3.16227766,3.16227766
10,5,0.049903383,p,50.9,Limited Time,l,48.94084142,61.74360747,59.98896128,50.86955332,48.94084142,61.74360747,50.86955332,59.98896128,-10,-0.33,0.33,10,55,45,54.67,55.33,65,3.16227766,3.16227766,3.16227766,3.16227766
10,6,0.074254231,p,52.2,Limited Time,l,47.95135186,56.02221467,66.23554225,52.15550953,47.95135186,56.02221467,52.15550953,66.23554225,-10,-0.33,0.33,10,55,45,54.67,55.33,65,3.16227766,3.16227766,3.16227766,3.16227766
10,7,0.036251298,o,66.4,Limited Time,l,41.39803993,55.80149576,66.43961455,57.54715809,41.39803993,55.80149576,57.54715809,66.43961455,-10,-0.33,0.33,10,55,45,54.67,55.33,65,3.16227766,3.16227766,3.16227766,3.16227766
10,8,0.045034909,q,47,Limited Time,l,47.02972618,50.2355972,70.95776018,56.24804751,47.02972618,50.2355972,56.24804751,70.95776018,-10,-0.33,0.33,10,55,45,54.67,55.33,65,3.16227766,3.16227766,3.16227766,3.16227766
10,9,0.108102054,o,67,Limited Time,l,42.88192904,55.80155112,66.98741646,52.6455628,42.88192904,55.80155112,52.6455628,66.98741646,-10,-0.33,0.33,10,55,45,54.67,55.33,65,3.16227766,3.16227766,3.16227766,3.16227766
10,10,0.027302518,o,65.4,Limited Time,l,48.82998305,53.05114398,65.41254872,58.22396662,48.82998305,53.05114398,58.22396662,65.41254872,-10,-0.33,0.33,10,55,45,54.67,55.33,65,3.16227766,3.16227766,3.16227766,3.16227766
10,11,0.03103127,o,63.3,Limited Time,l,43.80722716,46.79809359,63.30125156,56.6752218,43.80722716,46.79809359,56.6752218,63.30125156,-10,-0.33,0.33,10,55,45,54.67,55.33,65,3.16227766,3.16227766,3.16227766,3.16227766
10,12,0.016625617,o,56.5,Limited Time,l,46.35519801,51.34687797,56.47941329,57.09261903,46.35519801,51.34687797,57.09261903,56.47941329,-10,-0.33,0.33,10,55,45,54.67,55.33,65,3.16227766,3.16227766,3.16227766,3.16227766
10,13,0.079460061,o,59.5,Limited Time,l,45.20526433,55.67547984,59.52889764,55.71623797,45.20526433,55.67547984,55.71623797,59.52889764,-10,-0.33,0.33,10,55,45,54.67,55.33,65,3.16227766,3.16227766,3.16227766,3.16227766
10,14,0.105006255,p,55.2,Limited Time,l,44.51227351,50.93326253,65.6744663,55.16469501,44.51227351,50.93326253,55.16469501,65.6744663,-10,-0.33,0.33,10,55,45,54.67,55.33,65,3.16227766,3.16227766,3.16227766,3.16227766
10,15,0.107655269,p,54.6,Limited Time,l,44.92681006,54.25553248,65.52572989,54.61176693,44.92681006,54.25553248,54.61176693,65.52572989,-10,-0.33,0.33,10,55,45,54.67,55.33,65,3.16227766,3.16227766,3.16227766,3.16227766
10,16,0.10068474,o,65.9,Limited Time,l,48.98670793,54.18119902,65.91217397,58.33155012,48.98670793,54.18119902,58.33155012,65.91217397,-10,-0.33,0.33,10,55,45,54.67,55.33,65,3.16227766,3.16227766,3.16227766,3.16227766
10,17,,,0,Limited Time,l,46.10842683,50.4894084,66.58565793,58.00360112,46.10842683,50.4894084,58.00360112,66.58565793,-10,-0.33,0.33,10,55,45,54.67,55.33,65,3.16227766,3.16227766,3.16227766,3.16227766
10,18,0.246543885,o,65.2,Limited Time,l,46.75994496,52.59150972,65.23346514,56.54053954,46.75994496,52.59150972,56.54053954,65.23346514,-10,-0.33,0.33,10,55,45,54.67,55.33,65,3.16227766,3.16227766,3.16227766,3.16227766
10,19,0.174486983,o,60.8,Limited Time,l,42.1037893,56.07635562,60.84793133,58.73020667,42.1037893,56.07635562,58.73020667,60.84793133,-10,-0.33,0.33,10,55,45,54.67,55.33,65,3.16227766,3.16227766,3.16227766,3.16227766
10,20,0.101720335,p,51.1,Limited Time,l,47.28428522,57.00332595,68.94178932,51.07981838,47.28428522,57.00332595,51.07981838,68.94178932,-10,-0.33,0.33,10,55,45,54.67,55.33,65,3.16227766,3.16227766,3.16227766,3.16227766
11,1,0.678226169,w,48.1,Unlimited Time,e,41.34912003,48.08681808,59.59347425,57.50795609,48.08681808,57.50795609,41.34912003,59.59347425,0,0,0,0,55,55,55,55,55,3.16227766,6.32455532,8.366600265,10
11,2,0.276640518,o,50.7,Unlimited Time,e,59.92556498,57.38843718,50.70366747,54.54445995,57.38843718,54.54445995,59.92556498,50.70366747,0,0,0,0,55,55,55,55,55,3.16227766,6.32455532,8.366600265,10
11,3,0.383293321,p,48.9,Unlimited Time,e,36.4235433,52.07514992,59.55557402,48.86783621,52.07514992,48.86783621,36.4235433,59.55557402,0,0,0,0,55,55,55,55,55,3.16227766,6.32455532,8.366600265,10
11,4,0.233250638,q,60.8,Unlimited Time,e,60.75795055,52.82703163,61.11498912,57.49387988,52.82703163,57.49387988,60.75795055,61.11498912,0,0,0,0,55,55,55,55,55,3.16227766,6.32455532,8.366600265,10
11,5,0.307908608,q,52.2,Unlimited Time,e,52.2458981,48.01512219,72.44890815,49.91336854,48.01512219,49.91336854,52.2458981,72.44890815,0,0,0,0,55,55,55,55,55,3.16227766,6.32455532,8.366600265,10
11,6,0.273547169,p,59.1,Unlimited Time,e,57.64098931,55.48974912,54.03187755,59.13759633,55.48974912,59.13759633,57.64098931,54.03187755,0,0,0,0,55,55,55,55,55,3.16227766,6.32455532,8.366600265,10
11,7,0.279194726,o,40.4,Unlimited Time,e,57.23970182,53.61786355,40.38620972,54.54165613,53.61786355,54.54165613,57.23970182,40.38620972,0,0,0,0,55,55,55,55,55,3.16227766,6.32455532,8.366600265,10
11,8,0.326143169,w,50.2,Unlimited Time,e,50.57369595,50.22149452,62.43510554,52.78441726,50.22149452,52.78441726,50.57369595,62.43510554,0,0,0,0,55,55,55,55,55,3.16227766,6.32455532,8.366600265,10
11,9,0.226925105,p,60.1,Unlimited Time,e,54.03692257,56.12878864,51.21408426,60.09458023,56.12878864,60.09458023,54.03692257,51.21408426,0,0,0,0,55,55,55,55,55,3.16227766,6.32455532,8.366600265,10
11,10,0.272083508,p,57.6,Unlimited Time,e,71.44789817,55.16207717,33.44979683,57.62390568,55.16207717,57.62390568,71.44789817,33.44979683,0,0,0,0,55,55,55,55,55,3.16227766,6.32455532,8.366600265,10
11,11,0.322568894,p,60.9,Unlimited Time,e,55.34657437,56.63320267,61.01761178,60.88372783,56.63320267,60.88372783,55.34657437,61.01761178,0,0,0,0,55,55,55,55,55,3.16227766,6.32455532,8.366600265,10
11,12,0.200786017,p,47.8,Unlimited Time,e,45.66540025,53.91105605,47.91130016,47.80107887,53.91105605,47.80107887,45.66540025,47.91130016,0,0,0,0,55,55,55,55,55,3.16227766,6.32455532,8.366600265,10
11,13,0.294484686,p,51.7,Unlimited Time,e,51.82878199,54.51190585,45.10235673,51.72471745,54.51190585,51.72471745,51.82878199,45.10235673,0,0,0,0,55,55,55,55,55,3.16227766,6.32455532,8.366600265,10
11,14,0.207202894,p,57.9,Unlimited Time,e,47.98432991,55.1466366,56.97440868,57.9338625,55.1466366,57.9338625,47.98432991,56.97440868,0,0,0,0,55,55,55,55,55,3.16227766,6.32455532,8.366600265,10
11,15,0.217944086,p,56,Unlimited Time,e,52.3509799,53.28447842,51.35739054,56.0350447,53.28447842,56.0350447,52.3509799,51.35739054,0,0,0,0,55,55,55,55,55,3.16227766,6.32455532,8.366600265,10
11,16,0.121259943,p,41.5,Unlimited Time,e,56.15495249,56.83910879,32.13926136,41.49315533,56.83910879,41.49315533,56.15495249,32.13926136,0,0,0,0,55,55,55,55,55,3.16227766,6.32455532,8.366600265,10
11,17,0.221390175,o,49.5,Unlimited Time,e,57.48631228,55.67336564,49.51261651,49.09773765,55.67336564,49.09773765,57.48631228,49.51261651,0,0,0,0,55,55,55,55,55,3.16227766,6.32455532,8.366600265,10
11,18,0.132084947,w,63.1,Unlimited Time,e,55.86412254,63.10245309,64.51763302,58.23773722,63.10245309,58.23773722,55.86412254,64.51763302,0,0,0,0,55,55,55,55,55,3.16227766,6.32455532,8.366600265,10
11,19,0.151145044,w,57.6,Unlimited Time,e,56.98014996,57.57446284,35.39107535,51.45866846,57.57446284,51.45866846,56.98014996,35.39107535,0,0,0,0,55,55,55,55,55,3.16227766,6.32455532,8.366600265,10
11,20,0.107573926,q,63.4,Unlimited Time,e,63.36430642,51.40732443,65.5651057,51.74668247,51.40732443,51.74668247,63.36430642,65.5651057,0,0,0,0,55,55,55,55,55,3.16227766,6.32455532,8.366600265,10
12,1,0.131230878,w,41.3,Limited Time,e,59.59347425,41.34912003,48.08681808,57.50795609,48.08681808,57.50795609,41.34912003,59.59347425,0,0,0,0,55,55,55,55,55,3.16227766,6.32455532,8.366600265,10
12,2,0.288717739,o,57.4,Limited Time,e,50.70366747,59.92556498,57.38843718,54.54445995,57.38843718,54.54445995,59.92556498,50.70366747,0,0,0,0,55,55,55,55,55,3.16227766,6.32455532,8.366600265,10
12,3,0.161081146,q,59.6,Limited Time,e,59.55557402,36.4235433,52.07514992,48.86783621,52.07514992,48.86783621,36.4235433,59.55557402,0,0,0,0,55,55,55,55,55,3.16227766,6.32455532,8.366600265,10
12,4,0.092484797,p,57.5,Limited Time,e,61.11498912,60.75795055,52.82703163,57.49387988,52.82703163,57.49387988,60.75795055,61.11498912,0,0,0,0,55,55,55,55,55,3.16227766,6.32455532,8.366600265,10
12,5,0.195855135,p,49.9,Limited Time,e,72.44890815,52.2458981,48.01512219,49.91336854,48.01512219,49.91336854,52.2458981,72.44890815,0,0,0,0,55,55,55,55,55,3.16227766,6.32455532,8.366600265,10
12,6,0.095401471,q,54,Limited Time,e,54.03187755,57.64098931,55.48974912,59.13759633,55.48974912,59.13759633,57.64098931,54.03187755,0,0,0,0,55,55,55,55,55,3.16227766,6.32455532,8.366600265,10
12,7,0.052802979,w,57.2,Limited Time,e,40.38620972,57.23970182,53.61786355,54.54165613,53.61786355,54.54165613,57.23970182,40.38620972,0,0,0,0,55,55,55,55,55,3.16227766,6.32455532,8.366600265,10
12,8,,,0,Limited Time,e,62.43510554,50.57369595,50.22149452,52.78441726,50.22149452,52.78441726,50.57369595,62.43510554,0,0,0,0,55,55,55,55,55,3.16227766,6.32455532,8.366600265,10
12,9,0.218113397,w,54,Limited Time,e,51.21408426,54.03692257,56.12878864,60.09458023,56.12878864,60.09458023,54.03692257,51.21408426,0,0,0,0,55,55,55,55,55,3.16227766,6.32455532,8.366600265,10
12,10,0.004966008,w,71.4,Limited Time,e,33.44979683,71.44789817,55.16207717,57.62390568,55.16207717,57.62390568,71.44789817,33.44979683,0,0,0,0,55,55,55,55,55,3.16227766,6.32455532,8.366600265,10
12,11,0.018283335,q,61,Limited Time,e,61.01761178,55.34657437,56.63320267,60.88372783,56.63320267,60.88372783,55.34657437,61.01761178,0,0,0,0,55,55,55,55,55,3.16227766,6.32455532,8.366600265,10
12,12,0.187650989,q,47.9,Limited Time,e,47.91130016,45.66540025,53.91105605,47.80107887,53.91105605,47.80107887,45.66540025,47.91130016,0,0,0,0,55,55,55,55,55,3.16227766,6.32455532,8.366600265,10
12,13,0.077422338,q,45.1,Limited Time,e,45.10235673,51.82878199,54.51190585,51.72471745,54.51190585,51.72471745,51.82878199,45.10235673,0,0,0,0,55,55,55,55,55,3.16227766,6.32455532,8.366600265,10
12,14,0.090293485,w,48,Limited Time,e,56.97440868,47.98432991,55.1466366,57.9338625,55.1466366,57.9338625,47.98432991,56.97440868,0,0,0,0,55,55,55,55,55,3.16227766,6.32455532,8.366600265,10
12,15,0.132313764,w,52.4,Limited Time,e,51.35739054,52.3509799,53.28447842,56.0350447,53.28447842,56.0350447,52.3509799,51.35739054,0,0,0,0,55,55,55,55,55,3.16227766,6.32455532,8.366600265,10
12,16,0.122132503,o,56.8,Limited Time,e,32.13926136,56.15495249,56.83910879,41.49315533,56.83910879,41.49315533,56.15495249,32.13926136,0,0,0,0,55,55,55,55,55,3.16227766,6.32455532,8.366600265,10
12,17,0.023519296,p,49.1,Limited Time,e,49.51261651,57.48631228,55.67336564,49.09773765,55.67336564,49.09773765,57.48631228,49.51261651,0,0,0,0,55,55,55,55,55,3.16227766,6.32455532,8.366600265,10
12,18,0.064210419,p,58.2,Limited Time,e,64.51763302,55.86412254,63.10245309,58.23773722,63.10245309,58.23773722,55.86412254,64.51763302,0,0,0,0,55,55,55,55,55,3.16227766,6.32455532,8.366600265,10
12,19,0.104116357,o,57.6,Limited Time,e,35.39107535,56.98014996,57.57446284,51.45866846,57.57446284,51.45866846,56.98014996,35.39107535,0,0,0,0,55,55,55,55,55,3.16227766,6.32455532,8.366600265,10
12,20,0.130926659,q,65.6,Limited Time,e,65.5651057,63.36430642,51.40732443,51.74668247,51.40732443,51.74668247,63.36430642,65.5651057,0,0,0,0,55,55,55,55,55,3.16227766,6.32455532,8.366600265,10
13,1,0.367002057,w,54.8,Unlimited Time,l,59.08401572,54.79920741,43.3176552,58.69030632,43.3176552,59.08401572,54.79920741,58.69030632,-10,-0.33,0.33,10,55,45,54.67,55.33,65,3.16227766,3.16227766,3.16227766,3.16227766
13,2,0.24504421,p,63.3,Unlimited Time,l,57.78993634,54.23827096,46.59428935,63.29759212,46.59428935,57.78993634,54.23827096,63.29759212,-10,-0.33,0.33,10,55,45,54.67,55.33,65,3.16227766,3.16227766,3.16227766,3.16227766
13,3,0.324918079,p,76.1,Unlimited Time,l,51.60451032,59.54194105,46.28309846,76.08566865,46.28309846,51.60451032,59.54194105,76.08566865,-10,-0.33,0.33,10,55,45,54.67,55.33,65,3.16227766,3.16227766,3.16227766,3.16227766
13,4,0.264820307,p,66,Unlimited Time,l,58.19106778,51.81712427,47.81989013,65.95876958,47.81989013,58.19106778,51.81712427,65.95876958,-10,-0.33,0.33,10,55,45,54.67,55.33,65,3.16227766,3.16227766,3.16227766,3.16227766
13,5,0.236812506,p,60,Unlimited Time,l,61.74360747,50.86955332,48.94084142,59.98896128,48.94084142,61.74360747,50.86955332,59.98896128,-10,-0.33,0.33,10,55,45,54.67,55.33,65,3.16227766,3.16227766,3.16227766,3.16227766
13,6,0.213072558,p,66.2,Unlimited Time,l,56.02221467,52.15550953,47.95135186,66.23554225,47.95135186,56.02221467,52.15550953,66.23554225,-10,-0.33,0.33,10,55,45,54.67,55.33,65,3.16227766,3.16227766,3.16227766,3.16227766
13,7,0.204566005,p,66.4,Unlimited Time,l,55.80149576,57.54715809,41.39803993,66.43961455,41.39803993,55.80149576,57.54715809,66.43961455,-10,-0.33,0.33,10,55,45,54.67,55.33,65,3.16227766,3.16227766,3.16227766,3.16227766
13,8,0.22216473,p,71,Unlimited Time,l,50.2355972,56.24804751,47.02972618,70.95776018,47.02972618,50.2355972,56.24804751,70.95776018,-10,-0.33,0.33,10,55,45,54.67,55.33,65,3.16227766,3.16227766,3.16227766,3.16227766
13,9,0.183796386,p,67,Unlimited Time,l,55.80155112,52.6455628,42.88192904,66.98741646,42.88192904,55.80155112,52.6455628,66.98741646,-10,-0.33,0.33,10,55,45,54.67,55.33,65,3.16227766,3.16227766,3.16227766,3.16227766
13,10,0.182768633,p,65.4,Unlimited Time,l,53.05114398,58.22396662,48.82998305,65.41254872,48.82998305,53.05114398,58.22396662,65.41254872,-10,-0.33,0.33,10,55,45,54.67,55.33,65,3.16227766,3.16227766,3.16227766,3.16227766
13,11,0.10158194,p,63.3,Unlimited Time,l,46.79809359,56.6752218,43.80722716,63.30125156,43.80722716,46.79809359,56.6752218,63.30125156,-10,-0.33,0.33,10,55,45,54.67,55.33,65,3.16227766,3.16227766,3.16227766,3.16227766
13,12,0.095342931,p,56.5,Unlimited Time,l,51.34687797,57.09261903,46.35519801,56.47941329,46.35519801,51.34687797,57.09261903,56.47941329,-10,-0.33,0.33,10,55,45,54.67,55.33,65,3.16227766,3.16227766,3.16227766,3.16227766
13,13,0.161689926,p,59.5,Unlimited Time,l,55.67547984,55.71623797,45.20526433,59.52889764,45.20526433,55.67547984,55.71623797,59.52889764,-10,-0.33,0.33,10,55,45,54.67,55.33,65,3.16227766,3.16227766,3.16227766,3.16227766
13,14,0.194243904,o,44.5,Unlimited Time,l,50.93326253,55.16469501,44.51227351,65.6744663,44.51227351,50.93326253,55.16469501,65.6744663,-10,-0.33,0.33,10,55,45,54.67,55.33,65,3.16227766,3.16227766,3.16227766,3.16227766
13,15,0.029917765,w,54.6,Unlimited Time,l,54.25553248,54.61176693,44.92681006,65.52572989,44.92681006,54.25553248,54.61176693,65.52572989,-10,-0.33,0.33,10,55,45,54.67,55.33,65,3.16227766,3.16227766,3.16227766,3.16227766
13,16,0.044427621,q,54.2,Unlimited Time,l,54.18119902,58.33155012,48.98670793,65.91217397,48.98670793,54.18119902,58.33155012,65.91217397,-10,-0.33,0.33,10,55,45,54.67,55.33,65,3.16227766,3.16227766,3.16227766,3.16227766
13,17,0.148431817,p,66.6,Unlimited Time,l,50.4894084,58.00360112,46.10842683,66.58565793,46.10842683,50.4894084,58.00360112,66.58565793,-10,-0.33,0.33,10,55,45,54.67,55.33,65,3.16227766,3.16227766,3.16227766,3.16227766
13,18,0.161707182,p,65.2,Unlimited Time,l,52.59150972,56.54053954,46.75994496,65.23346514,46.75994496,52.59150972,56.54053954,65.23346514,-10,-0.33,0.33,10,55,45,54.67,55.33,65,3.16227766,3.16227766,3.16227766,3.16227766
13,19,0.216693702,p,60.8,Unlimited Time,l,56.07635562,58.73020667,42.1037893,60.84793133,42.1037893,56.07635562,58.73020667,60.84793133,-10,-0.33,0.33,10,55,45,54.67,55.33,65,3.16227766,3.16227766,3.16227766,3.16227766
13,20,0.224292751,p,68.9,Unlimited Time,l,57.00332595,51.07981838,47.28428522,68.94178932,47.28428522,57.00332595,51.07981838,68.94178932,-10,-0.33,0.33,10,55,45,54.67,55.33,65,3.16227766,3.16227766,3.16227766,3.16227766
14,1,,,0,Limited Time,i,62.57654201,64.15916975,51.94207228,41.36886629,41.36886629,51.94207228,64.15916975,62.57654201,-10,-10,10,10,55,45,45,65,65,3.16227766,10,3.16227766,10
14,2,0.107730591,o,31.9,Limited Time,i,75.49270019,67.05369045,31.86327372,43.86047609,43.86047609,31.86327372,67.05369045,75.49270019,-10,-10,10,10,55,45,45,65,65,3.16227766,10,3.16227766,10
14,3,0.362279338,q,83.3,Limited Time,i,83.30881975,62.78232739,57.9600091,43.70544152,43.70544152,57.9600091,62.78232739,83.30881975,-10,-10,10,10,55,45,45,65,65,3.16227766,10,3.16227766,10
14,4,0.073620512,p,44.8,Limited Time,i,78.1563817,65.36383702,40.81187175,44.80193297,44.80193297,40.81187175,65.36383702,78.1563817,-10,-10,10,10,55,45,45,65,65,3.16227766,10,3.16227766,10
14,5,0.07897768,q,57.7,Limited Time,i,57.74860814,65.19303867,38.84911214,41.61626535,41.61626535,38.84911214,65.19303867,57.74860814,-10,-10,10,10,55,45,45,65,65,3.16227766,10,3.16227766,10
14,6,0.060979215,q,72.5,Limited Time,i,72.51934061,66.07671551,44.03298041,45.74965884,45.74965884,44.03298041,66.07671551,72.51934061,-10,-10,10,10,55,45,45,65,65,3.16227766,10,3.16227766,10
14,7,0.034291003,w,67.2,Limited Time,i,59.08621669,67.24642326,39.90672778,47.81932584,47.81932584,39.90672778,67.24642326,59.08621669,-10,-10,10,10,55,45,45,65,65,3.16227766,10,3.16227766,10
14,8,0.032276591,w,62.4,Limited Time,i,84.94159581,62.40735675,52.58508069,41.87546521,41.87546521,52.58508069,62.40735675,84.94159581,-10,-10,10,10,55,45,45,65,65,3.16227766,10,3.16227766,10
14,9,0.046703018,w,61.7,Limited Time,i,91.94241941,61.74469487,34.10360279,44.46297106,44.46297106,34.10360279,61.74469487,91.94241941,-10,-10,10,10,55,45,45,65,65,3.16227766,10,3.16227766,10
14,10,0.313316919,w,58.1,Limited Time,i,59.75718671,58.06821492,33.76486089,40.29721022,40.29721022,33.76486089,58.06821492,59.75718671,-10,-10,10,10,55,45,45,65,65,3.16227766,10,3.16227766,10
14,11,0.125248742,w,64.3,Limited Time,i,66.52712348,64.26098784,44.19216072,41.12652547,41.12652547,44.19216072,64.26098784,66.52712348,-10,-10,10,10,55,45,45,65,65,3.16227766,10,3.16227766,10
14,12,,,0,Limited Time,i,59.3605704,69.12776249,50.3900976,44.42907127,44.42907127,50.3900976,69.12776249,59.3605704,-10,-10,10,10,55,45,45,65,65,3.16227766,10,3.16227766,10
14,13,0.079947218,q,63.9,Limited Time,i,63.89568398,62.45681937,69.56951521,39.8448857,39.8448857,69.56951521,62.45681937,63.89568398,-10,-10,10,10,55,45,45,65,65,3.16227766,10,3.16227766,10
14,14,0.02270258,o,36.8,Limited Time,i,77.51715848,68.25670384,36.83287149,46.72255513,46.72255513,36.83287149,68.25670384,77.51715848,-10,-10,10,10,55,45,45,65,65,3.16227766,10,3.16227766,10
14,15,,,0,Limited Time,i,56.575489,68.36289288,40.98718691,48.46183803,48.46183803,40.98718691,68.36289288,56.575489,-10,-10,10,10,55,45,45,65,65,3.16227766,10,3.16227766,10
14,16,0.056262648,w,62.4,Limited Time,i,72.84822004,62.40884391,35.98633985,46.36033709,46.36033709,35.98633985,62.40884391,72.84822004,-10,-10,10,10,55,45,45,65,65,3.16227766,10,3.16227766,10
14,17,0.039084804,o,24.8,Limited Time,i,73.70637429,64.33199862,24.75266979,49.49100841,49.49100841,24.75266979,64.33199862,73.70637429,-10,-10,10,10,55,45,45,65,65,3.16227766,10,3.16227766,10
14,18,0.144650457,o,52.1,Limited Time,i,66.43335261,67.62030733,52.10078583,48.01829338,48.01829338,52.10078583,67.62030733,66.43335261,-10,-10,10,10,55,45,45,65,65,3.16227766,10,3.16227766,10
14,19,0.006708636,q,66.9,Limited Time,i,66.87352544,62.57236588,39.13042926,43.75176001,43.75176001,39.13042926,62.57236588,66.87352544,-10,-10,10,10,55,45,45,65,65,3.16227766,10,3.16227766,10
14,20,0.232731048,q,58.6,Limited Time,i,58.59134184,65.35711159,57.25717681,48.08376091,48.08376091,57.25717681,65.35711159,58.59134184,-10,-10,10,10,55,45,45,65,65,3.16227766,10,3.16227766,10
15,1,0.42470665,w,50.7,Unlimited Time,h,54.3929821,50.72159374,56.55092127,52.87479363,52.87479363,56.55092127,50.72159374,54.3929821,-10,-0.33,0.33,10,55,45,54.67,55.33,65,10,10,10,10
15,2,0.220001772,o,63,Unlimited Time,h,66.01101935,57.25429386,62.97706365,41.63849559,41.63849559,62.97706365,57.25429386,66.01101935,-10,-0.33,0.33,10,55,45,54.67,55.33,65,10,10,10,10
15,3,0.206329502,p,72,Unlimited Time,h,61.88387448,61.49080101,56.43319914,71.98794716,71.98794716,56.43319914,61.49080101,61.88387448,-10,-0.33,0.33,10,55,45,54.67,55.33,65,10,10,10,10
15,4,0.252670606,q,74,Unlimited Time,h,73.9540183,75.76273962,49.63256771,29.24056071,29.24056071,49.63256771,75.76273962,73.9540183,-10,-0.33,0.33,10,55,45,54.67,55.33,65,10,10,10,10
15,5,0.147657543,p,40.6,Unlimited Time,h,87.29418919,50.72676729,47.69037487,40.5784791,40.5784791,47.69037487,50.72676729,87.29418919,-10,-0.33,0.33,10,55,45,54.67,55.33,65,10,10,10,10
15,6,0.075063157,q,77.5,Unlimited Time,h,77.51973631,42.42346114,40.69965776,48.55886118,48.55886118,40.69965776,42.42346114,77.51973631,-10,-0.33,0.33,10,55,45,54.67,55.33,65,10,10,10,10
15,7,0.183237321,q,51.5,Unlimited Time,h,51.524229,56.89159196,51.00674447,51.72124317,51.72124317,51.00674447,56.89159196,51.524229,-10,-0.33,0.33,10,55,45,54.67,55.33,65,10,10,10,10
15,8,0.232999072,q,39.5,Unlimited Time,h,39.50901125,68.20267986,60.12468352,66.1067155,66.1067155,60.12468352,68.20267986,39.50901125,-10,-0.33,0.33,10,55,45,54.67,55.33,65,10,10,10,10
15,9,0.227617558,w,58,Unlimited Time,h,63.59441266,58.03209818,31.51920263,49.63271955,49.63271955,31.51920263,58.03209818,63.59441266,-10,-0.33,0.33,10,55,45,54.67,55.33,65,10,10,10,10
15,10,0.270808298,o,56.1,Unlimited Time,h,64.27654388,52.94680181,56.13758923,58.48671149,58.48671149,56.13758923,52.94680181,64.27654388,-10,-0.33,0.33,10,55,45,54.67,55.33,65,10,10,10,10
15,11,0.260003467,o,54.9,Unlimited Time,h,54.77663619,57.43375518,54.85558453,50.20390646,50.20390646,54.85558453,57.43375518,54.77663619,-10,-0.33,0.33,10,55,45,54.67,55.33,65,10,10,10,10
15,12,0.212214465,p,49.6,Unlimited Time,h,61.19797373,53.78457865,41.90033469,49.62552,49.62552,41.90033469,53.78457865,61.19797373,-10,-0.33,0.33,10,55,45,54.67,55.33,65,10,10,10,10
15,13,0.251731772,w,52.6,Unlimited Time,h,68.75309987,52.63608173,44.79280686,26.36249854,26.36249854,44.79280686,52.63608173,68.75309987,-10,-0.33,0.33,10,55,45,54.67,55.33,65,10,10,10,10
15,14,0.273222002,q,59,Unlimited Time,h,59.01963292,41.80262776,50.76459076,48.094107,48.094107,50.76459076,41.80262776,59.01963292,-10,-0.33,0.33,10,55,45,54.67,55.33,65,10,10,10,10
15,15,0.190077674,o,60,Unlimited Time,h,71.33407054,48.87027827,59.95248223,46.01198189,46.01198189,59.95248223,48.87027827,71.33407054,-10,-0.33,0.33,10,55,45,54.67,55.33,65,10,10,10,10
15,16,0.015573315,p,62.7,Unlimited Time,h,91.18689569,47.21555788,50.01482256,62.65216373,62.65216373,50.01482256,47.21555788,91.18689569,-10,-0.33,0.33,10,55,45,54.67,55.33,65,10,10,10,10
15,17,0.190887567,p,39.3,Unlimited Time,h,60.91743573,56.69065895,50.1780438,39.28967634,39.28967634,50.1780438,56.69065895,60.91743573,-10,-0.33,0.33,10,55,45,54.67,55.33,65,10,10,10,10
15,18,0.156850469,o,51.3,Unlimited Time,h,66.17605881,55.16871155,51.27802772,58.41443001,58.41443001,51.27802772,55.16871155,66.17605881,-10,-0.33,0.33,10,55,45,54.67,55.33,65,10,10,10,10
15,19,0.145919512,q,62,Unlimited Time,h,61.98998241,61.88484263,56.46770445,47.75977074,47.75977074,56.46770445,61.88484263,61.98998241,-10,-0.33,0.33,10,55,45,54.67,55.33,65,10,10,10,10
15,20,0.050424212,w,42.8,Unlimited Time,h,48.06044563,42.79789168,51.83981148,53.79432529,53.79432529,51.83981148,42.79789168,48.06044563,-10,-0.33,0.33,10,55,45,54.67,55.33,65,10,10,10,10
16,1,0.357674432,w,50.7,Limited Time,h,52.87479363,50.72159374,54.3929821,56.55092127,52.87479363,56.55092127,50.72159374,54.3929821,-10,-0.33,0.33,10,55,45,54.67,55.33,65,10,10,10,10
16,2,0.197225615,w,57.3,Limited Time,h,41.63849559,57.25429386,66.01101935,62.97706365,41.63849559,62.97706365,57.25429386,66.01101935,-10,-0.33,0.33,10,55,45,54.67,55.33,65,10,10,10,10
16,3,0.208362336,w,61.5,Limited Time,h,71.98794716,61.49080101,61.88387448,56.43319914,71.98794716,56.43319914,61.49080101,61.88387448,-10,-0.33,0.33,10,55,45,54.67,55.33,65,10,10,10,10
16,4,0.201803645,w,75.8,Limited Time,h,29.24056071,75.76273962,73.9540183,49.63256771,29.24056071,49.63256771,75.76273962,73.9540183,-10,-0.33,0.33,10,55,45,54.67,55.33,65,10,10,10,10
16,5,0.133877559,w,50.7,Limited Time,h,40.5784791,50.72676729,87.29418919,47.69037487,40.5784791,47.69037487,50.72676729,87.29418919,-10,-0.33,0.33,10,55,45,54.67,55.33,65,10,10,10,10
16,6,0.180621705,w,42.4,Limited Time,h,48.55886118,42.42346114,77.51973631,40.69965776,48.55886118,40.69965776,42.42346114,77.51973631,-10,-0.33,0.33,10,55,45,54.67,55.33,65,10,10,10,10
16,7,0.160419648,w,56.9,Limited Time,h,51.72124317,56.89159196,51.524229,51.00674447,51.72124317,51.00674447,56.89159196,51.524229,-10,-0.33,0.33,10,55,45,54.67,55.33,65,10,10,10,10
16,8,0.161851894,w,68.2,Limited Time,h,66.1067155,68.20267986,39.50901125,60.12468352,66.1067155,60.12468352,68.20267986,39.50901125,-10,-0.33,0.33,10,55,45,54.67,55.33,65,10,10,10,10
16,9,0.207482926,w,58,Limited Time,h,49.63271955,58.03209818,63.59441266,31.51920263,49.63271955,31.51920263,58.03209818,63.59441266,-10,-0.33,0.33,10,55,45,54.67,55.33,65,10,10,10,10
16,10,0.099573516,w,52.9,Limited Time,h,58.48671149,52.94680181,64.27654388,56.13758923,58.48671149,56.13758923,52.94680181,64.27654388,-10,-0.33,0.33,10,55,45,54.67,55.33,65,10,10,10,10
16,11,0.173883933,w,57.4,Limited Time,h,50.20390646,57.43375518,54.77663619,54.85558453,50.20390646,54.85558453,57.43375518,54.77663619,-10,-0.33,0.33,10,55,45,54.67,55.33,65,10,10,10,10
16,12,0.168652801,w,53.8,Limited Time,h,49.62552,53.78457865,61.19797373,41.90033469,49.62552,41.90033469,53.78457865,61.19797373,-10,-0.33,0.33,10,55,45,54.67,55.33,65,10,10,10,10
16,13,0.117441742,w,52.6,Limited Time,h,26.36249854,52.63608173,68.75309987,44.79280686,26.36249854,44.79280686,52.63608173,68.75309987,-10,-0.33,0.33,10,55,45,54.67,55.33,65,10,10,10,10
16,14,0.13873345,w,41.8,Limited Time,h,48.094107,41.80262776,59.01963292,50.76459076,48.094107,50.76459076,41.80262776,59.01963292,-10,-0.33,0.33,10,55,45,54.67,55.33,65,10,10,10,10
16,15,0.094875679,w,48.9,Limited Time,h,46.01198189,48.87027827,71.33407054,59.95248223,46.01198189,59.95248223,48.87027827,71.33407054,-10,-0.33,0.33,10,55,45,54.67,55.33,65,10,10,10,10
16,16,,,0,Limited Time,h,62.65216373,47.21555788,91.18689569,50.01482256,62.65216373,50.01482256,47.21555788,91.18689569,-10,-0.33,0.33,10,55,45,54.67,55.33,65,10,10,10,10
16,17,0.217105842,o,60.9,Limited Time,h,39.28967634,56.69065895,60.91743573,50.1780438,39.28967634,50.1780438,56.69065895,60.91743573,-10,-0.33,0.33,10,55,45,54.67,55.33,65,10,10,10,10
16,18,0.217685038,p,51.3,Limited Time,h,58.41443001,55.16871155,66.17605881,51.27802772,58.41443001,51.27802772,55.16871155,66.17605881,-10,-0.33,0.33,10,55,45,54.67,55.33,65,10,10,10,10
16,19,0.159239159,p,56.5,Limited Time,h,47.75977074,61.88484263,61.98998241,56.46770445,47.75977074,56.46770445,61.88484263,61.98998241,-10,-0.33,0.33,10,55,45,54.67,55.33,65,10,10,10,10
16,20,0.245684192,p,51.8,Limited Time,h,53.79432529,42.79789168,48.06044563,51.83981148,53.79432529,51.83981148,42.79789168,48.06044563,-10,-0.33,0.33,10,55,45,54.67,55.33,65,10,10,10,10
