Round Number,Trial Number,Reaction Time,Choice,Reward,Time Condition,Payoff Condition,Q mapped,W mapped,O mapped,P mapped,One value,Two value,Three value,Four value,One mean,Two mean,Three mean,Four mean,Mean Shift,One shifted mean,Two shifted mean,Three shifted mean,Four shifted mean,One SD,Two SD,Three SD,Four SD
1,1,0.6355522999656387,o,57.5,Unlimited Time,l,33.529924486501656,37.49808697594334,57.49893772196395,38.5071536866139,33.529924486501656,37.49808697594334,38.5071536866139,57.49893772196395,-10,-0.33,0.33,10,41,31,40.67,41.33,51,3.1622776601683795,3.1622776601683795,3.1622776601683795,3.1622776601683795
1,2,0.3634396000416018,o,56.1,Unlimited Time,l,30.354635988713266,45.46233018373196,56.07530769503956,39.34874352293427,30.354635988713266,45.46233018373196,39.34874352293427,56.07530769503956,-10,-0.33,0.33,10,41,31,40.67,41.33,51,3.1622776601683795,3.1622776601683795,3.1622776601683795,3.1622776601683795
1,3,0.3086845999932848,o,43.9,Unlimited Time,l,29.91886196082609,47.55285787073222,43.887752407581324,40.96759124286672,29.91886196082609,47.55285787073222,40.96759124286672,43.887752407581324,-10,-0.33,0.33,10,41,31,40.67,41.33,51,3.1622776601683795,3.1622776601683795,3.1622776601683795,3.1622776601683795
1,4,0.2968678000033833,p,40.4,Unlimited Time,l,27.52613014202191,38.89144637863719,48.03574504773567,40.39330108718565,27.52613014202191,38.89144637863719,40.39330108718565,48.03574504773567,-10,-0.33,0.33,10,41,31,40.67,41.33,51,3.1622776601683795,3.1622776601683795,3.1622776601683795,3.1622776601683795
1,5,0.397434999991674,q,33.4,Unlimited Time,l,33.413614864838586,39.513486829074374,47.14044669450965,44.2418781129774,33.413614864838586,39.513486829074374,44.2418781129774,47.14044669450965,-10,-0.33,0.33,10,41,31,40.67,41.33,51,3.1622776601683795,3.1622776601683795,3.1622776601683795,3.1622776601683795
1,6,0.2883568999823183,w,39.4,Unlimited Time,l,25.498676430524352,39.3872011108116,50.708896746010005,44.92472695046715,25.498676430524352,39.3872011108116,44.92472695046715,50.708896746010005,-10,-0.33,0.33,10,41,31,40.67,41.33,51,3.1622776601683795,3.1622776601683795,3.1622776601683795,3.1622776601683795
1,7,0.051336599979549646,o,51.5,Unlimited Time,l,32.66860893488906,40.72496448223195,51.512117432497284,39.09601908819795,32.66860893488906,40.72496448223195,39.09601908819795,51.512117432497284,-10,-0.33,0.33,10,41,31,40.67,41.33,51,3.1622776601683795,3.1622776601683795,3.1622776601683795,3.1622776601683795
1,8,0.25046210002619773,o,51.1,Unlimited Time,l,30.034491789883717,40.39367133691583,51.13898938191142,39.56201249538434,30.034491789883717,40.39367133691583,39.56201249538434,51.13898938191142,-10,-0.33,0.33,10,41,31,40.67,41.33,51,3.1622776601683795,3.1622776601683795,3.1622776601683795,3.1622776601683795
1,9,0.22698710003169253,o,52.2,Unlimited Time,l,30.838722532536128,41.431119718001845,52.2433231273062,33.38457123059065,30.838722532536128,41.431119718001845,33.38457123059065,52.2433231273062,-10,-0.33,0.33,10,41,31,40.67,41.33,51,3.1622776601683795,3.1622776601683795,3.1622776601683795,3.1622776601683795
1,10,0.6237089000060223,o,51.1,Unlimited Time,l,32.2424979216801,39.24502786530681,51.13748318603962,41.25189072601165,32.2424979216801,39.24502786530681,41.25189072601165,51.13748318603962,-10,-0.33,0.33,10,41,31,40.67,41.33,51,3.1622776601683795,3.1622776601683795,3.1622776601683795,3.1622776601683795
1,11,0.24196489999303594,o,53.5,Unlimited Time,l,23.014769356448365,45.757086002615495,53.45333237825785,44.3871095512982,23.014769356448365,45.757086002615495,44.3871095512982,53.45333237825785,-10,-0.33,0.33,10,41,31,40.67,41.33,51,3.1622776601683795,3.1622776601683795,3.1622776601683795,3.1622776601683795
1,12,0.2468473999761045,o,48.9,Unlimited Time,l,29.477369140883443,39.98365634688978,48.929526190748845,40.27389661530348,29.477369140883443,39.98365634688978,40.27389661530348,48.929526190748845,-10,-0.33,0.33,10,41,31,40.67,41.33,51,3.1622776601683795,3.1622776601683795,3.1622776601683795,3.1622776601683795
1,13,0.1826158000039868,o,51.7,Unlimited Time,l,32.694882277223165,42.431701515633804,51.724807946131214,45.7314652360101,32.694882277223165,42.431701515633804,45.7314652360101,51.724807946131214,-10,-0.33,0.33,10,41,31,40.67,41.33,51,3.1622776601683795,3.1622776601683795,3.1622776601683795,3.1622776601683795
1,14,0.2994718999834731,o,55.4,Unlimited Time,l,28.36524696874219,43.88548547122052,55.41640487221256,37.248667956568035,28.36524696874219,43.88548547122052,37.248667956568035,55.41640487221256,-10,-0.33,0.33,10,41,31,40.67,41.33,51,3.1622776601683795,3.1622776601683795,3.1622776601683795,3.1622776601683795
1,15,0.22354969999287277,o,52.8,Unlimited Time,l,35.74621259393804,45.332707163261716,52.79397339659475,44.36700880805076,35.74621259393804,45.332707163261716,44.36700880805076,52.79397339659475,-10,-0.33,0.33,10,41,31,40.67,41.33,51,3.1622776601683795,3.1622776601683795,3.1622776601683795,3.1622776601683795
1,16,0.23125830001663417,o,54.6,Unlimited Time,l,35.362091200552605,43.47862770121272,54.57153874473409,39.26910763614296,35.362091200552605,43.47862770121272,39.26910763614296,54.57153874473409,-10,-0.33,0.33,10,41,31,40.67,41.33,51,3.1622776601683795,3.1622776601683795,3.1622776601683795,3.1622776601683795
1,17,0.01835580001352355,o,49.2,Unlimited Time,l,25.782950836976596,35.733558927687,49.17547916576647,37.6794596128184,25.782950836976596,35.733558927687,37.6794596128184,49.17547916576647,-10,-0.33,0.33,10,41,31,40.67,41.33,51,3.1622776601683795,3.1622776601683795,3.1622776601683795,3.1622776601683795
1,18,0.08875559997977689,o,52.0,Unlimited Time,l,33.43648507643345,38.083202025904235,51.96324271806052,40.68548723800981,33.43648507643345,38.083202025904235,40.68548723800981,51.96324271806052,-10,-0.33,0.33,10,41,31,40.67,41.33,51,3.1622776601683795,3.1622776601683795,3.1622776601683795,3.1622776601683795
1,19,0.7026795000419952,p,39.1,Unlimited Time,l,30.62844338387761,41.42819438476591,51.90845602092716,39.13343759083095,30.62844338387761,41.42819438476591,39.13343759083095,51.90845602092716,-10,-0.33,0.33,10,41,31,40.67,41.33,51,3.1622776601683795,3.1622776601683795,3.1622776601683795,3.1622776601683795
1,20,0.25148999999510124,p,46.1,Unlimited Time,l,29.28597191460818,39.4429685102306,56.66765391177358,46.09229563768317,29.28597191460818,39.4429685102306,46.09229563768317,56.66765391177358,-10,-0.33,0.33,10,41,31,40.67,41.33,51,3.1622776601683795,3.1622776601683795,3.1622776601683795,3.1622776601683795
2,1,0.21979399997508153,o,33.9,Limited Time,e,56.67744394980342,40.41404220402371,33.94821525502726,40.01417766144815,40.01417766144815,33.94821525502726,40.41404220402371,56.67744394980342,0,0,0,0,41,41,41,41,41,3.1622776601683795,6.324555320336759,8.366600265340756,10
2,2,0.22060380002949387,o,33.7,Limited Time,e,27.476373638925566,33.18723589620409,33.72722144894426,41.81289269474375,41.81289269474375,33.72722144894426,33.18723589620409,27.476373638925566,0,0,0,0,41,41,41,41,41,3.1622776601683795,6.324555320336759,8.366600265340756,10
2,3,0.0822518999921158,o,56.3,Limited Time,e,38.256983364401805,35.177869350132305,56.25724934776042,41.65007245743403,41.65007245743403,56.25724934776042,35.177869350132305,38.256983364401805,0,0,0,0,41,41,41,41,41,3.1622776601683795,6.324555320336759,8.366600265340756,10
2,4,0.036841000022832304,o,40.4,Limited Time,e,39.80446071743356,44.7363183796675,40.431999286660066,44.256888447121796,44.256888447121796,40.431999286660066,44.7363183796675,39.80446071743356,0,0,0,0,41,41,41,41,41,3.1622776601683795,6.324555320336759,8.366600265340756,10
2,5,0.0478671999881044,o,43.7,Limited Time,e,41.386673585215576,49.215306638330816,43.734139399688175,39.21823353840807,39.21823353840807,43.734139399688175,49.215306638330816,41.386673585215576,0,0,0,0,41,41,41,41,41,3.1622776601683795,6.324555320336759,8.366600265340756,10
2,6,0.03708759997971356,o,47.2,Limited Time,e,47.26483348492467,39.15746987491675,47.17430177141229,42.258412665131075,42.258412665131075,47.17430177141229,39.15746987491675,47.26483348492467,0,0,0,0,41,41,41,41,41,3.1622776601683795,6.324555320336759,8.366600265340756,10
2,7,0.009811799973249435,o,37.3,Limited Time,e,35.59223245889951,47.948219913684554,37.25211727652672,39.29213562871434,39.29213562871434,37.25211727652672,47.948219913684554,35.59223245889951,0,0,0,0,41,41,41,41,41,3.1622776601683795,6.324555320336759,8.366600265340756,10
2,8,0.003258399956393987,o,47.0,Limited Time,e,59.73854936048218,38.57427183764755,46.97391516094591,40.092808731376344,40.092808731376344,46.97391516094591,38.57427183764755,59.73854936048218,0,0,0,0,41,41,41,41,41,3.1622776601683795,6.324555320336759,8.366600265340756,10
2,9,0.05806140002096072,o,46.6,Limited Time,e,46.53677639889227,29.92591180459936,46.570896406332125,42.65854263768811,42.65854263768811,46.570896406332125,29.92591180459936,46.53677639889227,0,0,0,0,41,41,41,41,41,3.1622776601683795,6.324555320336759,8.366600265340756,10
2,10,0.1309900000342168,q,45.3,Limited Time,e,45.259414003892466,46.05935741947468,33.61417952302206,43.60117263837133,43.60117263837133,33.61417952302206,46.05935741947468,45.259414003892466,0,0,0,0,41,41,41,41,41,3.1622776601683795,6.324555320336759,8.366600265340756,10
2,11,0.07548300002235919,q,34.3,Limited Time,e,34.28126559703105,31.3834722428433,49.714252807162254,43.21106169091571,43.21106169091571,49.714252807162254,31.3834722428433,34.28126559703105,0,0,0,0,41,41,41,41,41,3.1622776601683795,6.324555320336759,8.366600265340756,10
2,12,0.14323139999760315,o,47.6,Limited Time,e,46.23421983558575,44.404086500128905,47.621885391516514,42.195074661434425,42.195074661434425,47.621885391516514,44.404086500128905,46.23421983558575,0,0,0,0,41,41,41,41,41,3.1622776601683795,6.324555320336759,8.366600265340756,10
2,13,0.04187710001133382,o,36.6,Limited Time,e,38.923219708663225,43.09651313018186,36.56748986169723,42.26304027335769,42.26304027335769,36.56748986169723,43.09651313018186,38.923219708663225,0,0,0,0,41,41,41,41,41,3.1622776601683795,6.324555320336759,8.366600265340756,10
2,14,0.07755659997928888,p,39.2,Limited Time,e,43.82192258700221,43.892765436046915,42.50501881471378,39.22880203911393,39.22880203911393,42.50501881471378,43.892765436046915,43.82192258700221,0,0,0,0,41,41,41,41,41,3.1622776601683795,6.324555320336759,8.366600265340756,10
2,15,0.019295400008559227,p,47.5,Limited Time,e,47.14659746017921,43.99224897107567,48.35516241537346,47.49060101064611,47.49060101064611,48.35516241537346,43.99224897107567,47.14659746017921,0,0,0,0,41,41,41,41,41,3.1622776601683795,6.324555320336759,8.366600265340756,10
2,16,0.07106950000161305,p,40.0,Limited Time,e,63.31337207961941,53.22692581493743,34.15668453423551,40.01816181099432,40.01816181099432,34.15668453423551,53.22692581493743,63.31337207961941,0,0,0,0,41,41,41,41,41,3.1622776601683795,6.324555320336759,8.366600265340756,10
2,17,0.09692040004301816,o,34.1,Limited Time,e,48.65996457511337,40.42534782871644,34.05194352639389,38.27248494499087,38.27248494499087,34.05194352639389,40.42534782871644,48.65996457511337,0,0,0,0,41,41,41,41,41,3.1622776601683795,6.324555320336759,8.366600265340756,10
2,18,0.10320099996170029,o,52.6,Limited Time,e,52.3337893108359,62.59674434734602,52.574817459301094,44.26861626409389,44.26861626409389,52.574817459301094,62.59674434734602,52.3337893108359,0,0,0,0,41,41,41,41,41,3.1622776601683795,6.324555320336759,8.366600265340756,10
2,19,0.1239083000109531,o,33.0,Limited Time,e,40.85377950358144,44.670295426185604,32.98760130710329,45.59293700605339,45.59293700605339,32.98760130710329,44.670295426185604,40.85377950358144,0,0,0,0,41,41,41,41,41,3.1622776601683795,6.324555320336759,8.366600265340756,10
2,20,0.08927390002645552,o,43.4,Limited Time,e,41.44004407642436,29.825948399657626,43.40906904702041,38.946464255955334,38.946464255955334,43.40906904702041,29.825948399657626,41.44004407642436,0,0,0,0,41,41,41,41,41,3.1622776601683795,6.324555320336759,8.366600265340756,10
3,1,0.22151410003425553,o,47.2,Unlimited Time,i,37.48704916210289,64.61282711193077,47.17070094714911,33.36075750186457,37.48704916210289,33.36075750186457,47.17070094714911,64.61282711193077,-10,-10,10,10,41,31,31,51,51,3.1622776601683795,10,3.1622776601683795,10
3,2,0.21015150001039729,o,51.4,Unlimited Time,i,28.952310467167273,42.585368359986944,51.39534542141923,26.820390929580153,28.952310467167273,26.820390929580153,51.39534542141923,42.585368359986944,-10,-10,10,10,41,31,31,51,51,3.1622776601683795,10,3.1622776601683795,10
3,3,0.28075659996829927,o,46.0,Unlimited Time,i,35.10289698898212,53.984445278853975,46.0055400822022,34.028621292464244,35.10289698898212,34.028621292464244,46.0055400822022,53.984445278853975,-10,-10,10,10,41,31,31,51,51,3.1622776601683795,10,3.1622776601683795,10
3,4,0.029864399984944612,p,32.1,Unlimited Time,i,31.2893189969127,42.14901592739028,50.86875230334995,32.13240306888516,31.2893189969127,32.13240306888516,50.86875230334995,42.14901592739028,-10,-10,10,10,41,31,31,51,51,3.1622776601683795,10,3.1622776601683795,10
3,5,0.31472679995931685,o,55.4,Unlimited Time,i,29.43739861353112,36.269990979276116,55.370892624071686,53.4790716592975,29.43739861353112,53.4790716592975,55.370892624071686,36.269990979276116,-10,-10,10,10,41,31,31,51,51,3.1622776601683795,10,3.1622776601683795,10
3,6,0.2070975999813527,o,50.5,Unlimited Time,i,26.40086271276018,36.78729176431163,50.470293055065135,28.354705190175764,26.40086271276018,28.354705190175764,50.470293055065135,36.78729176431163,-10,-10,10,10,41,31,31,51,51,3.1622776601683795,10,3.1622776601683795,10
3,7,0.19507330004125834,o,45.8,Unlimited Time,i,30.50177815499483,66.85900836265175,45.79429695499198,12.49267284208743,30.50177815499483,12.49267284208743,45.79429695499198,66.85900836265175,-10,-10,10,10,41,31,31,51,51,3.1622776601683795,10,3.1622776601683795,10
3,8,0.038061500003095716,o,49.3,Unlimited Time,i,33.550468279273,40.8930656009492,49.298919392345205,24.539290862601625,33.550468279273,24.539290862601625,49.298919392345205,40.8930656009492,-10,-10,10,10,41,31,31,51,51,3.1622776601683795,10,3.1622776601683795,10
3,9,0.22792010003468022,o,46.7,Unlimited Time,i,31.769357135099888,43.94652216776652,46.719081678415755,35.88453641423691,31.769357135099888,35.88453641423691,46.719081678415755,43.94652216776652,-10,-10,10,10,41,31,31,51,51,3.1622776601683795,10,3.1622776601683795,10
3,10,0.23401860002195463,o,45.3,Unlimited Time,i,32.112360791021146,63.23691734731352,45.25056543173311,13.643431673126926,32.112360791021146,13.643431673126926,45.25056543173311,63.23691734731352,-10,-10,10,10,41,31,31,51,51,3.1622776601683795,10,3.1622776601683795,10
3,11,0.2549214999889955,o,50.8,Unlimited Time,i,27.503130320826372,44.95630585587309,50.82550647030243,23.68462508389908,27.503130320826372,23.68462508389908,50.82550647030243,44.95630585587309,-10,-10,10,10,41,31,31,51,51,3.1622776601683795,10,3.1622776601683795,10
3,12,0.13058950001141056,w,42.0,Unlimited Time,i,33.45155841968785,41.98363157963311,55.84818022402538,27.48808969427134,33.45155841968785,27.48808969427134,55.84818022402538,41.98363157963311,-10,-10,10,10,41,31,31,51,51,3.1622776601683795,10,3.1622776601683795,10
3,13,0.343171100015752,w,48.6,Unlimited Time,i,27.13770260859765,48.58772555410974,52.908086979109235,29.671760954179124,27.13770260859765,29.671760954179124,52.908086979109235,48.58772555410974,-10,-10,10,10,41,31,31,51,51,3.1622776601683795,10,3.1622776601683795,10
3,14,0.1461903000017628,q,34.0,Unlimited Time,i,33.95586700477653,51.64844582424323,54.50354401735245,48.742340056042146,33.95586700477653,48.742340056042146,54.50354401735245,51.64844582424323,-10,-10,10,10,41,31,31,51,51,3.1622776601683795,10,3.1622776601683795,10
3,15,0.25048200000310317,q,37.6,Unlimited Time,i,37.64600692153941,33.97904750415173,50.48986660896759,1.454138162871729,37.64600692153941,1.454138162871729,50.48986660896759,33.97904750415173,-10,-10,10,10,41,31,31,51,51,3.1622776601683795,10,3.1622776601683795,10
3,16,0.16476840001996607,w,64.1,Unlimited Time,i,27.910632575730425,64.14282573545327,50.93929442928056,37.23230310692568,27.910632575730425,37.23230310692568,50.93929442928056,64.14282573545327,-10,-10,10,10,41,31,31,51,51,3.1622776601683795,10,3.1622776601683795,10
3,17,0.23508660000516102,w,58.1,Unlimited Time,i,29.356098330451392,58.10213166566426,50.278274619612155,25.931371455569362,29.356098330451392,25.931371455569362,50.278274619612155,58.10213166566426,-10,-10,10,10,41,31,31,51,51,3.1622776601683795,10,3.1622776601683795,10
3,18,0.2711522999452427,w,45.9,Unlimited Time,i,32.13799768522393,45.86932095838199,49.6781341290618,37.47885381306003,32.13799768522393,37.47885381306003,49.6781341290618,45.86932095838199,-10,-10,10,10,41,31,31,51,51,3.1622776601683795,10,3.1622776601683795,10
3,19,0.1957360000233166,w,38.9,Unlimited Time,i,26.91913099457844,38.93321950968995,47.72579680636025,37.80719262868173,26.91913099457844,37.80719262868173,47.72579680636025,38.93321950968995,-10,-10,10,10,41,31,31,51,51,3.1622776601683795,10,3.1622776601683795,10
3,20,0.20062940003117546,w,44.1,Unlimited Time,i,32.987195664080176,44.102577287333474,55.628399348507486,35.49028737174238,32.987195664080176,35.49028737174238,55.628399348507486,44.102577287333474,-10,-10,10,10,41,31,31,51,51,3.1622776601683795,10,3.1622776601683795,10
4,1,0.22462069999892265,w,33.9,Limited Time,e,40.01417766144815,33.94821525502726,40.41404220402371,56.67744394980342,40.01417766144815,33.94821525502726,40.41404220402371,56.67744394980342,0,0,0,0,41,41,41,41,41,3.1622776601683795,6.324555320336759,8.366600265340756,10
4,2,,,0.0,Limited Time,e,41.81289269474375,33.72722144894426,33.18723589620409,27.476373638925566,41.81289269474375,33.72722144894426,33.18723589620409,27.476373638925566,0,0,0,0,41,41,41,41,41,3.1622776601683795,6.324555320336759,8.366600265340756,10
4,3,0.23791000002529472,w,56.3,Limited Time,e,41.65007245743403,56.25724934776042,35.177869350132305,38.256983364401805,41.65007245743403,56.25724934776042,35.177869350132305,38.256983364401805,0,0,0,0,41,41,41,41,41,3.1622776601683795,6.324555320336759,8.366600265340756,10
4,4,0.2093553000013344,o,44.7,Limited Time,e,44.256888447121796,40.431999286660066,44.7363183796675,39.80446071743356,44.256888447121796,40.431999286660066,44.7363183796675,39.80446071743356,0,0,0,0,41,41,41,41,41,3.1622776601683795,6.324555320336759,8.366600265340756,10
4,5,0.18285060004564002,o,49.2,Limited Time,e,39.21823353840807,43.734139399688175,49.215306638330816,41.386673585215576,39.21823353840807,43.734139399688175,49.215306638330816,41.386673585215576,0,0,0,0,41,41,41,41,41,3.1622776601683795,6.324555320336759,8.366600265340756,10
4,6,0.18867689999751747,o,39.2,Limited Time,e,42.258412665131075,47.17430177141229,39.15746987491675,47.26483348492467,42.258412665131075,47.17430177141229,39.15746987491675,47.26483348492467,0,0,0,0,41,41,41,41,41,3.1622776601683795,6.324555320336759,8.366600265340756,10
4,7,0.29548249999061227,o,47.9,Limited Time,e,39.29213562871434,37.25211727652672,47.948219913684554,35.59223245889951,39.29213562871434,37.25211727652672,47.948219913684554,35.59223245889951,0,0,0,0,41,41,41,41,41,3.1622776601683795,6.324555320336759,8.366600265340756,10
4,8,0.17092330002924427,o,38.6,Limited Time,e,40.092808731376344,46.97391516094591,38.57427183764755,59.73854936048218,40.092808731376344,46.97391516094591,38.57427183764755,59.73854936048218,0,0,0,0,41,41,41,41,41,3.1622776601683795,6.324555320336759,8.366600265340756,10
4,9,0.30652500002179295,o,29.9,Limited Time,e,42.65854263768811,46.570896406332125,29.92591180459936,46.53677639889227,42.65854263768811,46.570896406332125,29.92591180459936,46.53677639889227,0,0,0,0,41,41,41,41,41,3.1622776601683795,6.324555320336759,8.366600265340756,10
4,10,0.2852291000308469,w,33.6,Limited Time,e,43.60117263837133,33.61417952302206,46.05935741947468,45.259414003892466,43.60117263837133,33.61417952302206,46.05935741947468,45.259414003892466,0,0,0,0,41,41,41,41,41,3.1622776601683795,6.324555320336759,8.366600265340756,10
4,11,0.10103309998521581,w,49.7,Limited Time,e,43.21106169091571,49.714252807162254,31.3834722428433,34.28126559703105,43.21106169091571,49.714252807162254,31.3834722428433,34.28126559703105,0,0,0,0,41,41,41,41,41,3.1622776601683795,6.324555320336759,8.366600265340756,10
4,12,0.11286449996987358,w,47.6,Limited Time,e,42.195074661434425,47.621885391516514,44.404086500128905,46.23421983558575,42.195074661434425,47.621885391516514,44.404086500128905,46.23421983558575,0,0,0,0,41,41,41,41,41,3.1622776601683795,6.324555320336759,8.366600265340756,10
4,13,0.31915689999004826,p,38.9,Limited Time,e,42.26304027335769,36.56748986169723,43.09651313018186,38.923219708663225,42.26304027335769,36.56748986169723,43.09651313018186,38.923219708663225,0,0,0,0,41,41,41,41,41,3.1622776601683795,6.324555320336759,8.366600265340756,10
4,14,0.12585979996947572,p,43.8,Limited Time,e,39.22880203911393,42.50501881471378,43.892765436046915,43.82192258700221,39.22880203911393,42.50501881471378,43.892765436046915,43.82192258700221,0,0,0,0,41,41,41,41,41,3.1622776601683795,6.324555320336759,8.366600265340756,10
4,15,0.13342639995971695,p,47.1,Limited Time,e,47.49060101064611,48.35516241537346,43.99224897107567,47.14659746017921,47.49060101064611,48.35516241537346,43.99224897107567,47.14659746017921,0,0,0,0,41,41,41,41,41,3.1622776601683795,6.324555320336759,8.366600265340756,10
4,16,0.10919990000547841,p,63.3,Limited Time,e,40.01816181099432,34.15668453423551,53.22692581493743,63.31337207961941,40.01816181099432,34.15668453423551,53.22692581493743,63.31337207961941,0,0,0,0,41,41,41,41,41,3.1622776601683795,6.324555320336759,8.366600265340756,10
4,17,0.14299169997684658,p,48.7,Limited Time,e,38.27248494499087,34.05194352639389,40.42534782871644,48.65996457511337,38.27248494499087,34.05194352639389,40.42534782871644,48.65996457511337,0,0,0,0,41,41,41,41,41,3.1622776601683795,6.324555320336759,8.366600265340756,10
4,18,0.17723040003329515,q,44.3,Limited Time,e,44.26861626409389,52.574817459301094,62.59674434734602,52.3337893108359,44.26861626409389,52.574817459301094,62.59674434734602,52.3337893108359,0,0,0,0,41,41,41,41,41,3.1622776601683795,6.324555320336759,8.366600265340756,10
4,19,0.15716610004892573,q,45.6,Limited Time,e,45.59293700605339,32.98760130710329,44.670295426185604,40.85377950358144,45.59293700605339,32.98760130710329,44.670295426185604,40.85377950358144,0,0,0,0,41,41,41,41,41,3.1622776601683795,6.324555320336759,8.366600265340756,10
4,20,0.20366280002053827,p,41.4,Limited Time,e,38.946464255955334,43.40906904702041,29.825948399657626,41.44004407642436,38.946464255955334,43.40906904702041,29.825948399657626,41.44004407642436,0,0,0,0,41,41,41,41,41,3.1622776601683795,6.324555320336759,8.366600265340756,10
5,1,0.2620195999625139,q,33.5,Unlimited Time,l,33.529924486501656,38.5071536866139,37.49808697594334,57.49893772196395,33.529924486501656,37.49808697594334,38.5071536866139,57.49893772196395,-10,-0.33,0.33,10,41,31,40.67,41.33,51,3.1622776601683795,3.1622776601683795,3.1622776601683795,3.1622776601683795
5,2,0.15562420000787824,q,30.4,Unlimited Time,l,30.354635988713266,39.34874352293427,45.46233018373196,56.07530769503956,30.354635988713266,45.46233018373196,39.34874352293427,56.07530769503956,-10,-0.33,0.33,10,41,31,40.67,41.33,51,3.1622776601683795,3.1622776601683795,3.1622776601683795,3.1622776601683795
5,3,0.5548760999809019,w,41.0,Unlimited Time,l,29.91886196082609,40.96759124286672,47.55285787073222,43.887752407581324,29.91886196082609,47.55285787073222,40.96759124286672,43.887752407581324,-10,-0.33,0.33,10,41,31,40.67,41.33,51,3.1622776601683795,3.1622776601683795,3.1622776601683795,3.1622776601683795
5,4,0.2282734999898821,w,40.4,Unlimited Time,l,27.52613014202191,40.39330108718565,38.89144637863719,48.03574504773567,27.52613014202191,38.89144637863719,40.39330108718565,48.03574504773567,-10,-0.33,0.33,10,41,31,40.67,41.33,51,3.1622776601683795,3.1622776601683795,3.1622776601683795,3.1622776601683795
5,5,0.9393462000298314,p,47.1,Unlimited Time,l,33.413614864838586,44.2418781129774,39.513486829074374,47.14044669450965,33.413614864838586,39.513486829074374,44.2418781129774,47.14044669450965,-10,-0.33,0.33,10,41,31,40.67,41.33,51,3.1622776601683795,3.1622776601683795,3.1622776601683795,3.1622776601683795
5,6,0.23965770000359043,p,50.7,Unlimited Time,l,25.498676430524352,44.92472695046715,39.3872011108116,50.708896746010005,25.498676430524352,39.3872011108116,44.92472695046715,50.708896746010005,-10,-0.33,0.33,10,41,31,40.67,41.33,51,3.1622776601683795,3.1622776601683795,3.1622776601683795,3.1622776601683795
5,7,0.5173351000412367,o,40.7,Unlimited Time,l,32.66860893488906,39.09601908819795,40.72496448223195,51.512117432497284,32.66860893488906,40.72496448223195,39.09601908819795,51.512117432497284,-10,-0.33,0.33,10,41,31,40.67,41.33,51,3.1622776601683795,3.1622776601683795,3.1622776601683795,3.1622776601683795
5,8,0.22463100001914427,o,40.4,Unlimited Time,l,30.034491789883717,39.56201249538434,40.39367133691583,51.13898938191142,30.034491789883717,40.39367133691583,39.56201249538434,51.13898938191142,-10,-0.33,0.33,10,41,31,40.67,41.33,51,3.1622776601683795,3.1622776601683795,3.1622776601683795,3.1622776601683795
5,9,0.2578234999673441,o,41.4,Unlimited Time,l,30.838722532536128,33.38457123059065,41.431119718001845,52.2433231273062,30.838722532536128,41.431119718001845,33.38457123059065,52.2433231273062,-10,-0.33,0.33,10,41,31,40.67,41.33,51,3.1622776601683795,3.1622776601683795,3.1622776601683795,3.1622776601683795
5,10,0.10276919999159873,p,51.1,Unlimited Time,l,32.2424979216801,41.25189072601165,39.24502786530681,51.13748318603962,32.2424979216801,39.24502786530681,41.25189072601165,51.13748318603962,-10,-0.33,0.33,10,41,31,40.67,41.33,51,3.1622776601683795,3.1622776601683795,3.1622776601683795,3.1622776601683795
5,11,0.0684264000155963,p,53.5,Unlimited Time,l,23.014769356448365,44.3871095512982,45.757086002615495,53.45333237825785,23.014769356448365,45.757086002615495,44.3871095512982,53.45333237825785,-10,-0.33,0.33,10,41,31,40.67,41.33,51,3.1622776601683795,3.1622776601683795,3.1622776601683795,3.1622776601683795
5,12,0.07740529999136925,p,48.9,Unlimited Time,l,29.477369140883443,40.27389661530348,39.98365634688978,48.929526190748845,29.477369140883443,39.98365634688978,40.27389661530348,48.929526190748845,-10,-0.33,0.33,10,41,31,40.67,41.33,51,3.1622776601683795,3.1622776601683795,3.1622776601683795,3.1622776601683795
5,13,0.11791299999458715,p,51.7,Unlimited Time,l,32.694882277223165,45.7314652360101,42.431701515633804,51.724807946131214,32.694882277223165,42.431701515633804,45.7314652360101,51.724807946131214,-10,-0.33,0.33,10,41,31,40.67,41.33,51,3.1622776601683795,3.1622776601683795,3.1622776601683795,3.1622776601683795
5,14,0.05368730000918731,p,55.4,Unlimited Time,l,28.36524696874219,37.248667956568035,43.88548547122052,55.41640487221256,28.36524696874219,43.88548547122052,37.248667956568035,55.41640487221256,-10,-0.33,0.33,10,41,31,40.67,41.33,51,3.1622776601683795,3.1622776601683795,3.1622776601683795,3.1622776601683795
5,15,0.9992672999505885,p,52.8,Unlimited Time,l,35.74621259393804,44.36700880805076,45.332707163261716,52.79397339659475,35.74621259393804,45.332707163261716,44.36700880805076,52.79397339659475,-10,-0.33,0.33,10,41,31,40.67,41.33,51,3.1622776601683795,3.1622776601683795,3.1622776601683795,3.1622776601683795
5,16,0.016378100030124187,p,54.6,Unlimited Time,l,35.362091200552605,39.26910763614296,43.47862770121272,54.57153874473409,35.362091200552605,43.47862770121272,39.26910763614296,54.57153874473409,-10,-0.33,0.33,10,41,31,40.67,41.33,51,3.1622776601683795,3.1622776601683795,3.1622776601683795,3.1622776601683795
5,17,0.16689980000955984,p,49.2,Unlimited Time,l,25.782950836976596,37.6794596128184,35.733558927687,49.17547916576647,25.782950836976596,35.733558927687,37.6794596128184,49.17547916576647,-10,-0.33,0.33,10,41,31,40.67,41.33,51,3.1622776601683795,3.1622776601683795,3.1622776601683795,3.1622776601683795
5,18,0.023196499969344586,o,38.1,Unlimited Time,l,33.43648507643345,40.68548723800981,38.083202025904235,51.96324271806052,33.43648507643345,38.083202025904235,40.68548723800981,51.96324271806052,-10,-0.33,0.33,10,41,31,40.67,41.33,51,3.1622776601683795,3.1622776601683795,3.1622776601683795,3.1622776601683795
5,19,0.10693299997365102,o,41.4,Unlimited Time,l,30.62844338387761,39.13343759083095,41.42819438476591,51.90845602092716,30.62844338387761,41.42819438476591,39.13343759083095,51.90845602092716,-10,-0.33,0.33,10,41,31,40.67,41.33,51,3.1622776601683795,3.1622776601683795,3.1622776601683795,3.1622776601683795
5,20,0.16000350000103936,p,56.7,Unlimited Time,l,29.28597191460818,46.09229563768317,39.4429685102306,56.66765391177358,29.28597191460818,39.4429685102306,46.09229563768317,56.66765391177358,-10,-0.33,0.33,10,41,31,40.67,41.33,51,3.1622776601683795,3.1622776601683795,3.1622776601683795,3.1622776601683795
6,1,0.256586299976334,p,47.2,Limited Time,i,37.48704916210289,33.36075750186457,64.61282711193077,47.17070094714911,37.48704916210289,33.36075750186457,47.17070094714911,64.61282711193077,-10,-10,10,10,41,31,31,51,51,3.1622776601683795,10,3.1622776601683795,10
6,2,,,0.0,Limited Time,i,28.952310467167273,26.820390929580153,42.585368359986944,51.39534542141923,28.952310467167273,26.820390929580153,51.39534542141923,42.585368359986944,-10,-10,10,10,41,31,31,51,51,3.1622776601683795,10,3.1622776601683795,10
6,3,0.2971314999740571,o,54.0,Limited Time,i,35.10289698898212,34.028621292464244,53.984445278853975,46.0055400822022,35.10289698898212,34.028621292464244,46.0055400822022,53.984445278853975,-10,-10,10,10,41,31,31,51,51,3.1622776601683795,10,3.1622776601683795,10
6,4,0.3183195000165142,o,42.1,Limited Time,i,31.2893189969127,32.13240306888516,42.14901592739028,50.86875230334995,31.2893189969127,32.13240306888516,50.86875230334995,42.14901592739028,-10,-10,10,10,41,31,31,51,51,3.1622776601683795,10,3.1622776601683795,10
6,5,0.1452687000273727,o,36.3,Limited Time,i,29.43739861353112,53.4790716592975,36.269990979276116,55.370892624071686,29.43739861353112,53.4790716592975,55.370892624071686,36.269990979276116,-10,-10,10,10,41,31,31,51,51,3.1622776601683795,10,3.1622776601683795,10
6,6,0.3481280999840237,o,36.8,Limited Time,i,26.40086271276018,28.354705190175764,36.78729176431163,50.470293055065135,26.40086271276018,28.354705190175764,50.470293055065135,36.78729176431163,-10,-10,10,10,41,31,31,51,51,3.1622776601683795,10,3.1622776601683795,10
6,7,0.20364449999760836,o,66.9,Limited Time,i,30.50177815499483,12.49267284208743,66.85900836265175,45.79429695499198,30.50177815499483,12.49267284208743,45.79429695499198,66.85900836265175,-10,-10,10,10,41,31,31,51,51,3.1622776601683795,10,3.1622776601683795,10
6,8,0.011838999984320253,o,40.9,Limited Time,i,33.550468279273,24.539290862601625,40.8930656009492,49.298919392345205,33.550468279273,24.539290862601625,49.298919392345205,40.8930656009492,-10,-10,10,10,41,31,31,51,51,3.1622776601683795,10,3.1622776601683795,10
6,9,,,0.0,Limited Time,i,31.769357135099888,35.88453641423691,43.94652216776652,46.719081678415755,31.769357135099888,35.88453641423691,46.719081678415755,43.94652216776652,-10,-10,10,10,41,31,31,51,51,3.1622776601683795,10,3.1622776601683795,10
6,10,0.296184099977836,o,63.2,Limited Time,i,32.112360791021146,13.643431673126926,63.23691734731352,45.25056543173311,32.112360791021146,13.643431673126926,45.25056543173311,63.23691734731352,-10,-10,10,10,41,31,31,51,51,3.1622776601683795,10,3.1622776601683795,10
6,11,0.20439919998170808,o,45.0,Limited Time,i,27.503130320826372,23.68462508389908,44.95630585587309,50.82550647030243,27.503130320826372,23.68462508389908,50.82550647030243,44.95630585587309,-10,-10,10,10,41,31,31,51,51,3.1622776601683795,10,3.1622776601683795,10
6,12,0.1729592999909073,o,42.0,Limited Time,i,33.45155841968785,27.48808969427134,41.98363157963311,55.84818022402538,33.45155841968785,27.48808969427134,55.84818022402538,41.98363157963311,-10,-10,10,10,41,31,31,51,51,3.1622776601683795,10,3.1622776601683795,10
6,13,0.24553160002687946,o,48.6,Limited Time,i,27.13770260859765,29.671760954179124,48.58772555410974,52.908086979109235,27.13770260859765,29.671760954179124,52.908086979109235,48.58772555410974,-10,-10,10,10,41,31,31,51,51,3.1622776601683795,10,3.1622776601683795,10
6,14,0.16962639999110252,o,51.6,Limited Time,i,33.95586700477653,48.742340056042146,51.64844582424323,54.50354401735245,33.95586700477653,48.742340056042146,54.50354401735245,51.64844582424323,-10,-10,10,10,41,31,31,51,51,3.1622776601683795,10,3.1622776601683795,10
6,15,0.2027459000237286,o,34.0,Limited Time,i,37.64600692153941,1.454138162871729,33.97904750415173,50.48986660896759,37.64600692153941,1.454138162871729,50.48986660896759,33.97904750415173,-10,-10,10,10,41,31,31,51,51,3.1622776601683795,10,3.1622776601683795,10
6,16,0.1288722999743186,o,64.1,Limited Time,i,27.910632575730425,37.23230310692568,64.14282573545327,50.93929442928056,27.910632575730425,37.23230310692568,50.93929442928056,64.14282573545327,-10,-10,10,10,41,31,31,51,51,3.1622776601683795,10,3.1622776601683795,10
6,17,0.11105490004410967,o,58.1,Limited Time,i,29.356098330451392,25.931371455569362,58.10213166566426,50.278274619612155,29.356098330451392,25.931371455569362,50.278274619612155,58.10213166566426,-10,-10,10,10,41,31,31,51,51,3.1622776601683795,10,3.1622776601683795,10
6,18,0.15958610002417117,o,45.9,Limited Time,i,32.13799768522393,37.47885381306003,45.86932095838199,49.6781341290618,32.13799768522393,37.47885381306003,49.6781341290618,45.86932095838199,-10,-10,10,10,41,31,31,51,51,3.1622776601683795,10,3.1622776601683795,10
6,19,0.22494869999354705,o,38.9,Limited Time,i,26.91913099457844,37.80719262868173,38.93321950968995,47.72579680636025,26.91913099457844,37.80719262868173,47.72579680636025,38.93321950968995,-10,-10,10,10,41,31,31,51,51,3.1622776601683795,10,3.1622776601683795,10
6,20,0.2073942999704741,p,55.6,Limited Time,i,32.987195664080176,35.49028737174238,44.102577287333474,55.628399348507486,32.987195664080176,35.49028737174238,55.628399348507486,44.102577287333474,-10,-10,10,10,41,31,31,51,51,3.1622776601683795,10,3.1622776601683795,10
7,1,0.2652220000163652,o,40.4,Unlimited Time,e,33.94821525502726,56.67744394980342,40.41404220402371,40.01417766144815,40.01417766144815,33.94821525502726,40.41404220402371,56.67744394980342,0,0,0,0,41,41,41,41,41,3.1622776601683795,6.324555320336759,8.366600265340756,10
7,2,0.07168049999745563,w,27.5,Unlimited Time,e,33.72722144894426,27.476373638925566,33.18723589620409,41.81289269474375,41.81289269474375,33.72722144894426,33.18723589620409,27.476373638925566,0,0,0,0,41,41,41,41,41,3.1622776601683795,6.324555320336759,8.366600265340756,10
7,3,0.623047899978701,q,56.3,Unlimited Time,e,56.25724934776042,38.256983364401805,35.177869350132305,41.65007245743403,41.65007245743403,56.25724934776042,35.177869350132305,38.256983364401805,0,0,0,0,41,41,41,41,41,3.1622776601683795,6.324555320336759,8.366600265340756,10
7,4,1.4745046999887563,q,40.4,Unlimited Time,e,40.431999286660066,39.80446071743356,44.7363183796675,44.256888447121796,44.256888447121796,40.431999286660066,44.7363183796675,39.80446071743356,0,0,0,0,41,41,41,41,41,3.1622776601683795,6.324555320336759,8.366600265340756,10
7,5,0.3322364999912679,q,43.7,Unlimited Time,e,43.734139399688175,41.386673585215576,49.215306638330816,39.21823353840807,39.21823353840807,43.734139399688175,49.215306638330816,41.386673585215576,0,0,0,0,41,41,41,41,41,3.1622776601683795,6.324555320336759,8.366600265340756,10
7,6,0.4000817000051029,q,47.2,Unlimited Time,e,47.17430177141229,47.26483348492467,39.15746987491675,42.258412665131075,42.258412665131075,47.17430177141229,39.15746987491675,47.26483348492467,0,0,0,0,41,41,41,41,41,3.1622776601683795,6.324555320336759,8.366600265340756,10
7,7,0.5710103999590501,q,37.3,Unlimited Time,e,37.25211727652672,35.59223245889951,47.948219913684554,39.29213562871434,39.29213562871434,37.25211727652672,47.948219913684554,35.59223245889951,0,0,0,0,41,41,41,41,41,3.1622776601683795,6.324555320336759,8.366600265340756,10
7,8,0.5711009000078775,p,40.1,Unlimited Time,e,46.97391516094591,59.73854936048218,38.57427183764755,40.092808731376344,40.092808731376344,46.97391516094591,38.57427183764755,59.73854936048218,0,0,0,0,41,41,41,41,41,3.1622776601683795,6.324555320336759,8.366600265340756,10
7,9,0.6022404999821447,o,29.9,Unlimited Time,e,46.570896406332125,46.53677639889227,29.92591180459936,42.65854263768811,42.65854263768811,46.570896406332125,29.92591180459936,46.53677639889227,0,0,0,0,41,41,41,41,41,3.1622776601683795,6.324555320336759,8.366600265340756,10
7,10,0.7938702999963425,w,45.3,Unlimited Time,e,33.61417952302206,45.259414003892466,46.05935741947468,43.60117263837133,43.60117263837133,33.61417952302206,46.05935741947468,45.259414003892466,0,0,0,0,41,41,41,41,41,3.1622776601683795,6.324555320336759,8.366600265340756,10
7,11,0.50249459996121,w,34.3,Unlimited Time,e,49.714252807162254,34.28126559703105,31.3834722428433,43.21106169091571,43.21106169091571,49.714252807162254,31.3834722428433,34.28126559703105,0,0,0,0,41,41,41,41,41,3.1622776601683795,6.324555320336759,8.366600265340756,10
7,12,0.1622374999569729,q,47.6,Unlimited Time,e,47.621885391516514,46.23421983558575,44.404086500128905,42.195074661434425,42.195074661434425,47.621885391516514,44.404086500128905,46.23421983558575,0,0,0,0,41,41,41,41,41,3.1622776601683795,6.324555320336759,8.366600265340756,10
7,13,0.1835101999458857,q,36.6,Unlimited Time,e,36.56748986169723,38.923219708663225,43.09651313018186,42.26304027335769,42.26304027335769,36.56748986169723,43.09651313018186,38.923219708663225,0,0,0,0,41,41,41,41,41,3.1622776601683795,6.324555320336759,8.366600265340756,10
7,14,1.1610972000053152,o,43.9,Unlimited Time,e,42.50501881471378,43.82192258700221,43.892765436046915,39.22880203911393,39.22880203911393,42.50501881471378,43.892765436046915,43.82192258700221,0,0,0,0,41,41,41,41,41,3.1622776601683795,6.324555320336759,8.366600265340756,10
7,15,0.08833230001619086,o,44.0,Unlimited Time,e,48.35516241537346,47.14659746017921,43.99224897107567,47.49060101064611,47.49060101064611,48.35516241537346,43.99224897107567,47.14659746017921,0,0,0,0,41,41,41,41,41,3.1622776601683795,6.324555320336759,8.366600265340756,10
7,16,0.13507059996481985,o,53.2,Unlimited Time,e,34.15668453423551,63.31337207961941,53.22692581493743,40.01816181099432,40.01816181099432,34.15668453423551,53.22692581493743,63.31337207961941,0,0,0,0,41,41,41,41,41,3.1622776601683795,6.324555320336759,8.366600265340756,10
7,17,0.15797290002228692,o,40.4,Unlimited Time,e,34.05194352639389,48.65996457511337,40.42534782871644,38.27248494499087,38.27248494499087,34.05194352639389,40.42534782871644,48.65996457511337,0,0,0,0,41,41,41,41,41,3.1622776601683795,6.324555320336759,8.366600265340756,10
7,18,0.11026009998749942,o,62.6,Unlimited Time,e,52.574817459301094,52.3337893108359,62.59674434734602,44.26861626409389,44.26861626409389,52.574817459301094,62.59674434734602,52.3337893108359,0,0,0,0,41,41,41,41,41,3.1622776601683795,6.324555320336759,8.366600265340756,10
7,19,0.10466069995891303,o,44.7,Unlimited Time,e,32.98760130710329,40.85377950358144,44.670295426185604,45.59293700605339,45.59293700605339,32.98760130710329,44.670295426185604,40.85377950358144,0,0,0,0,41,41,41,41,41,3.1622776601683795,6.324555320336759,8.366600265340756,10
7,20,0.07694860000628978,o,29.8,Unlimited Time,e,43.40906904702041,41.44004407642436,29.825948399657626,38.946464255955334,38.946464255955334,43.40906904702041,29.825948399657626,41.44004407642436,0,0,0,0,41,41,41,41,41,3.1622776601683795,6.324555320336759,8.366600265340756,10
8,1,0.23468789999606088,o,57.5,Limited Time,l,38.5071536866139,37.49808697594334,57.49893772196395,33.529924486501656,33.529924486501656,37.49808697594334,38.5071536866139,57.49893772196395,-10,-0.33,0.33,10,41,31,40.67,41.33,51,3.1622776601683795,3.1622776601683795,3.1622776601683795,3.1622776601683795
8,2,0.21129669999936596,q,39.3,Limited Time,l,39.34874352293427,45.46233018373196,56.07530769503956,30.354635988713266,30.354635988713266,45.46233018373196,39.34874352293427,56.07530769503956,-10,-0.33,0.33,10,41,31,40.67,41.33,51,3.1622776601683795,3.1622776601683795,3.1622776601683795,3.1622776601683795
8,3,0.32317109999712557,q,41.0,Limited Time,l,40.96759124286672,47.55285787073222,43.887752407581324,29.91886196082609,29.91886196082609,47.55285787073222,40.96759124286672,43.887752407581324,-10,-0.33,0.33,10,41,31,40.67,41.33,51,3.1622776601683795,3.1622776601683795,3.1622776601683795,3.1622776601683795
8,4,0.1066949000232853,q,40.4,Limited Time,l,40.39330108718565,38.89144637863719,48.03574504773567,27.52613014202191,27.52613014202191,38.89144637863719,40.39330108718565,48.03574504773567,-10,-0.33,0.33,10,41,31,40.67,41.33,51,3.1622776601683795,3.1622776601683795,3.1622776601683795,3.1622776601683795
8,5,0.20827240002108738,o,47.1,Limited Time,l,44.2418781129774,39.513486829074374,47.14044669450965,33.413614864838586,33.413614864838586,39.513486829074374,44.2418781129774,47.14044669450965,-10,-0.33,0.33,10,41,31,40.67,41.33,51,3.1622776601683795,3.1622776601683795,3.1622776601683795,3.1622776601683795
8,6,0.1818776000291109,o,50.7,Limited Time,l,44.92472695046715,39.3872011108116,50.708896746010005,25.498676430524352,25.498676430524352,39.3872011108116,44.92472695046715,50.708896746010005,-10,-0.33,0.33,10,41,31,40.67,41.33,51,3.1622776601683795,3.1622776601683795,3.1622776601683795,3.1622776601683795
8,7,0.32680129999062046,o,51.5,Limited Time,l,39.09601908819795,40.72496448223195,51.512117432497284,32.66860893488906,32.66860893488906,40.72496448223195,39.09601908819795,51.512117432497284,-10,-0.33,0.33,10,41,31,40.67,41.33,51,3.1622776601683795,3.1622776601683795,3.1622776601683795,3.1622776601683795
8,8,0.3244365999707952,o,51.1,Limited Time,l,39.56201249538434,40.39367133691583,51.13898938191142,30.034491789883717,30.034491789883717,40.39367133691583,39.56201249538434,51.13898938191142,-10,-0.33,0.33,10,41,31,40.67,41.33,51,3.1622776601683795,3.1622776601683795,3.1622776601683795,3.1622776601683795
8,9,0.041343399963807315,o,52.2,Limited Time,l,33.38457123059065,41.431119718001845,52.2433231273062,30.838722532536128,30.838722532536128,41.431119718001845,33.38457123059065,52.2433231273062,-10,-0.33,0.33,10,41,31,40.67,41.33,51,3.1622776601683795,3.1622776601683795,3.1622776601683795,3.1622776601683795
8,10,0.22750189999351278,o,51.1,Limited Time,l,41.25189072601165,39.24502786530681,51.13748318603962,32.2424979216801,32.2424979216801,39.24502786530681,41.25189072601165,51.13748318603962,-10,-0.33,0.33,10,41,31,40.67,41.33,51,3.1622776601683795,3.1622776601683795,3.1622776601683795,3.1622776601683795
8,11,0.2533666000235826,o,53.5,Limited Time,l,44.3871095512982,45.757086002615495,53.45333237825785,23.014769356448365,23.014769356448365,45.757086002615495,44.3871095512982,53.45333237825785,-10,-0.33,0.33,10,41,31,40.67,41.33,51,3.1622776601683795,3.1622776601683795,3.1622776601683795,3.1622776601683795
8,12,0.23935440002242103,o,48.9,Limited Time,l,40.27389661530348,39.98365634688978,48.929526190748845,29.477369140883443,29.477369140883443,39.98365634688978,40.27389661530348,48.929526190748845,-10,-0.33,0.33,10,41,31,40.67,41.33,51,3.1622776601683795,3.1622776601683795,3.1622776601683795,3.1622776601683795
8,13,0.18057390005560592,o,51.7,Limited Time,l,45.7314652360101,42.431701515633804,51.724807946131214,32.694882277223165,32.694882277223165,42.431701515633804,45.7314652360101,51.724807946131214,-10,-0.33,0.33,10,41,31,40.67,41.33,51,3.1622776601683795,3.1622776601683795,3.1622776601683795,3.1622776601683795
8,14,0.18890080001438037,o,55.4,Limited Time,l,37.248667956568035,43.88548547122052,55.41640487221256,28.36524696874219,28.36524696874219,43.88548547122052,37.248667956568035,55.41640487221256,-10,-0.33,0.33,10,41,31,40.67,41.33,51,3.1622776601683795,3.1622776601683795,3.1622776601683795,3.1622776601683795
8,15,0.21378719998756424,o,52.8,Limited Time,l,44.36700880805076,45.332707163261716,52.79397339659475,35.74621259393804,35.74621259393804,45.332707163261716,44.36700880805076,52.79397339659475,-10,-0.33,0.33,10,41,31,40.67,41.33,51,3.1622776601683795,3.1622776601683795,3.1622776601683795,3.1622776601683795
8,16,0.22323379997396842,o,54.6,Limited Time,l,39.26910763614296,43.47862770121272,54.57153874473409,35.362091200552605,35.362091200552605,43.47862770121272,39.26910763614296,54.57153874473409,-10,-0.33,0.33,10,41,31,40.67,41.33,51,3.1622776601683795,3.1622776601683795,3.1622776601683795,3.1622776601683795
8,17,0.23136069998145103,o,49.2,Limited Time,l,37.6794596128184,35.733558927687,49.17547916576647,25.782950836976596,25.782950836976596,35.733558927687,37.6794596128184,49.17547916576647,-10,-0.33,0.33,10,41,31,40.67,41.33,51,3.1622776601683795,3.1622776601683795,3.1622776601683795,3.1622776601683795
8,18,0.2195998000097461,o,52.0,Limited Time,l,40.68548723800981,38.083202025904235,51.96324271806052,33.43648507643345,33.43648507643345,38.083202025904235,40.68548723800981,51.96324271806052,-10,-0.33,0.33,10,41,31,40.67,41.33,51,3.1622776601683795,3.1622776601683795,3.1622776601683795,3.1622776601683795
8,19,0.16254039999330416,o,51.9,Limited Time,l,39.13343759083095,41.42819438476591,51.90845602092716,30.62844338387761,30.62844338387761,41.42819438476591,39.13343759083095,51.90845602092716,-10,-0.33,0.33,10,41,31,40.67,41.33,51,3.1622776601683795,3.1622776601683795,3.1622776601683795,3.1622776601683795
8,20,0.1915273999911733,o,56.7,Limited Time,l,46.09229563768317,39.4429685102306,56.66765391177358,29.28597191460818,29.28597191460818,39.4429685102306,46.09229563768317,56.66765391177358,-10,-0.33,0.33,10,41,31,40.67,41.33,51,3.1622776601683795,3.1622776601683795,3.1622776601683795,3.1622776601683795
9,1,0.353035899985116,o,47.2,Unlimited Time,i,64.61282711193077,37.48704916210289,47.17070094714911,33.36075750186457,37.48704916210289,33.36075750186457,47.17070094714911,64.61282711193077,-10,-10,10,10,41,31,31,51,51,3.1622776601683795,10,3.1622776601683795,10
9,2,0.2531307000317611,q,42.6,Unlimited Time,i,42.585368359986944,28.952310467167273,51.39534542141923,26.820390929580153,28.952310467167273,26.820390929580153,51.39534542141923,42.585368359986944,-10,-10,10,10,41,31,31,51,51,3.1622776601683795,10,3.1622776601683795,10
9,3,0.4257225999608636,w,35.1,Unlimited Time,i,53.984445278853975,35.10289698898212,46.0055400822022,34.028621292464244,35.10289698898212,34.028621292464244,46.0055400822022,53.984445278853975,-10,-10,10,10,41,31,31,51,51,3.1622776601683795,10,3.1622776601683795,10
9,4,0.19313500000862405,w,31.3,Unlimited Time,i,42.14901592739028,31.2893189969127,50.86875230334995,32.13240306888516,31.2893189969127,32.13240306888516,50.86875230334995,42.14901592739028,-10,-10,10,10,41,31,31,51,51,3.1622776601683795,10,3.1622776601683795,10
9,5,0.10057170002255589,q,36.3,Unlimited Time,i,36.269990979276116,29.43739861353112,55.370892624071686,53.4790716592975,29.43739861353112,53.4790716592975,55.370892624071686,36.269990979276116,-10,-10,10,10,41,31,31,51,51,3.1622776601683795,10,3.1622776601683795,10
9,6,0.19576179998693988,o,50.5,Unlimited Time,i,36.78729176431163,26.40086271276018,50.470293055065135,28.354705190175764,26.40086271276018,28.354705190175764,50.470293055065135,36.78729176431163,-10,-10,10,10,41,31,31,51,51,3.1622776601683795,10,3.1622776601683795,10
9,7,0.04157830000622198,o,45.8,Unlimited Time,i,66.85900836265175,30.50177815499483,45.79429695499198,12.49267284208743,30.50177815499483,12.49267284208743,45.79429695499198,66.85900836265175,-10,-10,10,10,41,31,31,51,51,3.1622776601683795,10,3.1622776601683795,10
9,8,0.11088919994654134,p,24.5,Unlimited Time,i,40.8930656009492,33.550468279273,49.298919392345205,24.539290862601625,33.550468279273,24.539290862601625,49.298919392345205,40.8930656009492,-10,-10,10,10,41,31,31,51,51,3.1622776601683795,10,3.1622776601683795,10
9,9,0.01146299997344613,p,35.9,Unlimited Time,i,43.94652216776652,31.769357135099888,46.719081678415755,35.88453641423691,31.769357135099888,35.88453641423691,46.719081678415755,43.94652216776652,-10,-10,10,10,41,31,31,51,51,3.1622776601683795,10,3.1622776601683795,10
9,10,0.028278500016313046,o,45.3,Unlimited Time,i,63.23691734731352,32.112360791021146,45.25056543173311,13.643431673126926,32.112360791021146,13.643431673126926,45.25056543173311,63.23691734731352,-10,-10,10,10,41,31,31,51,51,3.1622776601683795,10,3.1622776601683795,10
9,11,0.04588560003321618,o,50.8,Unlimited Time,i,44.95630585587309,27.503130320826372,50.82550647030243,23.68462508389908,27.503130320826372,23.68462508389908,50.82550647030243,44.95630585587309,-10,-10,10,10,41,31,31,51,51,3.1622776601683795,10,3.1622776601683795,10
9,12,0.04454929998610169,o,55.8,Unlimited Time,i,41.98363157963311,33.45155841968785,55.84818022402538,27.48808969427134,33.45155841968785,27.48808969427134,55.84818022402538,41.98363157963311,-10,-10,10,10,41,31,31,51,51,3.1622776601683795,10,3.1622776601683795,10
9,13,0.06778510002186522,o,52.9,Unlimited Time,i,48.58772555410974,27.13770260859765,52.908086979109235,29.671760954179124,27.13770260859765,29.671760954179124,52.908086979109235,48.58772555410974,-10,-10,10,10,41,31,31,51,51,3.1622776601683795,10,3.1622776601683795,10
9,14,0.05679180001607165,o,54.5,Unlimited Time,i,51.64844582424323,33.95586700477653,54.50354401735245,48.742340056042146,33.95586700477653,48.742340056042146,54.50354401735245,51.64844582424323,-10,-10,10,10,41,31,31,51,51,3.1622776601683795,10,3.1622776601683795,10
9,15,0.04364190000342205,o,50.5,Unlimited Time,i,33.97904750415173,37.64600692153941,50.48986660896759,1.454138162871729,37.64600692153941,1.454138162871729,50.48986660896759,33.97904750415173,-10,-10,10,10,41,31,31,51,51,3.1622776601683795,10,3.1622776601683795,10
9,16,0.046707300003618,o,50.9,Unlimited Time,i,64.14282573545327,27.910632575730425,50.93929442928056,37.23230310692568,27.910632575730425,37.23230310692568,50.93929442928056,64.14282573545327,-10,-10,10,10,41,31,31,51,51,3.1622776601683795,10,3.1622776601683795,10
9,17,0.024786299967672676,o,50.3,Unlimited Time,i,58.10213166566426,29.356098330451392,50.278274619612155,25.931371455569362,29.356098330451392,25.931371455569362,50.278274619612155,58.10213166566426,-10,-10,10,10,41,31,31,51,51,3.1622776601683795,10,3.1622776601683795,10
9,18,0.07686470000771806,o,49.7,Unlimited Time,i,45.86932095838199,32.13799768522393,49.6781341290618,37.47885381306003,32.13799768522393,37.47885381306003,49.6781341290618,45.86932095838199,-10,-10,10,10,41,31,31,51,51,3.1622776601683795,10,3.1622776601683795,10
9,19,0.4318595000077039,q,38.9,Unlimited Time,i,38.93321950968995,26.91913099457844,47.72579680636025,37.80719262868173,26.91913099457844,37.80719262868173,47.72579680636025,38.93321950968995,-10,-10,10,10,41,31,31,51,51,3.1622776601683795,10,3.1622776601683795,10
9,20,0.3638099000090733,q,44.1,Unlimited Time,i,44.102577287333474,32.987195664080176,55.628399348507486,35.49028737174238,32.987195664080176,35.49028737174238,55.628399348507486,44.102577287333474,-10,-10,10,10,41,31,31,51,51,3.1622776601683795,10,3.1622776601683795,10
10,1,0.3553520000423305,o,33.6,Limited Time,h,40.49384399089091,33.13407955435981,33.609794634358,49.12677722143134,33.609794634358,49.12677722143134,33.13407955435981,40.49384399089091,-10,-0.33,0.33,10,41,31,40.67,41.33,51,10,10,10,10
10,2,0.0037848999490961432,o,42.2,Limited Time,h,55.863043348613694,42.76686235665255,42.16789946505561,38.328362188043414,42.16789946505561,38.328362188043414,42.76686235665255,55.863043348613694,-10,-0.33,0.33,10,41,31,40.67,41.33,51,10,10,10,10
10,3,0.35906589997466654,o,33.5,Limited Time,h,43.366583245347506,42.47894935230448,33.47917044220563,38.32694263845046,33.47917044220563,38.32694263845046,42.47894935230448,43.366583245347506,-10,-0.33,0.33,10,41,31,40.67,41.33,51,10,10,10,10
10,4,0.24258079996798187,o,27.8,Limited Time,h,44.80234196711739,38.158687094246346,27.80473845918506,41.878758667415234,27.80473845918506,41.878758667415234,38.158687094246346,44.80234196711739,-10,-0.33,0.33,10,41,31,40.67,41.33,51,10,10,10,10
10,5,0.002516400010790676,o,24.0,Limited Time,h,41.050215821524375,33.547301388993915,23.965791369369754,36.42037390845817,23.965791369369754,36.42037390845817,33.547301388993915,41.050215821524375,-10,-0.33,0.33,10,41,31,40.67,41.33,51,10,10,10,10
10,6,0.19160720001673326,o,22.1,Limited Time,h,43.88706832097201,61.06198766188445,22.141175948702255,41.237136302402256,22.141175948702255,41.237136302402256,61.06198766188445,43.88706832097201,-10,-0.33,0.33,10,41,31,40.67,41.33,51,10,10,10,10
10,7,0.3183145999792032,q,62.5,Limited Time,h,62.4981399123479,50.22984365834283,15.915478021159604,49.633109154174804,15.915478021159604,49.633109154174804,50.22984365834283,62.4981399123479,-10,-0.33,0.33,10,41,31,40.67,41.33,51,10,10,10,10
10,8,0.2000710999709554,q,41.9,Limited Time,h,41.94412745801159,56.027106918658895,23.298652315885874,49.552167651026124,23.298652315885874,49.552167651026124,56.027106918658895,41.94412745801159,-10,-0.33,0.33,10,41,31,40.67,41.33,51,10,10,10,10
10,9,0.2703695999807678,q,66.8,Limited Time,h,66.76281875719475,56.859333167009304,35.07086976358258,61.39871742838203,35.07086976358258,61.39871742838203,56.859333167009304,66.76281875719475,-10,-0.33,0.33,10,41,31,40.67,41.33,51,10,10,10,10
10,10,0.24981680000200868,q,47.9,Limited Time,h,47.85450393766768,56.39383923828958,29.403837464653424,23.426834590873998,29.403837464653424,23.426834590873998,56.39383923828958,47.85450393766768,-10,-0.33,0.33,10,41,31,40.67,41.33,51,10,10,10,10
10,11,,,0.0,Limited Time,h,62.05480464130976,44.58266637600662,15.256268651958443,50.19184446877844,15.256268651958443,50.19184446877844,44.58266637600662,62.05480464130976,-10,-0.33,0.33,10,41,31,40.67,41.33,51,10,10,10,10
10,12,0.3204511000076309,q,42.4,Limited Time,h,42.410074212103126,41.60723232763407,28.216606812309244,54.68234607843964,28.216606812309244,54.68234607843964,41.60723232763407,42.410074212103126,-10,-0.33,0.33,10,41,31,40.67,41.33,51,10,10,10,10
10,13,0.3260549000115134,q,48.5,Limited Time,h,48.46836940694241,44.79159996431348,19.23809431163652,34.63277794705179,19.23809431163652,34.63277794705179,44.79159996431348,48.46836940694241,-10,-0.33,0.33,10,41,31,40.67,41.33,51,10,10,10,10
10,14,0.0827038999996148,q,59.6,Limited Time,h,59.56633747771039,32.84738160875639,40.042580267631635,33.224847567466654,40.042580267631635,33.224847567466654,32.84738160875639,59.56633747771039,-10,-0.33,0.33,10,41,31,40.67,41.33,51,10,10,10,10
10,15,0.16864990000613034,q,37.9,Limited Time,h,37.948353170566975,40.65424694829573,33.1698644339385,61.03767579511671,33.1698644339385,61.03767579511671,40.65424694829573,37.948353170566975,-10,-0.33,0.33,10,41,31,40.67,41.33,51,10,10,10,10
10,16,0.1916320000309497,q,53.9,Limited Time,h,53.89799184633798,43.68049409318224,35.26793417474685,51.735767532309296,35.26793417474685,51.735767532309296,43.68049409318224,53.89799184633798,-10,-0.33,0.33,10,41,31,40.67,41.33,51,10,10,10,10
10,17,0.17266969999764115,q,39.4,Limited Time,h,39.3880075163834,31.86253620612852,49.03243421085403,38.574043981566106,49.03243421085403,38.574043981566106,31.86253620612852,39.3880075163834,-10,-0.33,0.33,10,41,31,40.67,41.33,51,10,10,10,10
10,18,0.1355866999947466,q,65.3,Limited Time,h,65.32703993654972,49.79683706823543,18.695138728069256,37.20344312951661,18.695138728069256,37.20344312951661,49.79683706823543,65.32703993654972,-10,-0.33,0.33,10,41,31,40.67,41.33,51,10,10,10,10
10,19,0.12577719998080283,q,29.8,Limited Time,h,29.809731617506877,26.104346487094475,39.90036885844967,43.51514197234941,39.90036885844967,43.51514197234941,26.104346487094475,29.809731617506877,-10,-0.33,0.33,10,41,31,40.67,41.33,51,10,10,10,10
10,20,0.1331534000346437,q,50.5,Limited Time,h,50.47904385779861,46.795579387779306,27.110689573334614,50.09354894830715,27.110689573334614,50.09354894830715,46.795579387779306,50.47904385779861,-10,-0.33,0.33,10,41,31,40.67,41.33,51,10,10,10,10
11,1,0.7596406000084244,q,49.1,Unlimited Time,h,49.12677722143134,33.13407955435981,40.49384399089091,33.609794634358,33.609794634358,49.12677722143134,33.13407955435981,40.49384399089091,-10,-0.33,0.33,10,41,31,40.67,41.33,51,10,10,10,10
11,2,0.39952450001146644,q,38.3,Unlimited Time,h,38.328362188043414,42.76686235665255,55.863043348613694,42.16789946505561,42.16789946505561,38.328362188043414,42.76686235665255,55.863043348613694,-10,-0.33,0.33,10,41,31,40.67,41.33,51,10,10,10,10
11,3,0.4752586000249721,w,42.5,Unlimited Time,h,38.32694263845046,42.47894935230448,43.366583245347506,33.47917044220563,33.47917044220563,38.32694263845046,42.47894935230448,43.366583245347506,-10,-0.33,0.33,10,41,31,40.67,41.33,51,10,10,10,10
11,4,0.1643536000046879,w,38.2,Unlimited Time,h,41.878758667415234,38.158687094246346,44.80234196711739,27.80473845918506,27.80473845918506,41.878758667415234,38.158687094246346,44.80234196711739,-10,-0.33,0.33,10,41,31,40.67,41.33,51,10,10,10,10
11,5,0.27421340002911165,w,33.5,Unlimited Time,h,36.42037390845817,33.547301388993915,41.050215821524375,23.965791369369754,23.965791369369754,36.42037390845817,33.547301388993915,41.050215821524375,-10,-0.33,0.33,10,41,31,40.67,41.33,51,10,10,10,10
11,6,0.1437080999603495,w,61.1,Unlimited Time,h,41.237136302402256,61.06198766188445,43.88706832097201,22.141175948702255,22.141175948702255,41.237136302402256,61.06198766188445,43.88706832097201,-10,-0.33,0.33,10,41,31,40.67,41.33,51,10,10,10,10
11,7,0.08825690002413467,w,50.2,Unlimited Time,h,49.633109154174804,50.22984365834283,62.4981399123479,15.915478021159604,15.915478021159604,49.633109154174804,50.22984365834283,62.4981399123479,-10,-0.33,0.33,10,41,31,40.67,41.33,51,10,10,10,10
11,8,0.06547049997607246,w,56.0,Unlimited Time,h,49.552167651026124,56.027106918658895,41.94412745801159,23.298652315885874,23.298652315885874,49.552167651026124,56.027106918658895,41.94412745801159,-10,-0.33,0.33,10,41,31,40.67,41.33,51,10,10,10,10
11,9,0.09229170001344755,w,56.9,Unlimited Time,h,61.39871742838203,56.859333167009304,66.76281875719475,35.07086976358258,35.07086976358258,61.39871742838203,56.859333167009304,66.76281875719475,-10,-0.33,0.33,10,41,31,40.67,41.33,51,10,10,10,10
11,10,0.07045140000991523,w,56.4,Unlimited Time,h,23.426834590873998,56.39383923828958,47.85450393766768,29.403837464653424,29.403837464653424,23.426834590873998,56.39383923828958,47.85450393766768,-10,-0.33,0.33,10,41,31,40.67,41.33,51,10,10,10,10
11,11,0.1099081999855116,w,44.6,Unlimited Time,h,50.19184446877844,44.58266637600662,62.05480464130976,15.256268651958443,15.256268651958443,50.19184446877844,44.58266637600662,62.05480464130976,-10,-0.33,0.33,10,41,31,40.67,41.33,51,10,10,10,10
11,12,0.05122090002987534,w,41.6,Unlimited Time,h,54.68234607843964,41.60723232763407,42.410074212103126,28.216606812309244,28.216606812309244,54.68234607843964,41.60723232763407,42.410074212103126,-10,-0.33,0.33,10,41,31,40.67,41.33,51,10,10,10,10
11,13,1.0798184999730438,p,19.2,Unlimited Time,h,34.63277794705179,44.79159996431348,48.46836940694241,19.23809431163652,19.23809431163652,34.63277794705179,44.79159996431348,48.46836940694241,-10,-0.33,0.33,10,41,31,40.67,41.33,51,10,10,10,10
11,14,0.09680699999444187,p,40.0,Unlimited Time,h,33.224847567466654,32.84738160875639,59.56633747771039,40.042580267631635,40.042580267631635,33.224847567466654,32.84738160875639,59.56633747771039,-10,-0.33,0.33,10,41,31,40.67,41.33,51,10,10,10,10
11,15,0.04002889996627346,o,37.9,Unlimited Time,h,61.03767579511671,40.65424694829573,37.948353170566975,33.1698644339385,33.1698644339385,61.03767579511671,40.65424694829573,37.948353170566975,-10,-0.33,0.33,10,41,31,40.67,41.33,51,10,10,10,10
11,16,0.6800456999917515,p,35.3,Unlimited Time,h,51.735767532309296,43.68049409318224,53.89799184633798,35.26793417474685,35.26793417474685,51.735767532309296,43.68049409318224,53.89799184633798,-10,-0.33,0.33,10,41,31,40.67,41.33,51,10,10,10,10
11,17,0.31264300004113466,p,49.0,Unlimited Time,h,38.574043981566106,31.86253620612852,39.3880075163834,49.03243421085403,49.03243421085403,38.574043981566106,31.86253620612852,39.3880075163834,-10,-0.33,0.33,10,41,31,40.67,41.33,51,10,10,10,10
11,18,0.2754142999765463,p,18.7,Unlimited Time,h,37.20344312951661,49.79683706823543,65.32703993654972,18.695138728069256,18.695138728069256,37.20344312951661,49.79683706823543,65.32703993654972,-10,-0.33,0.33,10,41,31,40.67,41.33,51,10,10,10,10
11,19,0.24499969999305904,p,39.9,Unlimited Time,h,43.51514197234941,26.104346487094475,29.809731617506877,39.90036885844967,39.90036885844967,43.51514197234941,26.104346487094475,29.809731617506877,-10,-0.33,0.33,10,41,31,40.67,41.33,51,10,10,10,10
11,20,0.15033849998144433,p,27.1,Unlimited Time,h,50.09354894830715,46.795579387779306,50.47904385779861,27.110689573334614,27.110689573334614,50.09354894830715,46.795579387779306,50.47904385779861,-10,-0.33,0.33,10,41,31,40.67,41.33,51,10,10,10,10
12,1,,,0.0,Limited Time,h,33.13407955435981,40.49384399089091,49.12677722143134,33.609794634358,33.609794634358,49.12677722143134,33.13407955435981,40.49384399089091,-10,-0.33,0.33,10,41,31,40.67,41.33,51,10,10,10,10
12,2,0.11054299998795614,o,38.3,Limited Time,h,42.76686235665255,55.863043348613694,38.328362188043414,42.16789946505561,42.16789946505561,38.328362188043414,42.76686235665255,55.863043348613694,-10,-0.33,0.33,10,41,31,40.67,41.33,51,10,10,10,10
12,3,0.09408650000113994,o,38.3,Limited Time,h,42.47894935230448,43.366583245347506,38.32694263845046,33.47917044220563,33.47917044220563,38.32694263845046,42.47894935230448,43.366583245347506,-10,-0.33,0.33,10,41,31,40.67,41.33,51,10,10,10,10
12,4,0.10472010000376031,o,41.9,Limited Time,h,38.158687094246346,44.80234196711739,41.878758667415234,27.80473845918506,27.80473845918506,41.878758667415234,38.158687094246346,44.80234196711739,-10,-0.33,0.33,10,41,31,40.67,41.33,51,10,10,10,10
12,5,0.04647970001678914,o,36.4,Limited Time,h,33.547301388993915,41.050215821524375,36.42037390845817,23.965791369369754,23.965791369369754,36.42037390845817,33.547301388993915,41.050215821524375,-10,-0.33,0.33,10,41,31,40.67,41.33,51,10,10,10,10
12,6,0.06581619998905808,o,41.2,Limited Time,h,61.06198766188445,43.88706832097201,41.237136302402256,22.141175948702255,22.141175948702255,41.237136302402256,61.06198766188445,43.88706832097201,-10,-0.33,0.33,10,41,31,40.67,41.33,51,10,10,10,10
12,7,0.0737123999861069,o,49.6,Limited Time,h,50.22984365834283,62.4981399123479,49.633109154174804,15.915478021159604,15.915478021159604,49.633109154174804,50.22984365834283,62.4981399123479,-10,-0.33,0.33,10,41,31,40.67,41.33,51,10,10,10,10
12,8,0.08015189995057881,o,49.6,Limited Time,h,56.027106918658895,41.94412745801159,49.552167651026124,23.298652315885874,23.298652315885874,49.552167651026124,56.027106918658895,41.94412745801159,-10,-0.33,0.33,10,41,31,40.67,41.33,51,10,10,10,10
12,9,0.06646709999768063,o,61.4,Limited Time,h,56.859333167009304,66.76281875719475,61.39871742838203,35.07086976358258,35.07086976358258,61.39871742838203,56.859333167009304,66.76281875719475,-10,-0.33,0.33,10,41,31,40.67,41.33,51,10,10,10,10
12,10,0.0845526999910362,o,23.4,Limited Time,h,56.39383923828958,47.85450393766768,23.426834590873998,29.403837464653424,29.403837464653424,23.426834590873998,56.39383923828958,47.85450393766768,-10,-0.33,0.33,10,41,31,40.67,41.33,51,10,10,10,10
12,11,0.05481840000720695,o,50.2,Limited Time,h,44.58266637600662,62.05480464130976,50.19184446877844,15.256268651958443,15.256268651958443,50.19184446877844,44.58266637600662,62.05480464130976,-10,-0.33,0.33,10,41,31,40.67,41.33,51,10,10,10,10
12,12,0.04599239997332916,o,54.7,Limited Time,h,41.60723232763407,42.410074212103126,54.68234607843964,28.216606812309244,28.216606812309244,54.68234607843964,41.60723232763407,42.410074212103126,-10,-0.33,0.33,10,41,31,40.67,41.33,51,10,10,10,10
12,13,0.07328820001566783,o,34.6,Limited Time,h,44.79159996431348,48.46836940694241,34.63277794705179,19.23809431163652,19.23809431163652,34.63277794705179,44.79159996431348,48.46836940694241,-10,-0.33,0.33,10,41,31,40.67,41.33,51,10,10,10,10
12,14,0.13862849998986349,q,32.8,Limited Time,h,32.84738160875639,59.56633747771039,33.224847567466654,40.042580267631635,40.042580267631635,33.224847567466654,32.84738160875639,59.56633747771039,-10,-0.33,0.33,10,41,31,40.67,41.33,51,10,10,10,10
12,15,0.06406800000695512,q,40.7,Limited Time,h,40.65424694829573,37.948353170566975,61.03767579511671,33.1698644339385,33.1698644339385,61.03767579511671,40.65424694829573,37.948353170566975,-10,-0.33,0.33,10,41,31,40.67,41.33,51,10,10,10,10
12,16,0.08232230000430718,q,43.7,Limited Time,h,43.68049409318224,53.89799184633798,51.735767532309296,35.26793417474685,35.26793417474685,51.735767532309296,43.68049409318224,53.89799184633798,-10,-0.33,0.33,10,41,31,40.67,41.33,51,10,10,10,10
12,17,0.16980650002369657,q,31.9,Limited Time,h,31.86253620612852,39.3880075163834,38.574043981566106,49.03243421085403,49.03243421085403,38.574043981566106,31.86253620612852,39.3880075163834,-10,-0.33,0.33,10,41,31,40.67,41.33,51,10,10,10,10
12,18,0.14662010001484305,q,49.8,Limited Time,h,49.79683706823543,65.32703993654972,37.20344312951661,18.695138728069256,18.695138728069256,37.20344312951661,49.79683706823543,65.32703993654972,-10,-0.33,0.33,10,41,31,40.67,41.33,51,10,10,10,10
12,19,0.22953000001143664,w,29.8,Limited Time,h,26.104346487094475,29.809731617506877,43.51514197234941,39.90036885844967,39.90036885844967,43.51514197234941,26.104346487094475,29.809731617506877,-10,-0.33,0.33,10,41,31,40.67,41.33,51,10,10,10,10
12,20,0.1748898000223562,w,50.5,Limited Time,h,46.795579387779306,50.47904385779861,50.09354894830715,27.110689573334614,27.110689573334614,50.09354894830715,46.795579387779306,50.47904385779861,-10,-0.33,0.33,10,41,31,40.67,41.33,51,10,10,10,10
13,1,1.0428773000021465,q,56.7,Unlimited Time,e,56.67744394980342,33.94821525502726,40.01417766144815,40.41404220402371,40.01417766144815,33.94821525502726,40.41404220402371,56.67744394980342,0,0,0,0,41,41,41,41,41,3.1622776601683795,6.324555320336759,8.366600265340756,10
13,2,0.15863580000586808,q,27.5,Unlimited Time,e,27.476373638925566,33.72722144894426,41.81289269474375,33.18723589620409,41.81289269474375,33.72722144894426,33.18723589620409,27.476373638925566,0,0,0,0,41,41,41,41,41,3.1622776601683795,6.324555320336759,8.366600265340756,10
13,3,0.5337284000124782,q,38.3,Unlimited Time,e,38.256983364401805,56.25724934776042,41.65007245743403,35.177869350132305,41.65007245743403,56.25724934776042,35.177869350132305,38.256983364401805,0,0,0,0,41,41,41,41,41,3.1622776601683795,6.324555320336759,8.366600265340756,10
13,4,0.05433030001586303,q,39.8,Unlimited Time,e,39.80446071743356,40.431999286660066,44.256888447121796,44.7363183796675,44.256888447121796,40.431999286660066,44.7363183796675,39.80446071743356,0,0,0,0,41,41,41,41,41,3.1622776601683795,6.324555320336759,8.366600265340756,10
13,5,0.20819869998376817,q,41.4,Unlimited Time,e,41.386673585215576,43.734139399688175,39.21823353840807,49.215306638330816,39.21823353840807,43.734139399688175,49.215306638330816,41.386673585215576,0,0,0,0,41,41,41,41,41,3.1622776601683795,6.324555320336759,8.366600265340756,10
13,6,0.31821719999425113,q,47.3,Unlimited Time,e,47.26483348492467,47.17430177141229,42.258412665131075,39.15746987491675,42.258412665131075,47.17430177141229,39.15746987491675,47.26483348492467,0,0,0,0,41,41,41,41,41,3.1622776601683795,6.324555320336759,8.366600265340756,10
13,7,0.2429310000152327,q,35.6,Unlimited Time,e,35.59223245889951,37.25211727652672,39.29213562871434,47.948219913684554,39.29213562871434,37.25211727652672,47.948219913684554,35.59223245889951,0,0,0,0,41,41,41,41,41,3.1622776601683795,6.324555320336759,8.366600265340756,10
13,8,0.21494390000589192,q,59.7,Unlimited Time,e,59.73854936048218,46.97391516094591,40.092808731376344,38.57427183764755,40.092808731376344,46.97391516094591,38.57427183764755,59.73854936048218,0,0,0,0,41,41,41,41,41,3.1622776601683795,6.324555320336759,8.366600265340756,10
13,9,0.2881161999539472,q,46.5,Unlimited Time,e,46.53677639889227,46.570896406332125,42.65854263768811,29.92591180459936,42.65854263768811,46.570896406332125,29.92591180459936,46.53677639889227,0,0,0,0,41,41,41,41,41,3.1622776601683795,6.324555320336759,8.366600265340756,10
13,10,0.2950786000001244,q,45.3,Unlimited Time,e,45.259414003892466,33.61417952302206,43.60117263837133,46.05935741947468,43.60117263837133,33.61417952302206,46.05935741947468,45.259414003892466,0,0,0,0,41,41,41,41,41,3.1622776601683795,6.324555320336759,8.366600265340756,10
13,11,0.28360070002963766,q,34.3,Unlimited Time,e,34.28126559703105,49.714252807162254,43.21106169091571,31.3834722428433,43.21106169091571,49.714252807162254,31.3834722428433,34.28126559703105,0,0,0,0,41,41,41,41,41,3.1622776601683795,6.324555320336759,8.366600265340756,10
13,12,0.012418500031344593,o,42.2,Unlimited Time,e,46.23421983558575,47.621885391516514,42.195074661434425,44.404086500128905,42.195074661434425,47.621885391516514,44.404086500128905,46.23421983558575,0,0,0,0,41,41,41,41,41,3.1622776601683795,6.324555320336759,8.366600265340756,10
13,13,0.16564210003707558,w,36.6,Unlimited Time,e,38.923219708663225,36.56748986169723,42.26304027335769,43.09651313018186,42.26304027335769,36.56748986169723,43.09651313018186,38.923219708663225,0,0,0,0,41,41,41,41,41,3.1622776601683795,6.324555320336759,8.366600265340756,10
13,14,0.2612098000245169,w,42.5,Unlimited Time,e,43.82192258700221,42.50501881471378,39.22880203911393,43.892765436046915,39.22880203911393,42.50501881471378,43.892765436046915,43.82192258700221,0,0,0,0,41,41,41,41,41,3.1622776601683795,6.324555320336759,8.366600265340756,10
13,15,0.35628380003618076,w,48.4,Unlimited Time,e,47.14659746017921,48.35516241537346,47.49060101064611,43.99224897107567,47.49060101064611,48.35516241537346,43.99224897107567,47.14659746017921,0,0,0,0,41,41,41,41,41,3.1622776601683795,6.324555320336759,8.366600265340756,10
13,16,0.029072400007862598,w,34.2,Unlimited Time,e,63.31337207961941,34.15668453423551,40.01816181099432,53.22692581493743,40.01816181099432,34.15668453423551,53.22692581493743,63.31337207961941,0,0,0,0,41,41,41,41,41,3.1622776601683795,6.324555320336759,8.366600265340756,10
13,17,0.10237769997911528,w,34.1,Unlimited Time,e,48.65996457511337,34.05194352639389,38.27248494499087,40.42534782871644,38.27248494499087,34.05194352639389,40.42534782871644,48.65996457511337,0,0,0,0,41,41,41,41,41,3.1622776601683795,6.324555320336759,8.366600265340756,10
13,18,0.06893180002225563,p,62.6,Unlimited Time,e,52.3337893108359,52.574817459301094,44.26861626409389,62.59674434734602,44.26861626409389,52.574817459301094,62.59674434734602,52.3337893108359,0,0,0,0,41,41,41,41,41,3.1622776601683795,6.324555320336759,8.366600265340756,10
13,19,0.19413150002947077,p,44.7,Unlimited Time,e,40.85377950358144,32.98760130710329,45.59293700605339,44.670295426185604,45.59293700605339,32.98760130710329,44.670295426185604,40.85377950358144,0,0,0,0,41,41,41,41,41,3.1622776601683795,6.324555320336759,8.366600265340756,10
13,20,0.6088528000400402,p,29.8,Unlimited Time,e,41.44004407642436,43.40906904702041,38.946464255955334,29.825948399657626,38.946464255955334,43.40906904702041,29.825948399657626,41.44004407642436,0,0,0,0,41,41,41,41,41,3.1622776601683795,6.324555320336759,8.366600265340756,10
14,1,0.3678871999727562,w,33.4,Limited Time,i,37.48704916210289,33.36075750186457,64.61282711193077,47.17070094714911,37.48704916210289,33.36075750186457,47.17070094714911,64.61282711193077,-10,-10,10,10,41,31,31,51,51,3.1622776601683795,10,3.1622776601683795,10
14,2,0.25302010000450537,w,26.8,Limited Time,i,28.952310467167273,26.820390929580153,42.585368359986944,51.39534542141923,28.952310467167273,26.820390929580153,51.39534542141923,42.585368359986944,-10,-10,10,10,41,31,31,51,51,3.1622776601683795,10,3.1622776601683795,10
14,3,0.15734070003964007,w,34.0,Limited Time,i,35.10289698898212,34.028621292464244,53.984445278853975,46.0055400822022,35.10289698898212,34.028621292464244,46.0055400822022,53.984445278853975,-10,-10,10,10,41,31,31,51,51,3.1622776601683795,10,3.1622776601683795,10
14,4,0.1313840000075288,w,32.1,Limited Time,i,31.2893189969127,32.13240306888516,42.14901592739028,50.86875230334995,31.2893189969127,32.13240306888516,50.86875230334995,42.14901592739028,-10,-10,10,10,41,31,31,51,51,3.1622776601683795,10,3.1622776601683795,10
14,5,0.15442129998700693,w,53.5,Limited Time,i,29.43739861353112,53.4790716592975,36.269990979276116,55.370892624071686,29.43739861353112,53.4790716592975,55.370892624071686,36.269990979276116,-10,-10,10,10,41,31,31,51,51,3.1622776601683795,10,3.1622776601683795,10
14,6,0.19883789995219558,w,28.4,Limited Time,i,26.40086271276018,28.354705190175764,36.78729176431163,50.470293055065135,26.40086271276018,28.354705190175764,50.470293055065135,36.78729176431163,-10,-10,10,10,41,31,31,51,51,3.1622776601683795,10,3.1622776601683795,10
14,7,0.17404509999323636,w,12.5,Limited Time,i,30.50177815499483,12.49267284208743,66.85900836265175,45.79429695499198,30.50177815499483,12.49267284208743,45.79429695499198,66.85900836265175,-10,-10,10,10,41,31,31,51,51,3.1622776601683795,10,3.1622776601683795,10
14,8,0.15207620000001043,w,24.5,Limited Time,i,33.550468279273,24.539290862601625,40.8930656009492,49.298919392345205,33.550468279273,24.539290862601625,49.298919392345205,40.8930656009492,-10,-10,10,10,41,31,31,51,51,3.1622776601683795,10,3.1622776601683795,10
14,9,0.18433239997830242,w,35.9,Limited Time,i,31.769357135099888,35.88453641423691,43.94652216776652,46.719081678415755,31.769357135099888,35.88453641423691,46.719081678415755,43.94652216776652,-10,-10,10,10,41,31,31,51,51,3.1622776601683795,10,3.1622776601683795,10
14,10,0.18441450002137572,w,13.6,Limited Time,i,32.112360791021146,13.643431673126926,63.23691734731352,45.25056543173311,32.112360791021146,13.643431673126926,45.25056543173311,63.23691734731352,-10,-10,10,10,41,31,31,51,51,3.1622776601683795,10,3.1622776601683795,10
14,11,0.14644270000280812,w,23.7,Limited Time,i,27.503130320826372,23.68462508389908,44.95630585587309,50.82550647030243,27.503130320826372,23.68462508389908,50.82550647030243,44.95630585587309,-10,-10,10,10,41,31,31,51,51,3.1622776601683795,10,3.1622776601683795,10
14,12,0.030846700014080852,q,33.5,Limited Time,i,33.45155841968785,27.48808969427134,41.98363157963311,55.84818022402538,33.45155841968785,27.48808969427134,55.84818022402538,41.98363157963311,-10,-10,10,10,41,31,31,51,51,3.1622776601683795,10,3.1622776601683795,10
14,13,0.23868660000152886,q,27.1,Limited Time,i,27.13770260859765,29.671760954179124,48.58772555410974,52.908086979109235,27.13770260859765,29.671760954179124,52.908086979109235,48.58772555410974,-10,-10,10,10,41,31,31,51,51,3.1622776601683795,10,3.1622776601683795,10
14,14,0.16532959998585284,q,34.0,Limited Time,i,33.95586700477653,48.742340056042146,51.64844582424323,54.50354401735245,33.95586700477653,48.742340056042146,54.50354401735245,51.64844582424323,-10,-10,10,10,41,31,31,51,51,3.1622776601683795,10,3.1622776601683795,10
14,15,0.1483593000448309,q,37.6,Limited Time,i,37.64600692153941,1.454138162871729,33.97904750415173,50.48986660896759,37.64600692153941,1.454138162871729,50.48986660896759,33.97904750415173,-10,-10,10,10,41,31,31,51,51,3.1622776601683795,10,3.1622776601683795,10
14,16,0.14672279998194426,q,27.9,Limited Time,i,27.910632575730425,37.23230310692568,64.14282573545327,50.93929442928056,27.910632575730425,37.23230310692568,50.93929442928056,64.14282573545327,-10,-10,10,10,41,31,31,51,51,3.1622776601683795,10,3.1622776601683795,10
14,17,0.050720500003080815,p,50.3,Limited Time,i,29.356098330451392,25.931371455569362,58.10213166566426,50.278274619612155,29.356098330451392,25.931371455569362,50.278274619612155,58.10213166566426,-10,-10,10,10,41,31,31,51,51,3.1622776601683795,10,3.1622776601683795,10
14,18,0.07611219998216256,p,49.7,Limited Time,i,32.13799768522393,37.47885381306003,45.86932095838199,49.6781341290618,32.13799768522393,37.47885381306003,49.6781341290618,45.86932095838199,-10,-10,10,10,41,31,31,51,51,3.1622776601683795,10,3.1622776601683795,10
14,19,0.10768080002162606,p,47.7,Limited Time,i,26.91913099457844,37.80719262868173,38.93321950968995,47.72579680636025,26.91913099457844,37.80719262868173,47.72579680636025,38.93321950968995,-10,-10,10,10,41,31,31,51,51,3.1622776601683795,10,3.1622776601683795,10
14,20,0.02894899999955669,p,55.6,Limited Time,i,32.987195664080176,35.49028737174238,44.102577287333474,55.628399348507486,32.987195664080176,35.49028737174238,55.628399348507486,44.102577287333474,-10,-10,10,10,41,31,31,51,51,3.1622776601683795,10,3.1622776601683795,10
15,1,0.8027346999733709,p,33.1,Unlimited Time,h,40.49384399089091,33.609794634358,49.12677722143134,33.13407955435981,33.609794634358,49.12677722143134,33.13407955435981,40.49384399089091,-10,-0.33,0.33,10,41,31,40.67,41.33,51,10,10,10,10
15,2,0.09306990000186488,p,42.8,Unlimited Time,h,55.863043348613694,42.16789946505561,38.328362188043414,42.76686235665255,42.16789946505561,38.328362188043414,42.76686235665255,55.863043348613694,-10,-0.33,0.33,10,41,31,40.67,41.33,51,10,10,10,10
15,3,0.06179579999297857,p,42.5,Unlimited Time,h,43.366583245347506,33.47917044220563,38.32694263845046,42.47894935230448,33.47917044220563,38.32694263845046,42.47894935230448,43.366583245347506,-10,-0.33,0.33,10,41,31,40.67,41.33,51,10,10,10,10
15,4,0.036256999999750406,p,38.2,Unlimited Time,h,44.80234196711739,27.80473845918506,41.878758667415234,38.158687094246346,27.80473845918506,41.878758667415234,38.158687094246346,44.80234196711739,-10,-0.33,0.33,10,41,31,40.67,41.33,51,10,10,10,10
15,5,0.005883900041226298,p,33.5,Unlimited Time,h,41.050215821524375,23.965791369369754,36.42037390845817,33.547301388993915,23.965791369369754,36.42037390845817,33.547301388993915,41.050215821524375,-10,-0.33,0.33,10,41,31,40.67,41.33,51,10,10,10,10
15,6,0.31469109997851774,p,61.1,Unlimited Time,h,43.88706832097201,22.141175948702255,41.237136302402256,61.06198766188445,22.141175948702255,41.237136302402256,61.06198766188445,43.88706832097201,-10,-0.33,0.33,10,41,31,40.67,41.33,51,10,10,10,10
15,7,0.22799310000846162,p,50.2,Unlimited Time,h,62.4981399123479,15.915478021159604,49.633109154174804,50.22984365834283,15.915478021159604,49.633109154174804,50.22984365834283,62.4981399123479,-10,-0.33,0.33,10,41,31,40.67,41.33,51,10,10,10,10
15,8,0.3514028000063263,p,56.0,Unlimited Time,h,41.94412745801159,23.298652315885874,49.552167651026124,56.027106918658895,23.298652315885874,49.552167651026124,56.027106918658895,41.94412745801159,-10,-0.33,0.33,10,41,31,40.67,41.33,51,10,10,10,10
15,9,0.42667590000201017,p,56.9,Unlimited Time,h,66.76281875719475,35.07086976358258,61.39871742838203,56.859333167009304,35.07086976358258,61.39871742838203,56.859333167009304,66.76281875719475,-10,-0.33,0.33,10,41,31,40.67,41.33,51,10,10,10,10
15,10,0.08405899995705113,p,56.4,Unlimited Time,h,47.85450393766768,29.403837464653424,23.426834590873998,56.39383923828958,29.403837464653424,23.426834590873998,56.39383923828958,47.85450393766768,-10,-0.33,0.33,10,41,31,40.67,41.33,51,10,10,10,10
15,11,0.09467749996110797,p,44.6,Unlimited Time,h,62.05480464130976,15.256268651958443,50.19184446877844,44.58266637600662,15.256268651958443,50.19184446877844,44.58266637600662,62.05480464130976,-10,-0.33,0.33,10,41,31,40.67,41.33,51,10,10,10,10
15,12,0.06252079998375848,p,41.6,Unlimited Time,h,42.410074212103126,28.216606812309244,54.68234607843964,41.60723232763407,28.216606812309244,54.68234607843964,41.60723232763407,42.410074212103126,-10,-0.33,0.33,10,41,31,40.67,41.33,51,10,10,10,10
15,13,0.35009800002444535,p,44.8,Unlimited Time,h,48.46836940694241,19.23809431163652,34.63277794705179,44.79159996431348,19.23809431163652,34.63277794705179,44.79159996431348,48.46836940694241,-10,-0.33,0.33,10,41,31,40.67,41.33,51,10,10,10,10
15,14,0.02866310003446415,p,32.8,Unlimited Time,h,59.56633747771039,40.042580267631635,33.224847567466654,32.84738160875639,40.042580267631635,33.224847567466654,32.84738160875639,59.56633747771039,-10,-0.33,0.33,10,41,31,40.67,41.33,51,10,10,10,10
15,15,0.3224004000076093,p,40.7,Unlimited Time,h,37.948353170566975,33.1698644339385,61.03767579511671,40.65424694829573,33.1698644339385,61.03767579511671,40.65424694829573,37.948353170566975,-10,-0.33,0.33,10,41,31,40.67,41.33,51,10,10,10,10
15,16,0.19737519999034703,p,43.7,Unlimited Time,h,53.89799184633798,35.26793417474685,51.735767532309296,43.68049409318224,35.26793417474685,51.735767532309296,43.68049409318224,53.89799184633798,-10,-0.33,0.33,10,41,31,40.67,41.33,51,10,10,10,10
15,17,0.31265380000695586,p,31.9,Unlimited Time,h,39.3880075163834,49.03243421085403,38.574043981566106,31.86253620612852,49.03243421085403,38.574043981566106,31.86253620612852,39.3880075163834,-10,-0.33,0.33,10,41,31,40.67,41.33,51,10,10,10,10
15,18,0.31280419998802245,p,49.8,Unlimited Time,h,65.32703993654972,18.695138728069256,37.20344312951661,49.79683706823543,18.695138728069256,37.20344312951661,49.79683706823543,65.32703993654972,-10,-0.33,0.33,10,41,31,40.67,41.33,51,10,10,10,10
15,19,0.026936299982480705,p,26.1,Unlimited Time,h,29.809731617506877,39.90036885844967,43.51514197234941,26.104346487094475,39.90036885844967,43.51514197234941,26.104346487094475,29.809731617506877,-10,-0.33,0.33,10,41,31,40.67,41.33,51,10,10,10,10
15,20,0.3144973000162281,p,46.8,Unlimited Time,h,50.47904385779861,27.110689573334614,50.09354894830715,46.795579387779306,27.110689573334614,50.09354894830715,46.795579387779306,50.47904385779861,-10,-0.33,0.33,10,41,31,40.67,41.33,51,10,10,10,10
16,1,0.21988760004751384,o,37.5,Limited Time,l,38.5071536866139,57.49893772196395,37.49808697594334,33.529924486501656,33.529924486501656,37.49808697594334,38.5071536866139,57.49893772196395,-10,-0.33,0.33,10,41,31,40.67,41.33,51,3.1622776601683795,3.1622776601683795,3.1622776601683795,3.1622776601683795
16,2,0.24860629998147488,o,45.5,Limited Time,l,39.34874352293427,56.07530769503956,45.46233018373196,30.354635988713266,30.354635988713266,45.46233018373196,39.34874352293427,56.07530769503956,-10,-0.33,0.33,10,41,31,40.67,41.33,51,3.1622776601683795,3.1622776601683795,3.1622776601683795,3.1622776601683795
16,3,0.12933550000889227,o,47.6,Limited Time,l,40.96759124286672,43.887752407581324,47.55285787073222,29.91886196082609,29.91886196082609,47.55285787073222,40.96759124286672,43.887752407581324,-10,-0.33,0.33,10,41,31,40.67,41.33,51,3.1622776601683795,3.1622776601683795,3.1622776601683795,3.1622776601683795
16,4,0.083094900008291,o,38.9,Limited Time,l,40.39330108718565,48.03574504773567,38.89144637863719,27.52613014202191,27.52613014202191,38.89144637863719,40.39330108718565,48.03574504773567,-10,-0.33,0.33,10,41,31,40.67,41.33,51,3.1622776601683795,3.1622776601683795,3.1622776601683795,3.1622776601683795
16,5,0.012211600027512759,o,39.5,Limited Time,l,44.2418781129774,47.14044669450965,39.513486829074374,33.413614864838586,33.413614864838586,39.513486829074374,44.2418781129774,47.14044669450965,-10,-0.33,0.33,10,41,31,40.67,41.33,51,3.1622776601683795,3.1622776601683795,3.1622776601683795,3.1622776601683795
16,6,0.2907192999846302,o,39.4,Limited Time,l,44.92472695046715,50.708896746010005,39.3872011108116,25.498676430524352,25.498676430524352,39.3872011108116,44.92472695046715,50.708896746010005,-10,-0.33,0.33,10,41,31,40.67,41.33,51,3.1622776601683795,3.1622776601683795,3.1622776601683795,3.1622776601683795
16,7,0.0339617999852635,o,40.7,Limited Time,l,39.09601908819795,51.512117432497284,40.72496448223195,32.66860893488906,32.66860893488906,40.72496448223195,39.09601908819795,51.512117432497284,-10,-0.33,0.33,10,41,31,40.67,41.33,51,3.1622776601683795,3.1622776601683795,3.1622776601683795,3.1622776601683795
16,8,0.06930500001180917,o,40.4,Limited Time,l,39.56201249538434,51.13898938191142,40.39367133691583,30.034491789883717,30.034491789883717,40.39367133691583,39.56201249538434,51.13898938191142,-10,-0.33,0.33,10,41,31,40.67,41.33,51,3.1622776601683795,3.1622776601683795,3.1622776601683795,3.1622776601683795
16,9,0.12460410001222044,o,41.4,Limited Time,l,33.38457123059065,52.2433231273062,41.431119718001845,30.838722532536128,30.838722532536128,41.431119718001845,33.38457123059065,52.2433231273062,-10,-0.33,0.33,10,41,31,40.67,41.33,51,3.1622776601683795,3.1622776601683795,3.1622776601683795,3.1622776601683795
16,10,0.049499600019771606,p,32.2,Limited Time,l,41.25189072601165,51.13748318603962,39.24502786530681,32.2424979216801,32.2424979216801,39.24502786530681,41.25189072601165,51.13748318603962,-10,-0.33,0.33,10,41,31,40.67,41.33,51,3.1622776601683795,3.1622776601683795,3.1622776601683795,3.1622776601683795
16,11,0.015759000030811876,p,23.0,Limited Time,l,44.3871095512982,53.45333237825785,45.757086002615495,23.014769356448365,23.014769356448365,45.757086002615495,44.3871095512982,53.45333237825785,-10,-0.33,0.33,10,41,31,40.67,41.33,51,3.1622776601683795,3.1622776601683795,3.1622776601683795,3.1622776601683795
16,12,0.09334319998743013,p,29.5,Limited Time,l,40.27389661530348,48.929526190748845,39.98365634688978,29.477369140883443,29.477369140883443,39.98365634688978,40.27389661530348,48.929526190748845,-10,-0.33,0.33,10,41,31,40.67,41.33,51,3.1622776601683795,3.1622776601683795,3.1622776601683795,3.1622776601683795
16,13,0.15460280003026128,o,42.4,Limited Time,l,45.7314652360101,51.724807946131214,42.431701515633804,32.694882277223165,32.694882277223165,42.431701515633804,45.7314652360101,51.724807946131214,-10,-0.33,0.33,10,41,31,40.67,41.33,51,3.1622776601683795,3.1622776601683795,3.1622776601683795,3.1622776601683795
16,14,0.03872320003574714,o,43.9,Limited Time,l,37.248667956568035,55.41640487221256,43.88548547122052,28.36524696874219,28.36524696874219,43.88548547122052,37.248667956568035,55.41640487221256,-10,-0.33,0.33,10,41,31,40.67,41.33,51,3.1622776601683795,3.1622776601683795,3.1622776601683795,3.1622776601683795
16,15,0.08460649999324232,o,45.3,Limited Time,l,44.36700880805076,52.79397339659475,45.332707163261716,35.74621259393804,35.74621259393804,45.332707163261716,44.36700880805076,52.79397339659475,-10,-0.33,0.33,10,41,31,40.67,41.33,51,3.1622776601683795,3.1622776601683795,3.1622776601683795,3.1622776601683795
16,16,0.05454189999727532,o,43.5,Limited Time,l,39.26910763614296,54.57153874473409,43.47862770121272,35.362091200552605,35.362091200552605,43.47862770121272,39.26910763614296,54.57153874473409,-10,-0.33,0.33,10,41,31,40.67,41.33,51,3.1622776601683795,3.1622776601683795,3.1622776601683795,3.1622776601683795
16,17,0.04477539996150881,o,35.7,Limited Time,l,37.6794596128184,49.17547916576647,35.733558927687,25.782950836976596,25.782950836976596,35.733558927687,37.6794596128184,49.17547916576647,-10,-0.33,0.33,10,41,31,40.67,41.33,51,3.1622776601683795,3.1622776601683795,3.1622776601683795,3.1622776601683795
16,18,0.04014100000495091,o,38.1,Limited Time,l,40.68548723800981,51.96324271806052,38.083202025904235,33.43648507643345,33.43648507643345,38.083202025904235,40.68548723800981,51.96324271806052,-10,-0.33,0.33,10,41,31,40.67,41.33,51,3.1622776601683795,3.1622776601683795,3.1622776601683795,3.1622776601683795
16,19,0.27672529994742945,w,51.9,Limited Time,l,39.13343759083095,51.90845602092716,41.42819438476591,30.62844338387761,30.62844338387761,41.42819438476591,39.13343759083095,51.90845602092716,-10,-0.33,0.33,10,41,31,40.67,41.33,51,3.1622776601683795,3.1622776601683795,3.1622776601683795,3.1622776601683795
16,20,0.08366759994532913,w,56.7,Limited Time,l,46.09229563768317,56.66765391177358,39.4429685102306,29.28597191460818,29.28597191460818,39.4429685102306,46.09229563768317,56.66765391177358,-10,-0.33,0.33,10,41,31,40.67,41.33,51,3.1622776601683795,3.1622776601683795,3.1622776601683795,3.1622776601683795
