Round Number,Trial Number,Reaction Time,Choice,Reward,Time Condition,Payoff Condition,Q mapped,W mapped,O mapped,P mapped,One value,Two value,Three value,Four value,One mean,Two mean,Three mean,Four mean,Mean Shift,One shifted mean,Two shifted mean,Three shifted mean,Four shifted mean,One SD,Two SD,Three SD,Four SD
1,1,0.39471289998618886,w,54.3,Unlimited Time,h,51.642857541278566,54.303951395948765,41.794462716830765,41.33787391951462,41.794462716830765,41.33787391951462,54.303951395948765,51.642857541278566,-10,-0.33,0.33,10,59,49,58.67,59.33,69,10,10,10,10
1,2,0.12830310000572354,w,62.1,Unlimited Time,h,57.25022748820419,62.09585857002029,53.14662172184592,66.23009320042549,53.14662172184592,66.23009320042549,62.09585857002029,57.25022748820419,-10,-0.33,0.33,10,59,49,58.67,59.33,69,10,10,10,10
1,3,0.1660109999938868,w,48.0,Unlimited Time,h,68.76372976742314,47.950107570766555,63.528516404444446,61.925186041180915,63.528516404444446,61.925186041180915,47.950107570766555,68.76372976742314,-10,-0.33,0.33,10,59,49,58.67,59.33,69,10,10,10,10
1,4,0.21952709998004138,o,41.9,Unlimited Time,h,64.37418789830923,34.817583204073415,41.89387696501314,56.36524018643628,41.89387696501314,56.36524018643628,34.817583204073415,64.37418789830923,-10,-0.33,0.33,10,59,49,58.67,59.33,69,10,10,10,10
1,5,0.12832409999100491,p,57.2,Unlimited Time,h,63.13292150051083,62.93024891334498,55.02814107035121,57.219014337153766,55.02814107035121,57.219014337153766,62.93024891334498,63.13292150051083,-10,-0.33,0.33,10,59,49,58.67,59.33,69,10,10,10,10
1,6,0.015286999987438321,p,66.4,Unlimited Time,h,61.354354786268495,48.16192212008554,50.41458536393521,66.36817142910137,50.41458536393521,66.36817142910137,48.16192212008554,61.354354786268495,-10,-0.33,0.33,10,59,49,58.67,59.33,69,10,10,10,10
1,7,0.019391699985135347,p,57.1,Unlimited Time,h,79.90251567006266,58.49606476994443,68.47443195580415,57.107529618783026,68.47443195580415,57.107529618783026,58.49606476994443,79.90251567006266,-10,-0.33,0.33,10,59,49,58.67,59.33,69,10,10,10,10
1,8,0.019605199981015176,p,49.1,Unlimited Time,h,71.57549464402058,59.859157957619544,41.78750166761636,49.14313726106497,41.78750166761636,49.14313726106497,59.859157957619544,71.57549464402058,-10,-0.33,0.33,10,59,49,58.67,59.33,69,10,10,10,10
1,9,0.10778900003060699,p,40.5,Unlimited Time,h,64.97337434174328,55.43122555887077,49.93935461495365,40.46040916073647,49.93935461495365,40.46040916073647,55.43122555887077,64.97337434174328,-10,-0.33,0.33,10,59,49,58.67,59.33,69,10,10,10,10
1,10,0.24928720004390925,p,56.0,Unlimited Time,h,72.9092788274607,71.45628375054883,58.34420281522931,55.95396868714501,58.34420281522931,55.95396868714501,71.45628375054883,72.9092788274607,-10,-0.33,0.33,10,59,49,58.67,59.33,69,10,10,10,10
1,11,0.11969970003701746,q,69.4,Unlimited Time,h,69.3540627164504,59.514726319632466,36.90557016809348,49.12360363885104,36.90557016809348,49.12360363885104,59.514726319632466,69.3540627164504,-10,-0.33,0.33,10,59,49,58.67,59.33,69,10,10,10,10
1,12,0.04530009999871254,q,76.5,Unlimited Time,h,76.51200581453435,59.443169676761656,54.822850283313414,42.67340426648892,54.822850283313414,42.67340426648892,59.443169676761656,76.51200581453435,-10,-0.33,0.33,10,59,49,58.67,59.33,69,10,10,10,10
1,13,0.19090380001580343,w,81.2,Unlimited Time,h,93.31325302846112,81.16353743097721,46.4937299839871,58.06256980341119,46.4937299839871,58.06256980341119,81.16353743097721,93.31325302846112,-10,-0.33,0.33,10,59,49,58.67,59.33,69,10,10,10,10
1,14,0.03675829997519031,w,71.2,Unlimited Time,h,57.71223471698592,71.23724760292713,39.75870458977254,56.81774815994039,39.75870458977254,56.81774815994039,71.23724760292713,57.71223471698592,-10,-0.33,0.33,10,59,49,58.67,59.33,69,10,10,10,10
1,15,0.007057900016661733,w,62.8,Unlimited Time,h,63.60666413588211,62.75980977895112,58.85259710038781,66.14260224606929,58.85259710038781,66.14260224606929,62.75980977895112,63.60666413588211,-10,-0.33,0.33,10,59,49,58.67,59.33,69,10,10,10,10
1,16,0.0246735000400804,w,67.4,Unlimited Time,h,64.91045489336732,67.42845904356965,54.81399339610578,57.26732323681272,54.81399339610578,57.26732323681272,67.42845904356965,64.91045489336732,-10,-0.33,0.33,10,59,49,58.67,59.33,69,10,10,10,10
1,17,0.6830321999732405,w,52.7,Unlimited Time,h,88.00830850916479,52.68976173840481,45.10756055543178,64.42770925357311,45.10756055543178,64.42770925357311,52.68976173840481,88.00830850916479,-10,-0.33,0.33,10,59,49,58.67,59.33,69,10,10,10,10
1,18,0.19566949998261407,w,56.3,Unlimited Time,h,66.09669189274054,56.253542219916454,47.578362011819685,65.45456447608962,47.578362011819685,65.45456447608962,56.253542219916454,66.09669189274054,-10,-0.33,0.33,10,59,49,58.67,59.33,69,10,10,10,10
1,19,0.1410219999961555,w,74.3,Unlimited Time,h,57.878771326660114,74.30275447615078,63.582445118632194,67.38081942066415,63.582445118632194,67.38081942066415,74.30275447615078,57.878771326660114,-10,-0.33,0.33,10,59,49,58.67,59.33,69,10,10,10,10
1,20,0.23820070002693683,q,64.9,Unlimited Time,h,64.92784524088248,44.509093395500884,47.191381876817765,51.35237862417061,47.191381876817765,51.35237862417061,44.509093395500884,64.92784524088248,-10,-0.33,0.33,10,59,49,58.67,59.33,69,10,10,10,10
2,1,0.21321280003758147,w,54.3,Limited Time,h,51.642857541278566,54.303951395948765,41.33787391951462,41.794462716830765,41.794462716830765,41.33787391951462,54.303951395948765,51.642857541278566,-10,-0.33,0.33,10,59,49,58.67,59.33,69,10,10,10,10
2,2,0.11373380001168698,w,62.1,Limited Time,h,57.25022748820419,62.09585857002029,66.23009320042549,53.14662172184592,53.14662172184592,66.23009320042549,62.09585857002029,57.25022748820419,-10,-0.33,0.33,10,59,49,58.67,59.33,69,10,10,10,10
2,3,0.11435379995964468,w,48.0,Limited Time,h,68.76372976742314,47.950107570766555,61.925186041180915,63.528516404444446,63.528516404444446,61.925186041180915,47.950107570766555,68.76372976742314,-10,-0.33,0.33,10,59,49,58.67,59.33,69,10,10,10,10
2,4,0.06405419996008277,w,34.8,Limited Time,h,64.37418789830923,34.817583204073415,56.36524018643628,41.89387696501314,41.89387696501314,56.36524018643628,34.817583204073415,64.37418789830923,-10,-0.33,0.33,10,59,49,58.67,59.33,69,10,10,10,10
2,5,0.16310900001553819,w,62.9,Limited Time,h,63.13292150051083,62.93024891334498,57.219014337153766,55.02814107035121,55.02814107035121,57.219014337153766,62.93024891334498,63.13292150051083,-10,-0.33,0.33,10,59,49,58.67,59.33,69,10,10,10,10
2,6,0.07522500003688037,w,48.2,Limited Time,h,61.354354786268495,48.16192212008554,66.36817142910137,50.41458536393521,50.41458536393521,66.36817142910137,48.16192212008554,61.354354786268495,-10,-0.33,0.33,10,59,49,58.67,59.33,69,10,10,10,10
2,7,0.08479640004225075,w,58.5,Limited Time,h,79.90251567006266,58.49606476994443,57.107529618783026,68.47443195580415,68.47443195580415,57.107529618783026,58.49606476994443,79.90251567006266,-10,-0.33,0.33,10,59,49,58.67,59.33,69,10,10,10,10
2,8,0.1254781000316143,w,59.9,Limited Time,h,71.57549464402058,59.859157957619544,49.14313726106497,41.78750166761636,41.78750166761636,49.14313726106497,59.859157957619544,71.57549464402058,-10,-0.33,0.33,10,59,49,58.67,59.33,69,10,10,10,10
2,9,0.1340677000116557,w,55.4,Limited Time,h,64.97337434174328,55.43122555887077,40.46040916073647,49.93935461495365,49.93935461495365,40.46040916073647,55.43122555887077,64.97337434174328,-10,-0.33,0.33,10,59,49,58.67,59.33,69,10,10,10,10
2,10,0.12626269995234907,q,72.9,Limited Time,h,72.9092788274607,71.45628375054883,55.95396868714501,58.34420281522931,58.34420281522931,55.95396868714501,71.45628375054883,72.9092788274607,-10,-0.33,0.33,10,59,49,58.67,59.33,69,10,10,10,10
2,11,0.07268919999478385,q,69.4,Limited Time,h,69.3540627164504,59.514726319632466,49.12360363885104,36.90557016809348,36.90557016809348,49.12360363885104,59.514726319632466,69.3540627164504,-10,-0.33,0.33,10,59,49,58.67,59.33,69,10,10,10,10
2,12,0.08013580000260845,p,54.8,Limited Time,h,76.51200581453435,59.443169676761656,42.67340426648892,54.822850283313414,54.822850283313414,42.67340426648892,59.443169676761656,76.51200581453435,-10,-0.33,0.33,10,59,49,58.67,59.33,69,10,10,10,10
2,13,0.1378252999857068,p,46.5,Limited Time,h,93.31325302846112,81.16353743097721,58.06256980341119,46.4937299839871,46.4937299839871,58.06256980341119,81.16353743097721,93.31325302846112,-10,-0.33,0.33,10,59,49,58.67,59.33,69,10,10,10,10
2,14,0.017510500038042665,p,39.8,Limited Time,h,57.71223471698592,71.23724760292713,56.81774815994039,39.75870458977254,39.75870458977254,56.81774815994039,71.23724760292713,57.71223471698592,-10,-0.33,0.33,10,59,49,58.67,59.33,69,10,10,10,10
2,15,0.06439450004836544,p,58.9,Limited Time,h,63.60666413588211,62.75980977895112,66.14260224606929,58.85259710038781,58.85259710038781,66.14260224606929,62.75980977895112,63.60666413588211,-10,-0.33,0.33,10,59,49,58.67,59.33,69,10,10,10,10
2,16,0.22612509998725727,w,67.4,Limited Time,h,64.91045489336732,67.42845904356965,57.26732323681272,54.81399339610578,54.81399339610578,57.26732323681272,67.42845904356965,64.91045489336732,-10,-0.33,0.33,10,59,49,58.67,59.33,69,10,10,10,10
2,17,0.04814319999422878,w,52.7,Limited Time,h,88.00830850916479,52.68976173840481,64.42770925357311,45.10756055543178,45.10756055543178,64.42770925357311,52.68976173840481,88.00830850916479,-10,-0.33,0.33,10,59,49,58.67,59.33,69,10,10,10,10
2,18,0.101611599966418,w,56.3,Limited Time,h,66.09669189274054,56.253542219916454,65.45456447608962,47.578362011819685,47.578362011819685,65.45456447608962,56.253542219916454,66.09669189274054,-10,-0.33,0.33,10,59,49,58.67,59.33,69,10,10,10,10
2,19,0.10075079998932779,w,74.3,Limited Time,h,57.878771326660114,74.30275447615078,67.38081942066415,63.582445118632194,63.582445118632194,67.38081942066415,74.30275447615078,57.878771326660114,-10,-0.33,0.33,10,59,49,58.67,59.33,69,10,10,10,10
2,20,0.126854199974332,w,44.5,Limited Time,h,64.92784524088248,44.509093395500884,51.35237862417061,47.191381876817765,47.191381876817765,51.35237862417061,44.509093395500884,64.92784524088248,-10,-0.33,0.33,10,59,49,58.67,59.33,69,10,10,10,10
3,1,0.19288970000343397,w,52.7,Unlimited Time,l,55.191504162463154,52.72104357252365,62.395254657892025,68.0525451696059,52.72104357252365,55.191504162463154,62.395254657892025,68.0525451696059,-10,-0.33,0.33,10,59,49,58.67,59.33,69,3.1622776601683795,3.1622776601683795,3.1622776601683795,3.1622776601683795
3,2,0.03980779997073114,w,53.5,Unlimited Time,l,55.15939111719037,53.47757643775722,59.94570359228255,69.17822041531022,53.47757643775722,55.15939111719037,59.94570359228255,69.17822041531022,-10,-0.33,0.33,10,59,49,58.67,59.33,69,3.1622776601683795,3.1622776601683795,3.1622776601683795,3.1622776601683795
3,3,0.023243100033141673,w,46.8,Unlimited Time,l,59.905172183023616,46.7961182743649,64.19595609105184,71.8682493612521,46.7961182743649,59.905172183023616,64.19595609105184,71.8682493612521,-10,-0.33,0.33,10,59,49,58.67,59.33,69,3.1622776601683795,3.1622776601683795,3.1622776601683795,3.1622776601683795
3,4,0.11088660004315898,o,64.0,Unlimited Time,l,59.03952927074842,48.67570526240884,63.96511502623166,67.3219848922086,48.67570526240884,59.03952927074842,63.96511502623166,67.3219848922086,-10,-0.33,0.33,10,59,49,58.67,59.33,69,3.1622776601683795,3.1622776601683795,3.1622776601683795,3.1622776601683795
3,5,0.03909209999255836,o,59.1,Unlimited Time,l,56.99467710280486,46.027918722336224,59.05434113539333,68.27035557832981,46.027918722336224,56.99467710280486,59.05434113539333,68.27035557832981,-10,-0.33,0.33,10,59,49,58.67,59.33,69,3.1622776601683795,3.1622776601683795,3.1622776601683795,3.1622776601683795
3,6,0.22292289999313653,o,53.7,Unlimited Time,l,58.761341349858384,54.557202654418454,53.65682450005561,64.06058279088067,54.557202654418454,58.761341349858384,53.65682450005561,64.06058279088067,-10,-0.33,0.33,10,59,49,58.67,59.33,69,3.1622776601683795,3.1622776601683795,3.1622776601683795,3.1622776601683795
3,7,0.209410100011155,o,56.7,Unlimited Time,l,60.64617697864781,47.25068828693736,56.65274946816016,72.78422157310975,47.25068828693736,60.64617697864781,56.65274946816016,72.78422157310975,-10,-0.33,0.33,10,59,49,58.67,59.33,69,3.1622776601683795,3.1622776601683795,3.1622776601683795,3.1622776601683795
3,8,0.0402108000125736,o,60.2,Unlimited Time,l,54.29503280974439,54.076430483100516,60.182129544583034,76.17326339720603,54.076430483100516,54.29503280974439,60.182129544583034,76.17326339720603,-10,-0.33,0.33,10,59,49,58.67,59.33,69,3.1622776601683795,3.1622776601683795,3.1622776601683795,3.1622776601683795
3,9,0.19828680000500754,o,63.0,Unlimited Time,l,55.41005409511221,54.2453934406817,63.03200237018497,72.4043262279892,54.2453934406817,55.41005409511221,63.03200237018497,72.4043262279892,-10,-0.33,0.33,10,59,49,58.67,59.33,69,3.1622776601683795,3.1622776601683795,3.1622776601683795,3.1622776601683795
3,10,0.006943699961993843,o,56.7,Unlimited Time,l,59.0979483393413,48.07897048884007,56.692694650474834,65.94277185484484,48.07897048884007,59.0979483393413,56.692694650474834,65.94277185484484,-10,-0.33,0.33,10,59,49,58.67,59.33,69,3.1622776601683795,3.1622776601683795,3.1622776601683795,3.1622776601683795
3,11,0.23612879996653646,p,72.9,Unlimited Time,l,61.139173981453155,49.753076212968274,59.06433880191155,72.87890047818658,49.753076212968274,61.139173981453155,59.06433880191155,72.87890047818658,-10,-0.33,0.33,10,59,49,58.67,59.33,69,3.1622776601683795,3.1622776601683795,3.1622776601683795,3.1622776601683795
3,12,0.1314328999724239,p,73.2,Unlimited Time,l,66.66075331677024,47.441036718668215,63.59718235200542,73.24892285880624,47.441036718668215,66.66075331677024,63.59718235200542,73.24892285880624,-10,-0.33,0.33,10,59,49,58.67,59.33,69,3.1622776601683795,3.1622776601683795,3.1622776601683795,3.1622776601683795
3,13,0.18191099999239668,p,67.3,Unlimited Time,l,60.22587621412442,49.753706469111656,58.85925398442581,67.30077662893073,49.753706469111656,60.22587621412442,58.85925398442581,67.30077662893073,-10,-0.33,0.33,10,59,49,58.67,59.33,69,3.1622776601683795,3.1622776601683795,3.1622776601683795,3.1622776601683795
3,14,0.18180099996970966,p,71.9,Unlimited Time,l,61.65360514567539,51.94407068498999,64.12479854545552,71.93057662840405,51.94407068498999,61.65360514567539,64.12479854545552,71.93057662840405,-10,-0.33,0.33,10,59,49,58.67,59.33,69,3.1622776601683795,3.1622776601683795,3.1622776601683795,3.1622776601683795
3,15,0.019978399970568717,o,57.7,Unlimited Time,l,60.49061959313129,57.50132973220359,57.72371048824486,68.01470392878272,57.50132973220359,60.49061959313129,57.72371048824486,68.01470392878272,-10,-0.33,0.33,10,59,49,58.67,59.33,69,3.1622776601683795,3.1622776601683795,3.1622776601683795,3.1622776601683795
3,16,0.1694852000218816,o,60.5,Unlimited Time,l,62.348713888608856,46.986477809550976,60.52940728067644,72.20739472306184,46.986477809550976,62.348713888608856,60.52940728067644,72.20739472306184,-10,-0.33,0.33,10,59,49,58.67,59.33,69,3.1622776601683795,3.1622776601683795,3.1622776601683795,3.1622776601683795
3,17,0.18182549998164177,w,52.8,Unlimited Time,l,57.33178064730557,52.77402076117748,59.84993405335748,67.24273918742928,52.77402076117748,57.33178064730557,59.84993405335748,67.24273918742928,-10,-0.33,0.33,10,59,49,58.67,59.33,69,3.1622776601683795,3.1622776601683795,3.1622776601683795,3.1622776601683795
3,18,0.0068990999716334045,w,48.5,Unlimited Time,l,58.371435538634145,48.474655624970225,62.026346628454185,66.02481176802715,48.474655624970225,58.371435538634145,62.026346628454185,66.02481176802715,-10,-0.33,0.33,10,59,49,58.67,59.33,69,3.1622776601683795,3.1622776601683795,3.1622776601683795,3.1622776601683795
3,19,0.01118020003195852,w,52.1,Unlimited Time,l,57.04911466607694,52.13841123839305,59.797066460379135,71.36587710385352,52.13841123839305,57.04911466607694,59.797066460379135,71.36587710385352,-10,-0.33,0.33,10,59,49,58.67,59.33,69,3.1622776601683795,3.1622776601683795,3.1622776601683795,3.1622776601683795
3,20,0.21544649999123067,w,45.9,Unlimited Time,l,57.27527967304493,45.91857453537243,57.501229788033136,66.63715645936477,45.91857453537243,57.27527967304493,57.501229788033136,66.63715645936477,-10,-0.33,0.33,10,59,49,58.67,59.33,69,3.1622776601683795,3.1622776601683795,3.1622776601683795,3.1622776601683795
4,1,,,0.0,Limited Time,e,71.32023518052645,58.27614989160028,60.91037539604426,59.651721325842395,58.27614989160028,59.651721325842395,71.32023518052645,60.91037539604426,0,0,0,0,59,59,59,59,59,3.1622776601683795,6.324555320336759,8.366600265340756,10
4,2,0.19157319999067113,o,64.2,Limited Time,e,57.89778727492347,67.12533741226339,64.21804545610577,58.602930293252825,67.12533741226339,58.602930293252825,57.89778727492347,64.21804545610577,0,0,0,0,59,59,59,59,59,3.1622776601683795,6.324555320336759,8.366600265340756,10
4,3,0.14533109997864813,o,50.0,Limited Time,e,63.74151111322465,57.69728287884102,49.95310367544166,51.40432837678287,57.69728287884102,51.40432837678287,63.74151111322465,49.95310367544166,0,0,0,0,59,59,59,59,59,3.1622776601683795,6.324555320336759,8.366600265340756,10
4,4,0.1621879999875091,o,60.0,Limited Time,e,72.41570052846541,59.337830737536414,59.960055395211526,58.60202821581737,59.337830737536414,58.60202821581737,72.41570052846541,59.960055395211526,0,0,0,0,59,59,59,59,59,3.1622776601683795,6.324555320336759,8.366600265340756,10
4,5,0.1368942999979481,o,56.9,Limited Time,e,45.265012730127445,60.904176922827396,56.940161588938594,55.11506987846763,60.904176922827396,55.11506987846763,45.265012730127445,56.940161588938594,0,0,0,0,59,59,59,59,59,3.1622776601683795,6.324555320336759,8.366600265340756,10
4,6,0.09117510000942275,o,71.2,Limited Time,e,56.258295485933935,59.97208712707976,71.19637060599196,58.40750519452424,59.97208712707976,58.40750519452424,56.258295485933935,71.19637060599196,0,0,0,0,59,59,59,59,59,3.1622776601683795,6.324555320336759,8.366600265340756,10
4,7,0.12147170002572238,o,54.5,Limited Time,e,63.89342124080172,60.83829510597368,54.4689256566395,67.0691012270199,60.83829510597368,67.0691012270199,63.89342124080172,54.4689256566395,0,0,0,0,59,59,59,59,59,3.1622776601683795,6.324555320336759,8.366600265340756,10
4,8,0.09139670000877231,o,64.5,Limited Time,e,51.6579523638656,61.65621056711035,64.47448320447066,67.04487643244582,61.65621056711035,67.04487643244582,51.6579523638656,64.47448320447066,0,0,0,0,59,59,59,59,59,3.1622776601683795,6.324555320336759,8.366600265340756,10
4,9,0.15799729997524992,o,55.5,Limited Time,e,62.29010561182151,61.51146826050379,55.472526397157274,70.77528874252344,61.51146826050379,70.77528874252344,62.29010561182151,55.472526397157274,0,0,0,0,59,59,59,59,59,3.1622776601683795,6.324555320336759,8.366600265340756,10
4,10,0.1466058000223711,o,72.9,Limited Time,e,65.96350476702519,58.07904136060176,72.88761387672903,63.720145673764584,58.07904136060176,63.720145673764584,65.96350476702519,72.88761387672903,0,0,0,0,59,59,59,59,59,3.1622776601683795,6.324555320336759,8.366600265340756,10
4,11,0.12378669995814562,o,62.3,Limited Time,e,61.00233972236648,56.31236009962641,62.27550346866825,59.523678546943316,56.31236009962641,59.523678546943316,61.00233972236648,62.27550346866825,0,0,0,0,59,59,59,59,59,3.1622776601683795,6.324555320336759,8.366600265340756,10
4,12,0.13308890000917017,o,50.4,Limited Time,e,58.57897054449307,53.365304293450066,50.384330347462594,78.22287259758414,53.365304293450066,78.22287259758414,58.57897054449307,50.384330347462594,0,0,0,0,59,59,59,59,59,3.1622776601683795,6.324555320336759,8.366600265340756,10
4,13,0.16669489996274933,o,68.3,Limited Time,e,43.53097321727467,56.70020702066224,68.32511449041297,55.98916521976924,56.70020702066224,55.98916521976924,43.53097321727467,68.32511449041297,0,0,0,0,59,59,59,59,59,3.1622776601683795,6.324555320336759,8.366600265340756,10
4,14,0.12992730003315955,o,42.9,Limited Time,e,62.96561272412513,64.69933913457272,42.90859123502884,56.83879091636831,64.69933913457272,56.83879091636831,62.96561272412513,42.90859123502884,0,0,0,0,59,59,59,59,59,3.1622776601683795,6.324555320336759,8.366600265340756,10
4,15,0.12560969998594373,o,48.3,Limited Time,e,56.356011233746756,63.79406729379978,48.304370953446764,57.57478008256283,63.79406729379978,57.57478008256283,56.356011233746756,48.304370953446764,0,0,0,0,59,59,59,59,59,3.1622776601683795,6.324555320336759,8.366600265340756,10
4,16,0.15871320001315325,o,53.4,Limited Time,e,57.42693939151535,59.36641502614605,53.42674164589255,62.17198576128736,59.36641502614605,62.17198576128736,57.42693939151535,53.42674164589255,0,0,0,0,59,59,59,59,59,3.1622776601683795,6.324555320336759,8.366600265340756,10
4,17,0.09710610000183806,o,37.7,Limited Time,e,50.39044313059102,57.62618296927859,37.65693505219578,60.785569173291314,57.62618296927859,60.785569173291314,50.39044313059102,37.65693505219578,0,0,0,0,59,59,59,59,59,3.1622776601683795,6.324555320336759,8.366600265340756,10
4,18,0.16417909995652735,o,47.0,Limited Time,e,59.856713975332994,60.36093471417682,46.99380621531407,49.96550828513956,60.36093471417682,49.96550828513956,59.856713975332994,46.99380621531407,0,0,0,0,59,59,59,59,59,3.1622776601683795,6.324555320336759,8.366600265340756,10
4,19,0.11210500000743195,o,62.9,Limited Time,e,54.32809984071751,61.58597962179453,62.85333641982376,58.9868118800525,61.58597962179453,58.9868118800525,54.32809984071751,62.85333641982376,0,0,0,0,59,59,59,59,59,3.1622776601683795,6.324555320336759,8.366600265340756,10
4,20,0.13845170004060492,o,55.1,Limited Time,e,51.820379964788515,60.541994072326915,55.14419442693544,55.83936931045873,60.541994072326915,55.83936931045873,51.820379964788515,55.14419442693544,0,0,0,0,59,59,59,59,59,3.1622776601683795,6.324555320336759,8.366600265340756,10
5,1,0.3473857999779284,o,55.2,Unlimited Time,l,52.72104357252365,62.395254657892025,55.191504162463154,68.0525451696059,52.72104357252365,55.191504162463154,62.395254657892025,68.0525451696059,-10,-0.33,0.33,10,59,49,58.67,59.33,69,3.1622776601683795,3.1622776601683795,3.1622776601683795,3.1622776601683795
5,2,0.13010120001854375,p,69.2,Unlimited Time,l,53.47757643775722,59.94570359228255,55.15939111719037,69.17822041531022,53.47757643775722,55.15939111719037,59.94570359228255,69.17822041531022,-10,-0.33,0.33,10,59,49,58.67,59.33,69,3.1622776601683795,3.1622776601683795,3.1622776601683795,3.1622776601683795
5,3,0.11668320000171661,p,71.9,Unlimited Time,l,46.7961182743649,64.19595609105184,59.905172183023616,71.8682493612521,46.7961182743649,59.905172183023616,64.19595609105184,71.8682493612521,-10,-0.33,0.33,10,59,49,58.67,59.33,69,3.1622776601683795,3.1622776601683795,3.1622776601683795,3.1622776601683795
5,4,0.09244909998960793,p,67.3,Unlimited Time,l,48.67570526240884,63.96511502623166,59.03952927074842,67.3219848922086,48.67570526240884,59.03952927074842,63.96511502623166,67.3219848922086,-10,-0.33,0.33,10,59,49,58.67,59.33,69,3.1622776601683795,3.1622776601683795,3.1622776601683795,3.1622776601683795
5,5,0.12618969997856766,p,68.3,Unlimited Time,l,46.027918722336224,59.05434113539333,56.99467710280486,68.27035557832981,46.027918722336224,56.99467710280486,59.05434113539333,68.27035557832981,-10,-0.33,0.33,10,59,49,58.67,59.33,69,3.1622776601683795,3.1622776601683795,3.1622776601683795,3.1622776601683795
5,6,0.11361119995126501,p,64.1,Unlimited Time,l,54.557202654418454,53.65682450005561,58.761341349858384,64.06058279088067,54.557202654418454,58.761341349858384,53.65682450005561,64.06058279088067,-10,-0.33,0.33,10,59,49,58.67,59.33,69,3.1622776601683795,3.1622776601683795,3.1622776601683795,3.1622776601683795
5,7,0.15558379999129102,p,72.8,Unlimited Time,l,47.25068828693736,56.65274946816016,60.64617697864781,72.78422157310975,47.25068828693736,60.64617697864781,56.65274946816016,72.78422157310975,-10,-0.33,0.33,10,59,49,58.67,59.33,69,3.1622776601683795,3.1622776601683795,3.1622776601683795,3.1622776601683795
5,8,0.07194759999401867,p,76.2,Unlimited Time,l,54.076430483100516,60.182129544583034,54.29503280974439,76.17326339720603,54.076430483100516,54.29503280974439,60.182129544583034,76.17326339720603,-10,-0.33,0.33,10,59,49,58.67,59.33,69,3.1622776601683795,3.1622776601683795,3.1622776601683795,3.1622776601683795
5,9,0.12213259999407455,p,72.4,Unlimited Time,l,54.2453934406817,63.03200237018497,55.41005409511221,72.4043262279892,54.2453934406817,55.41005409511221,63.03200237018497,72.4043262279892,-10,-0.33,0.33,10,59,49,58.67,59.33,69,3.1622776601683795,3.1622776601683795,3.1622776601683795,3.1622776601683795
5,10,0.10965869994834065,p,65.9,Unlimited Time,l,48.07897048884007,56.692694650474834,59.0979483393413,65.94277185484484,48.07897048884007,59.0979483393413,56.692694650474834,65.94277185484484,-10,-0.33,0.33,10,59,49,58.67,59.33,69,3.1622776601683795,3.1622776601683795,3.1622776601683795,3.1622776601683795
5,11,0.01426769996760413,p,72.9,Unlimited Time,l,49.753076212968274,59.06433880191155,61.139173981453155,72.87890047818658,49.753076212968274,61.139173981453155,59.06433880191155,72.87890047818658,-10,-0.33,0.33,10,59,49,58.67,59.33,69,3.1622776601683795,3.1622776601683795,3.1622776601683795,3.1622776601683795
5,12,0.1425595000036992,p,73.2,Unlimited Time,l,47.441036718668215,63.59718235200542,66.66075331677024,73.24892285880624,47.441036718668215,66.66075331677024,63.59718235200542,73.24892285880624,-10,-0.33,0.33,10,59,49,58.67,59.33,69,3.1622776601683795,3.1622776601683795,3.1622776601683795,3.1622776601683795
5,13,0.12953830003971234,p,67.3,Unlimited Time,l,49.753706469111656,58.85925398442581,60.22587621412442,67.30077662893073,49.753706469111656,60.22587621412442,58.85925398442581,67.30077662893073,-10,-0.33,0.33,10,59,49,58.67,59.33,69,3.1622776601683795,3.1622776601683795,3.1622776601683795,3.1622776601683795
5,14,0.1265241999644786,p,71.9,Unlimited Time,l,51.94407068498999,64.12479854545552,61.65360514567539,71.93057662840405,51.94407068498999,61.65360514567539,64.12479854545552,71.93057662840405,-10,-0.33,0.33,10,59,49,58.67,59.33,69,3.1622776601683795,3.1622776601683795,3.1622776601683795,3.1622776601683795
5,15,0.20696979999775067,p,68.0,Unlimited Time,l,57.50132973220359,57.72371048824486,60.49061959313129,68.01470392878272,57.50132973220359,60.49061959313129,57.72371048824486,68.01470392878272,-10,-0.33,0.33,10,59,49,58.67,59.33,69,3.1622776601683795,3.1622776601683795,3.1622776601683795,3.1622776601683795
5,16,0.14786619995720685,w,60.5,Unlimited Time,l,46.986477809550976,60.52940728067644,62.348713888608856,72.20739472306184,46.986477809550976,62.348713888608856,60.52940728067644,72.20739472306184,-10,-0.33,0.33,10,59,49,58.67,59.33,69,3.1622776601683795,3.1622776601683795,3.1622776601683795,3.1622776601683795
5,17,0.21805359999416396,w,59.8,Unlimited Time,l,52.77402076117748,59.84993405335748,57.33178064730557,67.24273918742928,52.77402076117748,57.33178064730557,59.84993405335748,67.24273918742928,-10,-0.33,0.33,10,59,49,58.67,59.33,69,3.1622776601683795,3.1622776601683795,3.1622776601683795,3.1622776601683795
5,18,0.05639570002676919,w,62.0,Unlimited Time,l,48.474655624970225,62.026346628454185,58.371435538634145,66.02481176802715,48.474655624970225,58.371435538634145,62.026346628454185,66.02481176802715,-10,-0.33,0.33,10,59,49,58.67,59.33,69,3.1622776601683795,3.1622776601683795,3.1622776601683795,3.1622776601683795
5,19,0.23595649999333546,w,59.8,Unlimited Time,l,52.13841123839305,59.797066460379135,57.04911466607694,71.36587710385352,52.13841123839305,57.04911466607694,59.797066460379135,71.36587710385352,-10,-0.33,0.33,10,59,49,58.67,59.33,69,3.1622776601683795,3.1622776601683795,3.1622776601683795,3.1622776601683795
5,20,0.2566131000057794,q,45.9,Unlimited Time,l,45.91857453537243,57.501229788033136,57.27527967304493,66.63715645936477,45.91857453537243,57.27527967304493,57.501229788033136,66.63715645936477,-10,-0.33,0.33,10,59,49,58.67,59.33,69,3.1622776601683795,3.1622776601683795,3.1622776601683795,3.1622776601683795
6,1,0.31834779999917373,o,55.2,Limited Time,l,52.72104357252365,62.395254657892025,55.191504162463154,68.0525451696059,52.72104357252365,55.191504162463154,62.395254657892025,68.0525451696059,-10,-0.33,0.33,10,59,49,58.67,59.33,69,3.1622776601683795,3.1622776601683795,3.1622776601683795,3.1622776601683795
6,2,0.08971930004190654,o,55.2,Limited Time,l,53.47757643775722,59.94570359228255,55.15939111719037,69.17822041531022,53.47757643775722,55.15939111719037,59.94570359228255,69.17822041531022,-10,-0.33,0.33,10,59,49,58.67,59.33,69,3.1622776601683795,3.1622776601683795,3.1622776601683795,3.1622776601683795
6,3,0.09372530004475266,o,59.9,Limited Time,l,46.7961182743649,64.19595609105184,59.905172183023616,71.8682493612521,46.7961182743649,59.905172183023616,64.19595609105184,71.8682493612521,-10,-0.33,0.33,10,59,49,58.67,59.33,69,3.1622776601683795,3.1622776601683795,3.1622776601683795,3.1622776601683795
6,4,0.08540709997760132,o,59.0,Limited Time,l,48.67570526240884,63.96511502623166,59.03952927074842,67.3219848922086,48.67570526240884,59.03952927074842,63.96511502623166,67.3219848922086,-10,-0.33,0.33,10,59,49,58.67,59.33,69,3.1622776601683795,3.1622776601683795,3.1622776601683795,3.1622776601683795
6,5,0.12767599994549528,p,68.3,Limited Time,l,46.027918722336224,59.05434113539333,56.99467710280486,68.27035557832981,46.027918722336224,56.99467710280486,59.05434113539333,68.27035557832981,-10,-0.33,0.33,10,59,49,58.67,59.33,69,3.1622776601683795,3.1622776601683795,3.1622776601683795,3.1622776601683795
6,6,0.060755199985578656,p,64.1,Limited Time,l,54.557202654418454,53.65682450005561,58.761341349858384,64.06058279088067,54.557202654418454,58.761341349858384,53.65682450005561,64.06058279088067,-10,-0.33,0.33,10,59,49,58.67,59.33,69,3.1622776601683795,3.1622776601683795,3.1622776601683795,3.1622776601683795
6,7,0.09847239998634905,p,72.8,Limited Time,l,47.25068828693736,56.65274946816016,60.64617697864781,72.78422157310975,47.25068828693736,60.64617697864781,56.65274946816016,72.78422157310975,-10,-0.33,0.33,10,59,49,58.67,59.33,69,3.1622776601683795,3.1622776601683795,3.1622776601683795,3.1622776601683795
6,8,0.09003950003534555,p,76.2,Limited Time,l,54.076430483100516,60.182129544583034,54.29503280974439,76.17326339720603,54.076430483100516,54.29503280974439,60.182129544583034,76.17326339720603,-10,-0.33,0.33,10,59,49,58.67,59.33,69,3.1622776601683795,3.1622776601683795,3.1622776601683795,3.1622776601683795
6,9,0.0820536999963224,p,72.4,Limited Time,l,54.2453934406817,63.03200237018497,55.41005409511221,72.4043262279892,54.2453934406817,55.41005409511221,63.03200237018497,72.4043262279892,-10,-0.33,0.33,10,59,49,58.67,59.33,69,3.1622776601683795,3.1622776601683795,3.1622776601683795,3.1622776601683795
6,10,0.07788359996629879,p,65.9,Limited Time,l,48.07897048884007,56.692694650474834,59.0979483393413,65.94277185484484,48.07897048884007,59.0979483393413,56.692694650474834,65.94277185484484,-10,-0.33,0.33,10,59,49,58.67,59.33,69,3.1622776601683795,3.1622776601683795,3.1622776601683795,3.1622776601683795
6,11,0.06149379996350035,p,72.9,Limited Time,l,49.753076212968274,59.06433880191155,61.139173981453155,72.87890047818658,49.753076212968274,61.139173981453155,59.06433880191155,72.87890047818658,-10,-0.33,0.33,10,59,49,58.67,59.33,69,3.1622776601683795,3.1622776601683795,3.1622776601683795,3.1622776601683795
6,12,0.0109713000128977,w,63.6,Limited Time,l,47.441036718668215,63.59718235200542,66.66075331677024,73.24892285880624,47.441036718668215,66.66075331677024,63.59718235200542,73.24892285880624,-10,-0.33,0.33,10,59,49,58.67,59.33,69,3.1622776601683795,3.1622776601683795,3.1622776601683795,3.1622776601683795
6,13,0.2118144000414759,w,58.9,Limited Time,l,49.753706469111656,58.85925398442581,60.22587621412442,67.30077662893073,49.753706469111656,60.22587621412442,58.85925398442581,67.30077662893073,-10,-0.33,0.33,10,59,49,58.67,59.33,69,3.1622776601683795,3.1622776601683795,3.1622776601683795,3.1622776601683795
6,14,0.14932430000044405,w,64.1,Limited Time,l,51.94407068498999,64.12479854545552,61.65360514567539,71.93057662840405,51.94407068498999,61.65360514567539,64.12479854545552,71.93057662840405,-10,-0.33,0.33,10,59,49,58.67,59.33,69,3.1622776601683795,3.1622776601683795,3.1622776601683795,3.1622776601683795
6,15,0.17835349997039884,w,57.7,Limited Time,l,57.50132973220359,57.72371048824486,60.49061959313129,68.01470392878272,57.50132973220359,60.49061959313129,57.72371048824486,68.01470392878272,-10,-0.33,0.33,10,59,49,58.67,59.33,69,3.1622776601683795,3.1622776601683795,3.1622776601683795,3.1622776601683795
6,16,0.050056900014169514,q,47.0,Limited Time,l,46.986477809550976,60.52940728067644,62.348713888608856,72.20739472306184,46.986477809550976,62.348713888608856,60.52940728067644,72.20739472306184,-10,-0.33,0.33,10,59,49,58.67,59.33,69,3.1622776601683795,3.1622776601683795,3.1622776601683795,3.1622776601683795
6,17,0.2162529999623075,q,52.8,Limited Time,l,52.77402076117748,59.84993405335748,57.33178064730557,67.24273918742928,52.77402076117748,57.33178064730557,59.84993405335748,67.24273918742928,-10,-0.33,0.33,10,59,49,58.67,59.33,69,3.1622776601683795,3.1622776601683795,3.1622776601683795,3.1622776601683795
6,18,0.16668109997408465,o,58.4,Limited Time,l,48.474655624970225,62.026346628454185,58.371435538634145,66.02481176802715,48.474655624970225,58.371435538634145,62.026346628454185,66.02481176802715,-10,-0.33,0.33,10,59,49,58.67,59.33,69,3.1622776601683795,3.1622776601683795,3.1622776601683795,3.1622776601683795
6,19,0.07857090001925826,o,57.0,Limited Time,l,52.13841123839305,59.797066460379135,57.04911466607694,71.36587710385352,52.13841123839305,57.04911466607694,59.797066460379135,71.36587710385352,-10,-0.33,0.33,10,59,49,58.67,59.33,69,3.1622776601683795,3.1622776601683795,3.1622776601683795,3.1622776601683795
6,20,0.11117669998202473,p,66.6,Limited Time,l,45.91857453537243,57.501229788033136,57.27527967304493,66.63715645936477,45.91857453537243,57.27527967304493,57.501229788033136,66.63715645936477,-10,-0.33,0.33,10,59,49,58.67,59.33,69,3.1622776601683795,3.1622776601683795,3.1622776601683795,3.1622776601683795
7,1,0.2910727999988012,o,59.7,Unlimited Time,e,60.91037539604426,71.32023518052645,59.651721325842395,58.27614989160028,58.27614989160028,59.651721325842395,71.32023518052645,60.91037539604426,0,0,0,0,59,59,59,59,59,3.1622776601683795,6.324555320336759,8.366600265340756,10
7,2,0.1498707999708131,o,58.6,Unlimited Time,e,64.21804545610577,57.89778727492347,58.602930293252825,67.12533741226339,67.12533741226339,58.602930293252825,57.89778727492347,64.21804545610577,0,0,0,0,59,59,59,59,59,3.1622776601683795,6.324555320336759,8.366600265340756,10
7,3,0.11639659997308627,o,51.4,Unlimited Time,e,49.95310367544166,63.74151111322465,51.40432837678287,57.69728287884102,57.69728287884102,51.40432837678287,63.74151111322465,49.95310367544166,0,0,0,0,59,59,59,59,59,3.1622776601683795,6.324555320336759,8.366600265340756,10
7,4,0.12204510002629831,o,58.6,Unlimited Time,e,59.960055395211526,72.41570052846541,58.60202821581737,59.337830737536414,59.337830737536414,58.60202821581737,72.41570052846541,59.960055395211526,0,0,0,0,59,59,59,59,59,3.1622776601683795,6.324555320336759,8.366600265340756,10
7,5,0.12129679997451603,o,55.1,Unlimited Time,e,56.940161588938594,45.265012730127445,55.11506987846763,60.904176922827396,60.904176922827396,55.11506987846763,45.265012730127445,56.940161588938594,0,0,0,0,59,59,59,59,59,3.1622776601683795,6.324555320336759,8.366600265340756,10
7,6,0.13367239997023717,o,58.4,Unlimited Time,e,71.19637060599196,56.258295485933935,58.40750519452424,59.97208712707976,59.97208712707976,58.40750519452424,56.258295485933935,71.19637060599196,0,0,0,0,59,59,59,59,59,3.1622776601683795,6.324555320336759,8.366600265340756,10
7,7,0.13385360001120716,o,67.1,Unlimited Time,e,54.4689256566395,63.89342124080172,67.0691012270199,60.83829510597368,60.83829510597368,67.0691012270199,63.89342124080172,54.4689256566395,0,0,0,0,59,59,59,59,59,3.1622776601683795,6.324555320336759,8.366600265340756,10
7,8,0.14703060005558655,o,67.0,Unlimited Time,e,64.47448320447066,51.6579523638656,67.04487643244582,61.65621056711035,61.65621056711035,67.04487643244582,51.6579523638656,64.47448320447066,0,0,0,0,59,59,59,59,59,3.1622776601683795,6.324555320336759,8.366600265340756,10
7,9,0.1550326999858953,p,61.5,Unlimited Time,e,55.472526397157274,62.29010561182151,70.77528874252344,61.51146826050379,61.51146826050379,70.77528874252344,62.29010561182151,55.472526397157274,0,0,0,0,59,59,59,59,59,3.1622776601683795,6.324555320336759,8.366600265340756,10
7,10,0.10923619999084622,p,58.1,Unlimited Time,e,72.88761387672903,65.96350476702519,63.720145673764584,58.07904136060176,58.07904136060176,63.720145673764584,65.96350476702519,72.88761387672903,0,0,0,0,59,59,59,59,59,3.1622776601683795,6.324555320336759,8.366600265340756,10
7,11,0.16337060002842918,p,56.3,Unlimited Time,e,62.27550346866825,61.00233972236648,59.523678546943316,56.31236009962641,56.31236009962641,59.523678546943316,61.00233972236648,62.27550346866825,0,0,0,0,59,59,59,59,59,3.1622776601683795,6.324555320336759,8.366600265340756,10
7,12,0.11208449996775016,p,53.4,Unlimited Time,e,50.384330347462594,58.57897054449307,78.22287259758414,53.365304293450066,53.365304293450066,78.22287259758414,58.57897054449307,50.384330347462594,0,0,0,0,59,59,59,59,59,3.1622776601683795,6.324555320336759,8.366600265340756,10
7,13,0.07452279998688027,p,56.7,Unlimited Time,e,68.32511449041297,43.53097321727467,55.98916521976924,56.70020702066224,56.70020702066224,55.98916521976924,43.53097321727467,68.32511449041297,0,0,0,0,59,59,59,59,59,3.1622776601683795,6.324555320336759,8.366600265340756,10
7,14,0.08384069998282939,p,64.7,Unlimited Time,e,42.90859123502884,62.96561272412513,56.83879091636831,64.69933913457272,64.69933913457272,56.83879091636831,62.96561272412513,42.90859123502884,0,0,0,0,59,59,59,59,59,3.1622776601683795,6.324555320336759,8.366600265340756,10
7,15,0.029712899995502084,w,56.4,Unlimited Time,e,48.304370953446764,56.356011233746756,57.57478008256283,63.79406729379978,63.79406729379978,57.57478008256283,56.356011233746756,48.304370953446764,0,0,0,0,59,59,59,59,59,3.1622776601683795,6.324555320336759,8.366600265340756,10
7,16,0.004716299998108298,w,57.4,Unlimited Time,e,53.42674164589255,57.42693939151535,62.17198576128736,59.36641502614605,59.36641502614605,62.17198576128736,57.42693939151535,53.42674164589255,0,0,0,0,59,59,59,59,59,3.1622776601683795,6.324555320336759,8.366600265340756,10
7,17,0.1658678999519907,w,50.4,Unlimited Time,e,37.65693505219578,50.39044313059102,60.785569173291314,57.62618296927859,57.62618296927859,60.785569173291314,50.39044313059102,37.65693505219578,0,0,0,0,59,59,59,59,59,3.1622776601683795,6.324555320336759,8.366600265340756,10
7,18,0.2784152000094764,w,59.9,Unlimited Time,e,46.99380621531407,59.856713975332994,49.96550828513956,60.36093471417682,60.36093471417682,49.96550828513956,59.856713975332994,46.99380621531407,0,0,0,0,59,59,59,59,59,3.1622776601683795,6.324555320336759,8.366600265340756,10
7,19,0.28913160000229254,w,54.3,Unlimited Time,e,62.85333641982376,54.32809984071751,58.9868118800525,61.58597962179453,61.58597962179453,58.9868118800525,54.32809984071751,62.85333641982376,0,0,0,0,59,59,59,59,59,3.1622776601683795,6.324555320336759,8.366600265340756,10
7,20,0.25554680003551766,q,55.1,Unlimited Time,e,55.14419442693544,51.820379964788515,55.83936931045873,60.541994072326915,60.541994072326915,55.83936931045873,51.820379964788515,55.14419442693544,0,0,0,0,59,59,59,59,59,3.1622776601683795,6.324555320336759,8.366600265340756,10
8,1,,,0.0,Limited Time,l,68.0525451696059,55.191504162463154,52.72104357252365,62.395254657892025,52.72104357252365,55.191504162463154,62.395254657892025,68.0525451696059,-10,-0.33,0.33,10,59,49,58.67,59.33,69,3.1622776601683795,3.1622776601683795,3.1622776601683795,3.1622776601683795
8,2,0.04764669999713078,o,53.5,Limited Time,l,69.17822041531022,55.15939111719037,53.47757643775722,59.94570359228255,53.47757643775722,55.15939111719037,59.94570359228255,69.17822041531022,-10,-0.33,0.33,10,59,49,58.67,59.33,69,3.1622776601683795,3.1622776601683795,3.1622776601683795,3.1622776601683795
8,3,0.08904859999893233,o,46.8,Limited Time,l,71.8682493612521,59.905172183023616,46.7961182743649,64.19595609105184,46.7961182743649,59.905172183023616,64.19595609105184,71.8682493612521,-10,-0.33,0.33,10,59,49,58.67,59.33,69,3.1622776601683795,3.1622776601683795,3.1622776601683795,3.1622776601683795
8,4,0.08105270005762577,o,48.7,Limited Time,l,67.3219848922086,59.03952927074842,48.67570526240884,63.96511502623166,48.67570526240884,59.03952927074842,63.96511502623166,67.3219848922086,-10,-0.33,0.33,10,59,49,58.67,59.33,69,3.1622776601683795,3.1622776601683795,3.1622776601683795,3.1622776601683795
8,5,0.10180259996559471,o,46.0,Limited Time,l,68.27035557832981,56.99467710280486,46.027918722336224,59.05434113539333,46.027918722336224,56.99467710280486,59.05434113539333,68.27035557832981,-10,-0.33,0.33,10,59,49,58.67,59.33,69,3.1622776601683795,3.1622776601683795,3.1622776601683795,3.1622776601683795
8,6,0.15090790000976995,p,53.7,Limited Time,l,64.06058279088067,58.761341349858384,54.557202654418454,53.65682450005561,54.557202654418454,58.761341349858384,53.65682450005561,64.06058279088067,-10,-0.33,0.33,10,59,49,58.67,59.33,69,3.1622776601683795,3.1622776601683795,3.1622776601683795,3.1622776601683795
8,7,0.05234039999777451,p,56.7,Limited Time,l,72.78422157310975,60.64617697864781,47.25068828693736,56.65274946816016,47.25068828693736,60.64617697864781,56.65274946816016,72.78422157310975,-10,-0.33,0.33,10,59,49,58.67,59.33,69,3.1622776601683795,3.1622776601683795,3.1622776601683795,3.1622776601683795
8,8,0.0646518999710679,p,60.2,Limited Time,l,76.17326339720603,54.29503280974439,54.076430483100516,60.182129544583034,54.076430483100516,54.29503280974439,60.182129544583034,76.17326339720603,-10,-0.33,0.33,10,59,49,58.67,59.33,69,3.1622776601683795,3.1622776601683795,3.1622776601683795,3.1622776601683795
8,9,0.16455590003170073,w,55.4,Limited Time,l,72.4043262279892,55.41005409511221,54.2453934406817,63.03200237018497,54.2453934406817,55.41005409511221,63.03200237018497,72.4043262279892,-10,-0.33,0.33,10,59,49,58.67,59.33,69,3.1622776601683795,3.1622776601683795,3.1622776601683795,3.1622776601683795
8,10,0.11442339996574447,w,59.1,Limited Time,l,65.94277185484484,59.0979483393413,48.07897048884007,56.692694650474834,48.07897048884007,59.0979483393413,56.692694650474834,65.94277185484484,-10,-0.33,0.33,10,59,49,58.67,59.33,69,3.1622776601683795,3.1622776601683795,3.1622776601683795,3.1622776601683795
8,11,0.17647679999936372,w,61.1,Limited Time,l,72.87890047818658,61.139173981453155,49.753076212968274,59.06433880191155,49.753076212968274,61.139173981453155,59.06433880191155,72.87890047818658,-10,-0.33,0.33,10,59,49,58.67,59.33,69,3.1622776601683795,3.1622776601683795,3.1622776601683795,3.1622776601683795
8,12,0.2225087999831885,q,73.2,Limited Time,l,73.24892285880624,66.66075331677024,47.441036718668215,63.59718235200542,47.441036718668215,66.66075331677024,63.59718235200542,73.24892285880624,-10,-0.33,0.33,10,59,49,58.67,59.33,69,3.1622776601683795,3.1622776601683795,3.1622776601683795,3.1622776601683795
8,13,0.1683692000224255,q,67.3,Limited Time,l,67.30077662893073,60.22587621412442,49.753706469111656,58.85925398442581,49.753706469111656,60.22587621412442,58.85925398442581,67.30077662893073,-10,-0.33,0.33,10,59,49,58.67,59.33,69,3.1622776601683795,3.1622776601683795,3.1622776601683795,3.1622776601683795
8,14,0.10169340000720695,o,51.9,Limited Time,l,71.93057662840405,61.65360514567539,51.94407068498999,64.12479854545552,51.94407068498999,61.65360514567539,64.12479854545552,71.93057662840405,-10,-0.33,0.33,10,59,49,58.67,59.33,69,3.1622776601683795,3.1622776601683795,3.1622776601683795,3.1622776601683795
8,15,0.12721990002319217,o,57.5,Limited Time,l,68.01470392878272,60.49061959313129,57.50132973220359,57.72371048824486,57.50132973220359,60.49061959313129,57.72371048824486,68.01470392878272,-10,-0.33,0.33,10,59,49,58.67,59.33,69,3.1622776601683795,3.1622776601683795,3.1622776601683795,3.1622776601683795
8,16,0.060762800043448806,o,47.0,Limited Time,l,72.20739472306184,62.348713888608856,46.986477809550976,60.52940728067644,46.986477809550976,62.348713888608856,60.52940728067644,72.20739472306184,-10,-0.33,0.33,10,59,49,58.67,59.33,69,3.1622776601683795,3.1622776601683795,3.1622776601683795,3.1622776601683795
8,17,0.08612799999536946,o,52.8,Limited Time,l,67.24273918742928,57.33178064730557,52.77402076117748,59.84993405335748,52.77402076117748,57.33178064730557,59.84993405335748,67.24273918742928,-10,-0.33,0.33,10,59,49,58.67,59.33,69,3.1622776601683795,3.1622776601683795,3.1622776601683795,3.1622776601683795
8,18,0.10288439999567345,p,62.0,Limited Time,l,66.02481176802715,58.371435538634145,48.474655624970225,62.026346628454185,48.474655624970225,58.371435538634145,62.026346628454185,66.02481176802715,-10,-0.33,0.33,10,59,49,58.67,59.33,69,3.1622776601683795,3.1622776601683795,3.1622776601683795,3.1622776601683795
8,19,0.07760059996508062,p,59.8,Limited Time,l,71.36587710385352,57.04911466607694,52.13841123839305,59.797066460379135,52.13841123839305,57.04911466607694,59.797066460379135,71.36587710385352,-10,-0.33,0.33,10,59,49,58.67,59.33,69,3.1622776601683795,3.1622776601683795,3.1622776601683795,3.1622776601683795
8,20,0.0985791000421159,p,57.5,Limited Time,l,66.63715645936477,57.27527967304493,45.91857453537243,57.501229788033136,45.91857453537243,57.27527967304493,57.501229788033136,66.63715645936477,-10,-0.33,0.33,10,59,49,58.67,59.33,69,3.1622776601683795,3.1622776601683795,3.1622776601683795,3.1622776601683795
9,1,0.38187620003009215,w,47.2,Unlimited Time,i,72.72009808489423,47.24906347657789,67.01620385878762,36.04881922715992,47.24906347657789,36.04881922715992,67.01620385878762,72.72009808489423,-10,-10,10,10,59,49,49,69,69,3.1622776601683795,10,3.1622776601683795,10
9,2,0.007082899974193424,w,43.8,Unlimited Time,i,77.43795970742623,43.806176404796055,65.26672808208974,17.699227137744042,43.806176404796055,17.699227137744042,65.26672808208974,77.43795970742623,-10,-10,10,10,59,49,49,69,69,3.1622776601683795,10,3.1622776601683795,10
9,3,0.12426020001294091,o,68.7,Unlimited Time,i,56.79692104784993,51.87448294165279,68.7397082704184,39.37137605464487,51.87448294165279,39.37137605464487,68.7397082704184,56.79692104784993,-10,-10,10,10,59,49,49,69,69,3.1622776601683795,10,3.1622776601683795,10
9,4,0.03700409998418763,w,42.4,Unlimited Time,i,82.74191609196988,42.366775657069276,74.28728541738343,55.118794805821004,42.366775657069276,55.118794805821004,74.28728541738343,82.74191609196988,-10,-10,10,10,59,49,49,69,69,3.1622776601683795,10,3.1622776601683795,10
9,5,0.16657699999632314,p,53.1,Unlimited Time,i,52.83049235154602,50.07070262482613,70.79889427678563,53.09599100027135,50.07070262482613,53.09599100027135,70.79889427678563,52.83049235154602,-10,-10,10,10,59,49,49,69,69,3.1622776601683795,10,3.1622776601683795,10
9,6,0.10692569997627288,p,53.1,Unlimited Time,i,76.42095624049047,54.59958914224023,73.31498270667873,53.12764756179593,54.59958914224023,53.12764756179593,73.31498270667873,76.42095624049047,-10,-10,10,10,59,49,49,69,69,3.1622776601683795,10,3.1622776601683795,10
9,7,0.07451639999635518,p,47.7,Unlimited Time,i,51.48176604345312,50.30731093315962,63.626773349695874,47.68635477023317,50.30731093315962,47.68635477023317,63.626773349695874,51.48176604345312,-10,-10,10,10,59,49,49,69,69,3.1622776601683795,10,3.1622776601683795,10
9,8,0.11223279999103397,p,64.2,Unlimited Time,i,67.27359819077074,49.713411620358976,69.45157735564953,64.19880839193277,49.713411620358976,64.19880839193277,69.45157735564953,67.27359819077074,-10,-10,10,10,59,49,49,69,69,3.1622776601683795,10,3.1622776601683795,10
9,9,0.05341950000729412,p,62.2,Unlimited Time,i,79.46914457017544,48.69441366390199,70.20615591046452,62.156741631585476,48.69441366390199,62.156741631585476,70.20615591046452,79.46914457017544,-10,-10,10,10,59,49,49,69,69,3.1622776601683795,10,3.1622776601683795,10
9,10,0.03267980000237003,w,43.9,Unlimited Time,i,72.45387751974532,43.90447241221751,69.53742012217828,59.33525347056525,43.90447241221751,59.33525347056525,69.53742012217828,72.45387751974532,-10,-10,10,10,59,49,49,69,69,3.1622776601683795,10,3.1622776601683795,10
9,11,0.1965844000224024,w,49.7,Unlimited Time,i,66.24457798467868,49.71625020666267,65.53187398554532,71.38854462961706,49.71625020666267,71.38854462961706,65.53187398554532,66.24457798467868,-10,-10,10,10,59,49,49,69,69,3.1622776601683795,10,3.1622776601683795,10
9,12,0.14125300000887364,w,45.1,Unlimited Time,i,78.625031204134,45.1154271576293,74.05872622774633,43.54978452481107,45.1154271576293,43.54978452481107,74.05872622774633,78.625031204134,-10,-10,10,10,59,49,49,69,69,3.1622776601683795,10,3.1622776601683795,10
9,13,0.21383820002665743,w,45.0,Unlimited Time,i,83.55203888575467,44.98793937321891,72.23413238893514,54.08756297671613,44.98793937321891,54.08756297671613,72.23413238893514,83.55203888575467,-10,-10,10,10,59,49,49,69,69,3.1622776601683795,10,3.1622776601683795,10
9,14,0.21685550000984222,w,47.8,Unlimited Time,i,73.1969904865267,47.785364765908184,72.9426246736247,50.73540687548489,47.785364765908184,50.73540687548489,72.9426246736247,73.1969904865267,-10,-10,10,10,59,49,49,69,69,3.1622776601683795,10,3.1622776601683795,10
9,15,0.00739470002008602,w,48.3,Unlimited Time,i,77.46199856413782,48.33968939477462,72.25983407338296,50.236054297413446,48.33968939477462,50.236054297413446,72.25983407338296,77.46199856413782,-10,-10,10,10,59,49,49,69,69,3.1622776601683795,10,3.1622776601683795,10
9,16,0.0248155000153929,q,67.7,Unlimited Time,i,67.71279162047682,51.78247042420192,67.99805275660346,47.37269210468319,51.78247042420192,47.37269210468319,67.99805275660346,67.71279162047682,-10,-10,10,10,59,49,49,69,69,3.1622776601683795,10,3.1622776601683795,10
9,17,0.03851440001744777,q,56.5,Unlimited Time,i,56.53720751131631,47.101322839547734,71.36363594591786,42.18578739849835,47.101322839547734,42.18578739849835,71.36363594591786,56.53720751131631,-10,-10,10,10,59,49,49,69,69,3.1622776601683795,10,3.1622776601683795,10
9,18,0.4832919000182301,w,49.9,Unlimited Time,i,57.45883533442445,49.8890260937684,72.24214858166846,56.07193747722341,49.8890260937684,56.07193747722341,72.24214858166846,57.45883533442445,-10,-10,10,10,59,49,49,69,69,3.1622776601683795,10,3.1622776601683795,10
9,19,0.03364979999605566,w,52.0,Unlimited Time,i,72.52564809277463,52.0478980728906,73.69594644185709,40.400281093344404,52.0478980728906,40.400281093344404,73.69594644185709,72.52564809277463,-10,-10,10,10,59,49,49,69,69,3.1622776601683795,10,3.1622776601683795,10
9,20,0.3591700000106357,q,68.3,Unlimited Time,i,68.3282887921212,50.11831779910968,65.69249876165736,49.242510480040025,50.11831779910968,49.242510480040025,65.69249876165736,68.3282887921212,-10,-10,10,10,59,49,49,69,69,3.1622776601683795,10,3.1622776601683795,10
10,1,0.21217180002713576,q,59.7,Limited Time,e,59.651721325842395,60.91037539604426,71.32023518052645,58.27614989160028,58.27614989160028,59.651721325842395,71.32023518052645,60.91037539604426,0,0,0,0,59,59,59,59,59,3.1622776601683795,6.324555320336759,8.366600265340756,10
10,2,0.05042599997250363,q,58.6,Limited Time,e,58.602930293252825,64.21804545610577,57.89778727492347,67.12533741226339,67.12533741226339,58.602930293252825,57.89778727492347,64.21804545610577,0,0,0,0,59,59,59,59,59,3.1622776601683795,6.324555320336759,8.366600265340756,10
10,3,0.0053521000081673265,w,50.0,Limited Time,e,51.40432837678287,49.95310367544166,63.74151111322465,57.69728287884102,57.69728287884102,51.40432837678287,63.74151111322465,49.95310367544166,0,0,0,0,59,59,59,59,59,3.1622776601683795,6.324555320336759,8.366600265340756,10
10,4,0.19322270003613085,q,58.6,Limited Time,e,58.60202821581737,59.960055395211526,72.41570052846541,59.337830737536414,59.337830737536414,58.60202821581737,72.41570052846541,59.960055395211526,0,0,0,0,59,59,59,59,59,3.1622776601683795,6.324555320336759,8.366600265340756,10
10,5,0.22018639999441803,q,55.1,Limited Time,e,55.11506987846763,56.940161588938594,45.265012730127445,60.904176922827396,60.904176922827396,55.11506987846763,45.265012730127445,56.940161588938594,0,0,0,0,59,59,59,59,59,3.1622776601683795,6.324555320336759,8.366600265340756,10
10,6,0.16275079996557906,w,71.2,Limited Time,e,58.40750519452424,71.19637060599196,56.258295485933935,59.97208712707976,59.97208712707976,58.40750519452424,56.258295485933935,71.19637060599196,0,0,0,0,59,59,59,59,59,3.1622776601683795,6.324555320336759,8.366600265340756,10
10,7,0.17848120001144707,w,54.5,Limited Time,e,67.0691012270199,54.4689256566395,63.89342124080172,60.83829510597368,60.83829510597368,67.0691012270199,63.89342124080172,54.4689256566395,0,0,0,0,59,59,59,59,59,3.1622776601683795,6.324555320336759,8.366600265340756,10
10,8,0.18109159998130053,w,64.5,Limited Time,e,67.04487643244582,64.47448320447066,51.6579523638656,61.65621056711035,61.65621056711035,67.04487643244582,51.6579523638656,64.47448320447066,0,0,0,0,59,59,59,59,59,3.1622776601683795,6.324555320336759,8.366600265340756,10
10,9,0.0142974000191316,o,62.3,Limited Time,e,70.77528874252344,55.472526397157274,62.29010561182151,61.51146826050379,61.51146826050379,70.77528874252344,62.29010561182151,55.472526397157274,0,0,0,0,59,59,59,59,59,3.1622776601683795,6.324555320336759,8.366600265340756,10
10,10,0.07694140000967309,p,58.1,Limited Time,e,63.720145673764584,72.88761387672903,65.96350476702519,58.07904136060176,58.07904136060176,63.720145673764584,65.96350476702519,72.88761387672903,0,0,0,0,59,59,59,59,59,3.1622776601683795,6.324555320336759,8.366600265340756,10
10,11,0.09790480002993718,p,56.3,Limited Time,e,59.523678546943316,62.27550346866825,61.00233972236648,56.31236009962641,56.31236009962641,59.523678546943316,61.00233972236648,62.27550346866825,0,0,0,0,59,59,59,59,59,3.1622776601683795,6.324555320336759,8.366600265340756,10
10,12,0.10065490001579747,p,53.4,Limited Time,e,78.22287259758414,50.384330347462594,58.57897054449307,53.365304293450066,53.365304293450066,78.22287259758414,58.57897054449307,50.384330347462594,0,0,0,0,59,59,59,59,59,3.1622776601683795,6.324555320336759,8.366600265340756,10
10,13,0.10083680000388995,q,56.0,Limited Time,e,55.98916521976924,68.32511449041297,43.53097321727467,56.70020702066224,56.70020702066224,55.98916521976924,43.53097321727467,68.32511449041297,0,0,0,0,59,59,59,59,59,3.1622776601683795,6.324555320336759,8.366600265340756,10
10,14,0.1271231999853626,o,63.0,Limited Time,e,56.83879091636831,42.90859123502884,62.96561272412513,64.69933913457272,64.69933913457272,56.83879091636831,62.96561272412513,42.90859123502884,0,0,0,0,59,59,59,59,59,3.1622776601683795,6.324555320336759,8.366600265340756,10
10,15,0.08569989999523386,o,56.4,Limited Time,e,57.57478008256283,48.304370953446764,56.356011233746756,63.79406729379978,63.79406729379978,57.57478008256283,56.356011233746756,48.304370953446764,0,0,0,0,59,59,59,59,59,3.1622776601683795,6.324555320336759,8.366600265340756,10
10,16,0.08956559997750446,o,57.4,Limited Time,e,62.17198576128736,53.42674164589255,57.42693939151535,59.36641502614605,59.36641502614605,62.17198576128736,57.42693939151535,53.42674164589255,0,0,0,0,59,59,59,59,59,3.1622776601683795,6.324555320336759,8.366600265340756,10
10,17,0.09305159997893497,o,50.4,Limited Time,e,60.785569173291314,37.65693505219578,50.39044313059102,57.62618296927859,57.62618296927859,60.785569173291314,50.39044313059102,37.65693505219578,0,0,0,0,59,59,59,59,59,3.1622776601683795,6.324555320336759,8.366600265340756,10
10,18,0.09717219998128712,o,59.9,Limited Time,e,49.96550828513956,46.99380621531407,59.856713975332994,60.36093471417682,60.36093471417682,49.96550828513956,59.856713975332994,46.99380621531407,0,0,0,0,59,59,59,59,59,3.1622776601683795,6.324555320336759,8.366600265340756,10
10,19,0.13978969998424873,o,54.3,Limited Time,e,58.9868118800525,62.85333641982376,54.32809984071751,61.58597962179453,61.58597962179453,58.9868118800525,54.32809984071751,62.85333641982376,0,0,0,0,59,59,59,59,59,3.1622776601683795,6.324555320336759,8.366600265340756,10
10,20,0.0938293999643065,o,51.8,Limited Time,e,55.83936931045873,55.14419442693544,51.820379964788515,60.541994072326915,60.541994072326915,55.83936931045873,51.820379964788515,55.14419442693544,0,0,0,0,59,59,59,59,59,3.1622776601683795,6.324555320336759,8.366600265340756,10
11,1,0.37327969999751076,o,60.9,Unlimited Time,e,59.651721325842395,58.27614989160028,60.91037539604426,71.32023518052645,58.27614989160028,59.651721325842395,71.32023518052645,60.91037539604426,0,0,0,0,59,59,59,59,59,3.1622776601683795,6.324555320336759,8.366600265340756,10
11,2,0.11818900000071153,o,64.2,Unlimited Time,e,58.602930293252825,67.12533741226339,64.21804545610577,57.89778727492347,67.12533741226339,58.602930293252825,57.89778727492347,64.21804545610577,0,0,0,0,59,59,59,59,59,3.1622776601683795,6.324555320336759,8.366600265340756,10
11,3,0.1564129000180401,w,57.7,Unlimited Time,e,51.40432837678287,57.69728287884102,49.95310367544166,63.74151111322465,57.69728287884102,51.40432837678287,63.74151111322465,49.95310367544166,0,0,0,0,59,59,59,59,59,3.1622776601683795,6.324555320336759,8.366600265340756,10
11,4,0.16056119999848306,w,59.3,Unlimited Time,e,58.60202821581737,59.337830737536414,59.960055395211526,72.41570052846541,59.337830737536414,58.60202821581737,72.41570052846541,59.960055395211526,0,0,0,0,59,59,59,59,59,3.1622776601683795,6.324555320336759,8.366600265340756,10
11,5,0.15251400001579896,w,60.9,Unlimited Time,e,55.11506987846763,60.904176922827396,56.940161588938594,45.265012730127445,60.904176922827396,55.11506987846763,45.265012730127445,56.940161588938594,0,0,0,0,59,59,59,59,59,3.1622776601683795,6.324555320336759,8.366600265340756,10
11,6,0.23190539999632165,w,60.0,Unlimited Time,e,58.40750519452424,59.97208712707976,71.19637060599196,56.258295485933935,59.97208712707976,58.40750519452424,56.258295485933935,71.19637060599196,0,0,0,0,59,59,59,59,59,3.1622776601683795,6.324555320336759,8.366600265340756,10
11,7,0.09417860000394285,w,60.8,Unlimited Time,e,67.0691012270199,60.83829510597368,54.4689256566395,63.89342124080172,60.83829510597368,67.0691012270199,63.89342124080172,54.4689256566395,0,0,0,0,59,59,59,59,59,3.1622776601683795,6.324555320336759,8.366600265340756,10
11,8,0.22839920001570135,w,61.7,Unlimited Time,e,67.04487643244582,61.65621056711035,64.47448320447066,51.6579523638656,61.65621056711035,67.04487643244582,51.6579523638656,64.47448320447066,0,0,0,0,59,59,59,59,59,3.1622776601683795,6.324555320336759,8.366600265340756,10
11,9,0.040930100018158555,w,61.5,Unlimited Time,e,70.77528874252344,61.51146826050379,55.472526397157274,62.29010561182151,61.51146826050379,70.77528874252344,62.29010561182151,55.472526397157274,0,0,0,0,59,59,59,59,59,3.1622776601683795,6.324555320336759,8.366600265340756,10
11,10,0.13624840002739802,w,58.1,Unlimited Time,e,63.720145673764584,58.07904136060176,72.88761387672903,65.96350476702519,58.07904136060176,63.720145673764584,65.96350476702519,72.88761387672903,0,0,0,0,59,59,59,59,59,3.1622776601683795,6.324555320336759,8.366600265340756,10
11,11,0.1320003000437282,w,56.3,Unlimited Time,e,59.523678546943316,56.31236009962641,62.27550346866825,61.00233972236648,56.31236009962641,59.523678546943316,61.00233972236648,62.27550346866825,0,0,0,0,59,59,59,59,59,3.1622776601683795,6.324555320336759,8.366600265340756,10
11,12,0.1950524999992922,w,53.4,Unlimited Time,e,78.22287259758414,53.365304293450066,50.384330347462594,58.57897054449307,53.365304293450066,78.22287259758414,58.57897054449307,50.384330347462594,0,0,0,0,59,59,59,59,59,3.1622776601683795,6.324555320336759,8.366600265340756,10
11,13,0.16586190002271906,w,56.7,Unlimited Time,e,55.98916521976924,56.70020702066224,68.32511449041297,43.53097321727467,56.70020702066224,55.98916521976924,43.53097321727467,68.32511449041297,0,0,0,0,59,59,59,59,59,3.1622776601683795,6.324555320336759,8.366600265340756,10
11,14,0.2207114000339061,w,64.7,Unlimited Time,e,56.83879091636831,64.69933913457272,42.90859123502884,62.96561272412513,64.69933913457272,56.83879091636831,62.96561272412513,42.90859123502884,0,0,0,0,59,59,59,59,59,3.1622776601683795,6.324555320336759,8.366600265340756,10
11,15,0.2195703000179492,w,63.8,Unlimited Time,e,57.57478008256283,63.79406729379978,48.304370953446764,56.356011233746756,63.79406729379978,57.57478008256283,56.356011233746756,48.304370953446764,0,0,0,0,59,59,59,59,59,3.1622776601683795,6.324555320336759,8.366600265340756,10
11,16,0.08192780002718791,w,59.4,Unlimited Time,e,62.17198576128736,59.36641502614605,53.42674164589255,57.42693939151535,59.36641502614605,62.17198576128736,57.42693939151535,53.42674164589255,0,0,0,0,59,59,59,59,59,3.1622776601683795,6.324555320336759,8.366600265340756,10
11,17,0.7699331999756396,w,57.6,Unlimited Time,e,60.785569173291314,57.62618296927859,37.65693505219578,50.39044313059102,57.62618296927859,60.785569173291314,50.39044313059102,37.65693505219578,0,0,0,0,59,59,59,59,59,3.1622776601683795,6.324555320336759,8.366600265340756,10
11,18,0.020383700029924512,w,60.4,Unlimited Time,e,49.96550828513956,60.36093471417682,46.99380621531407,59.856713975332994,60.36093471417682,49.96550828513956,59.856713975332994,46.99380621531407,0,0,0,0,59,59,59,59,59,3.1622776601683795,6.324555320336759,8.366600265340756,10
11,19,0.044606000010389835,w,61.6,Unlimited Time,e,58.9868118800525,61.58597962179453,62.85333641982376,54.32809984071751,61.58597962179453,58.9868118800525,54.32809984071751,62.85333641982376,0,0,0,0,59,59,59,59,59,3.1622776601683795,6.324555320336759,8.366600265340756,10
11,20,0.22787760000210255,q,55.8,Unlimited Time,e,55.83936931045873,60.541994072326915,55.14419442693544,51.820379964788515,60.541994072326915,55.83936931045873,51.820379964788515,55.14419442693544,0,0,0,0,59,59,59,59,59,3.1622776601683795,6.324555320336759,8.366600265340756,10
12,1,0.3305504000163637,w,67.0,Limited Time,i,72.72009808489423,67.01620385878762,47.24906347657789,36.04881922715992,47.24906347657789,36.04881922715992,67.01620385878762,72.72009808489423,-10,-10,10,10,59,49,49,69,69,3.1622776601683795,10,3.1622776601683795,10
12,2,0.02547589997993782,w,65.3,Limited Time,i,77.43795970742623,65.26672808208974,43.806176404796055,17.699227137744042,43.806176404796055,17.699227137744042,65.26672808208974,77.43795970742623,-10,-10,10,10,59,49,49,69,69,3.1622776601683795,10,3.1622776601683795,10
12,3,0.00807179999537766,p,39.4,Limited Time,i,56.79692104784993,68.7397082704184,51.87448294165279,39.37137605464487,51.87448294165279,39.37137605464487,68.7397082704184,56.79692104784993,-10,-10,10,10,59,49,49,69,69,3.1622776601683795,10,3.1622776601683795,10
12,4,0.13304689998039976,p,55.1,Limited Time,i,82.74191609196988,74.28728541738343,42.366775657069276,55.118794805821004,42.366775657069276,55.118794805821004,74.28728541738343,82.74191609196988,-10,-10,10,10,59,49,49,69,69,3.1622776601683795,10,3.1622776601683795,10
12,5,0.05397030001040548,o,50.1,Limited Time,i,52.83049235154602,70.79889427678563,50.07070262482613,53.09599100027135,50.07070262482613,53.09599100027135,70.79889427678563,52.83049235154602,-10,-10,10,10,59,49,49,69,69,3.1622776601683795,10,3.1622776601683795,10
12,6,0.030244800029322505,w,73.3,Limited Time,i,76.42095624049047,73.31498270667873,54.59958914224023,53.12764756179593,54.59958914224023,53.12764756179593,73.31498270667873,76.42095624049047,-10,-10,10,10,59,49,49,69,69,3.1622776601683795,10,3.1622776601683795,10
12,7,0.025079599989112467,w,63.6,Limited Time,i,51.48176604345312,63.626773349695874,50.30731093315962,47.68635477023317,50.30731093315962,47.68635477023317,63.626773349695874,51.48176604345312,-10,-10,10,10,59,49,49,69,69,3.1622776601683795,10,3.1622776601683795,10
12,8,0.20826029998715967,p,64.2,Limited Time,i,67.27359819077074,69.45157735564953,49.713411620358976,64.19880839193277,49.713411620358976,64.19880839193277,69.45157735564953,67.27359819077074,-10,-10,10,10,59,49,49,69,69,3.1622776601683795,10,3.1622776601683795,10
12,9,0.09657789999619126,p,62.2,Limited Time,i,79.46914457017544,70.20615591046452,48.69441366390199,62.156741631585476,48.69441366390199,62.156741631585476,70.20615591046452,79.46914457017544,-10,-10,10,10,59,49,49,69,69,3.1622776601683795,10,3.1622776601683795,10
12,10,0.10004059999482706,o,43.9,Limited Time,i,72.45387751974532,69.53742012217828,43.90447241221751,59.33525347056525,43.90447241221751,59.33525347056525,69.53742012217828,72.45387751974532,-10,-10,10,10,59,49,49,69,69,3.1622776601683795,10,3.1622776601683795,10
12,11,0.08107359998393804,w,65.5,Limited Time,i,66.24457798467868,65.53187398554532,49.71625020666267,71.38854462961706,49.71625020666267,71.38854462961706,65.53187398554532,66.24457798467868,-10,-10,10,10,59,49,49,69,69,3.1622776601683795,10,3.1622776601683795,10
12,12,0.0746629000059329,q,78.6,Limited Time,i,78.625031204134,74.05872622774633,45.1154271576293,43.54978452481107,45.1154271576293,43.54978452481107,74.05872622774633,78.625031204134,-10,-10,10,10,59,49,49,69,69,3.1622776601683795,10,3.1622776601683795,10
12,13,0.059293100028298795,q,83.6,Limited Time,i,83.55203888575467,72.23413238893514,44.98793937321891,54.08756297671613,44.98793937321891,54.08756297671613,72.23413238893514,83.55203888575467,-10,-10,10,10,59,49,49,69,69,3.1622776601683795,10,3.1622776601683795,10
12,14,0.04615650000050664,w,72.9,Limited Time,i,73.1969904865267,72.9426246736247,47.785364765908184,50.73540687548489,47.785364765908184,50.73540687548489,72.9426246736247,73.1969904865267,-10,-10,10,10,59,49,49,69,69,3.1622776601683795,10,3.1622776601683795,10
12,15,0.013359199976548553,p,50.2,Limited Time,i,77.46199856413782,72.25983407338296,48.33968939477462,50.236054297413446,48.33968939477462,50.236054297413446,72.25983407338296,77.46199856413782,-10,-10,10,10,59,49,49,69,69,3.1622776601683795,10,3.1622776601683795,10
12,16,0.12627789995167404,o,51.8,Limited Time,i,67.71279162047682,67.99805275660346,51.78247042420192,47.37269210468319,51.78247042420192,47.37269210468319,67.99805275660346,67.71279162047682,-10,-10,10,10,59,49,49,69,69,3.1622776601683795,10,3.1622776601683795,10
12,17,0.03336750000016764,o,47.1,Limited Time,i,56.53720751131631,71.36363594591786,47.101322839547734,42.18578739849835,47.101322839547734,42.18578739849835,71.36363594591786,56.53720751131631,-10,-10,10,10,59,49,49,69,69,3.1622776601683795,10,3.1622776601683795,10
12,18,0.1422681999974884,q,57.5,Limited Time,i,57.45883533442445,72.24214858166846,49.8890260937684,56.07193747722341,49.8890260937684,56.07193747722341,72.24214858166846,57.45883533442445,-10,-10,10,10,59,49,49,69,69,3.1622776601683795,10,3.1622776601683795,10
12,19,0.04737409995868802,w,73.7,Limited Time,i,72.52564809277463,73.69594644185709,52.0478980728906,40.400281093344404,52.0478980728906,40.400281093344404,73.69594644185709,72.52564809277463,-10,-10,10,10,59,49,49,69,69,3.1622776601683795,10,3.1622776601683795,10
12,20,0.06417319999309257,w,65.7,Limited Time,i,68.3282887921212,65.69249876165736,50.11831779910968,49.242510480040025,50.11831779910968,49.242510480040025,65.69249876165736,68.3282887921212,-10,-10,10,10,59,49,49,69,69,3.1622776601683795,10,3.1622776601683795,10
13,1,0.01836000004550442,w,36.0,Unlimited Time,i,72.72009808489423,36.04881922715992,47.24906347657789,67.01620385878762,47.24906347657789,36.04881922715992,67.01620385878762,72.72009808489423,-10,-10,10,10,59,49,49,69,69,3.1622776601683795,10,3.1622776601683795,10
13,2,0.006051500036846846,o,43.8,Unlimited Time,i,77.43795970742623,17.699227137744042,43.806176404796055,65.26672808208974,43.806176404796055,17.699227137744042,65.26672808208974,77.43795970742623,-10,-10,10,10,59,49,49,69,69,3.1622776601683795,10,3.1622776601683795,10
13,3,0.04703369998605922,o,51.9,Unlimited Time,i,56.79692104784993,39.37137605464487,51.87448294165279,68.7397082704184,51.87448294165279,39.37137605464487,68.7397082704184,56.79692104784993,-10,-10,10,10,59,49,49,69,69,3.1622776601683795,10,3.1622776601683795,10
13,4,0.09340930002508685,o,42.4,Unlimited Time,i,82.74191609196988,55.118794805821004,42.366775657069276,74.28728541738343,42.366775657069276,55.118794805821004,74.28728541738343,82.74191609196988,-10,-10,10,10,59,49,49,69,69,3.1622776601683795,10,3.1622776601683795,10
13,5,0.0395274999900721,o,50.1,Unlimited Time,i,52.83049235154602,53.09599100027135,50.07070262482613,70.79889427678563,50.07070262482613,53.09599100027135,70.79889427678563,52.83049235154602,-10,-10,10,10,59,49,49,69,69,3.1622776601683795,10,3.1622776601683795,10
13,6,0.14701170002808794,w,53.1,Unlimited Time,i,76.42095624049047,53.12764756179593,54.59958914224023,73.31498270667873,54.59958914224023,53.12764756179593,73.31498270667873,76.42095624049047,-10,-10,10,10,59,49,49,69,69,3.1622776601683795,10,3.1622776601683795,10
13,7,0.005550700007006526,o,50.3,Unlimited Time,i,51.48176604345312,47.68635477023317,50.30731093315962,63.626773349695874,50.30731093315962,47.68635477023317,63.626773349695874,51.48176604345312,-10,-10,10,10,59,49,49,69,69,3.1622776601683795,10,3.1622776601683795,10
13,8,0.12354340002639219,w,64.2,Unlimited Time,i,67.27359819077074,64.19880839193277,49.713411620358976,69.45157735564953,49.713411620358976,64.19880839193277,69.45157735564953,67.27359819077074,-10,-10,10,10,59,49,49,69,69,3.1622776601683795,10,3.1622776601683795,10
13,9,0.04762139997910708,o,48.7,Unlimited Time,i,79.46914457017544,62.156741631585476,48.69441366390199,70.20615591046452,48.69441366390199,62.156741631585476,70.20615591046452,79.46914457017544,-10,-10,10,10,59,49,49,69,69,3.1622776601683795,10,3.1622776601683795,10
13,10,0.030961900018155575,o,43.9,Unlimited Time,i,72.45387751974532,59.33525347056525,43.90447241221751,69.53742012217828,43.90447241221751,59.33525347056525,69.53742012217828,72.45387751974532,-10,-10,10,10,59,49,49,69,69,3.1622776601683795,10,3.1622776601683795,10
13,11,0.05593919998500496,o,49.7,Unlimited Time,i,66.24457798467868,71.38854462961706,49.71625020666267,65.53187398554532,49.71625020666267,71.38854462961706,65.53187398554532,66.24457798467868,-10,-10,10,10,59,49,49,69,69,3.1622776601683795,10,3.1622776601683795,10
13,12,0.12258600001223385,o,45.1,Unlimited Time,i,78.625031204134,43.54978452481107,45.1154271576293,74.05872622774633,45.1154271576293,43.54978452481107,74.05872622774633,78.625031204134,-10,-10,10,10,59,49,49,69,69,3.1622776601683795,10,3.1622776601683795,10
13,13,0.11055429995758459,o,45.0,Unlimited Time,i,83.55203888575467,54.08756297671613,44.98793937321891,72.23413238893514,44.98793937321891,54.08756297671613,72.23413238893514,83.55203888575467,-10,-10,10,10,59,49,49,69,69,3.1622776601683795,10,3.1622776601683795,10
13,14,0.09015559998806566,w,50.7,Unlimited Time,i,73.1969904865267,50.73540687548489,47.785364765908184,72.9426246736247,47.785364765908184,50.73540687548489,72.9426246736247,73.1969904865267,-10,-10,10,10,59,49,49,69,69,3.1622776601683795,10,3.1622776601683795,10
13,15,0.04805300000589341,w,50.2,Unlimited Time,i,77.46199856413782,50.236054297413446,48.33968939477462,72.25983407338296,48.33968939477462,50.236054297413446,72.25983407338296,77.46199856413782,-10,-10,10,10,59,49,49,69,69,3.1622776601683795,10,3.1622776601683795,10
13,16,0.0061150999972596765,w,47.4,Unlimited Time,i,67.71279162047682,47.37269210468319,51.78247042420192,67.99805275660346,51.78247042420192,47.37269210468319,67.99805275660346,67.71279162047682,-10,-10,10,10,59,49,49,69,69,3.1622776601683795,10,3.1622776601683795,10
13,17,0.2100497999927029,w,42.2,Unlimited Time,i,56.53720751131631,42.18578739849835,47.101322839547734,71.36363594591786,47.101322839547734,42.18578739849835,71.36363594591786,56.53720751131631,-10,-10,10,10,59,49,49,69,69,3.1622776601683795,10,3.1622776601683795,10
13,18,0.05163509998237714,o,49.9,Unlimited Time,i,57.45883533442445,56.07193747722341,49.8890260937684,72.24214858166846,49.8890260937684,56.07193747722341,72.24214858166846,57.45883533442445,-10,-10,10,10,59,49,49,69,69,3.1622776601683795,10,3.1622776601683795,10
13,19,0.08192969998344779,o,52.0,Unlimited Time,i,72.52564809277463,40.400281093344404,52.0478980728906,73.69594644185709,52.0478980728906,40.400281093344404,73.69594644185709,72.52564809277463,-10,-10,10,10,59,49,49,69,69,3.1622776601683795,10,3.1622776601683795,10
13,20,0.057329999981448054,p,65.7,Unlimited Time,i,68.3282887921212,49.242510480040025,50.11831779910968,65.69249876165736,50.11831779910968,49.242510480040025,65.69249876165736,68.3282887921212,-10,-10,10,10,59,49,49,69,69,3.1622776601683795,10,3.1622776601683795,10
14,1,0.21489760000258684,o,51.6,Limited Time,h,54.303951395948765,41.33787391951462,51.642857541278566,41.794462716830765,41.794462716830765,41.33787391951462,54.303951395948765,51.642857541278566,-10,-0.33,0.33,10,59,49,58.67,59.33,69,10,10,10,10
14,2,0.09063690004404634,o,57.3,Limited Time,h,62.09585857002029,66.23009320042549,57.25022748820419,53.14662172184592,53.14662172184592,66.23009320042549,62.09585857002029,57.25022748820419,-10,-0.33,0.33,10,59,49,58.67,59.33,69,10,10,10,10
14,3,0.08184090000577271,o,68.8,Limited Time,h,47.950107570766555,61.925186041180915,68.76372976742314,63.528516404444446,63.528516404444446,61.925186041180915,47.950107570766555,68.76372976742314,-10,-0.33,0.33,10,59,49,58.67,59.33,69,10,10,10,10
14,4,0.06634040002245456,o,64.4,Limited Time,h,34.817583204073415,56.36524018643628,64.37418789830923,41.89387696501314,41.89387696501314,56.36524018643628,34.817583204073415,64.37418789830923,-10,-0.33,0.33,10,59,49,58.67,59.33,69,10,10,10,10
14,5,0.09107640001457185,o,63.1,Limited Time,h,62.93024891334498,57.219014337153766,63.13292150051083,55.02814107035121,55.02814107035121,57.219014337153766,62.93024891334498,63.13292150051083,-10,-0.33,0.33,10,59,49,58.67,59.33,69,10,10,10,10
14,6,0.09536760003538802,p,50.4,Limited Time,h,48.16192212008554,66.36817142910137,61.354354786268495,50.41458536393521,50.41458536393521,66.36817142910137,48.16192212008554,61.354354786268495,-10,-0.33,0.33,10,59,49,58.67,59.33,69,10,10,10,10
14,7,0.06171580002410337,p,68.5,Limited Time,h,58.49606476994443,57.107529618783026,79.90251567006266,68.47443195580415,68.47443195580415,57.107529618783026,58.49606476994443,79.90251567006266,-10,-0.33,0.33,10,59,49,58.67,59.33,69,10,10,10,10
14,8,0.08748709998326376,p,41.8,Limited Time,h,59.859157957619544,49.14313726106497,71.57549464402058,41.78750166761636,41.78750166761636,49.14313726106497,59.859157957619544,71.57549464402058,-10,-0.33,0.33,10,59,49,58.67,59.33,69,10,10,10,10
14,9,0.07779260003007948,q,55.4,Limited Time,h,55.43122555887077,40.46040916073647,64.97337434174328,49.93935461495365,49.93935461495365,40.46040916073647,55.43122555887077,64.97337434174328,-10,-0.33,0.33,10,59,49,58.67,59.33,69,10,10,10,10
14,10,0.18614229996455833,q,71.5,Limited Time,h,71.45628375054883,55.95396868714501,72.9092788274607,58.34420281522931,58.34420281522931,55.95396868714501,71.45628375054883,72.9092788274607,-10,-0.33,0.33,10,59,49,58.67,59.33,69,10,10,10,10
14,11,0.004589800024405122,w,49.1,Limited Time,h,59.514726319632466,49.12360363885104,69.3540627164504,36.90557016809348,36.90557016809348,49.12360363885104,59.514726319632466,69.3540627164504,-10,-0.33,0.33,10,59,49,58.67,59.33,69,10,10,10,10
14,12,0.17845510004553944,w,42.7,Limited Time,h,59.443169676761656,42.67340426648892,76.51200581453435,54.822850283313414,54.822850283313414,42.67340426648892,59.443169676761656,76.51200581453435,-10,-0.33,0.33,10,59,49,58.67,59.33,69,10,10,10,10
14,13,0.14916070003528148,w,58.1,Limited Time,h,81.16353743097721,58.06256980341119,93.31325302846112,46.4937299839871,46.4937299839871,58.06256980341119,81.16353743097721,93.31325302846112,-10,-0.33,0.33,10,59,49,58.67,59.33,69,10,10,10,10
14,14,0.1794456000206992,w,56.8,Limited Time,h,71.23724760292713,56.81774815994039,57.71223471698592,39.75870458977254,39.75870458977254,56.81774815994039,71.23724760292713,57.71223471698592,-10,-0.33,0.33,10,59,49,58.67,59.33,69,10,10,10,10
14,15,0.011528000002726912,p,58.9,Limited Time,h,62.75980977895112,66.14260224606929,63.60666413588211,58.85259710038781,58.85259710038781,66.14260224606929,62.75980977895112,63.60666413588211,-10,-0.33,0.33,10,59,49,58.67,59.33,69,10,10,10,10
14,16,0.11311999999452382,p,54.8,Limited Time,h,67.42845904356965,57.26732323681272,64.91045489336732,54.81399339610578,54.81399339610578,57.26732323681272,67.42845904356965,64.91045489336732,-10,-0.33,0.33,10,59,49,58.67,59.33,69,10,10,10,10
14,17,0.10000670002773404,p,45.1,Limited Time,h,52.68976173840481,64.42770925357311,88.00830850916479,45.10756055543178,45.10756055543178,64.42770925357311,52.68976173840481,88.00830850916479,-10,-0.33,0.33,10,59,49,58.67,59.33,69,10,10,10,10
14,18,0.09135800000512972,p,47.6,Limited Time,h,56.253542219916454,65.45456447608962,66.09669189274054,47.578362011819685,47.578362011819685,65.45456447608962,56.253542219916454,66.09669189274054,-10,-0.33,0.33,10,59,49,58.67,59.33,69,10,10,10,10
14,19,0.08283830003347248,p,63.6,Limited Time,h,74.30275447615078,67.38081942066415,57.878771326660114,63.582445118632194,63.582445118632194,67.38081942066415,74.30275447615078,57.878771326660114,-10,-0.33,0.33,10,59,49,58.67,59.33,69,10,10,10,10
14,20,0.07849419995909557,p,47.2,Limited Time,h,44.509093395500884,51.35237862417061,64.92784524088248,47.191381876817765,47.191381876817765,51.35237862417061,44.509093395500884,64.92784524088248,-10,-0.33,0.33,10,59,49,58.67,59.33,69,10,10,10,10
15,1,0.15976589999627322,o,54.3,Unlimited Time,h,51.642857541278566,41.794462716830765,54.303951395948765,41.33787391951462,41.794462716830765,41.33787391951462,54.303951395948765,51.642857541278566,-10,-0.33,0.33,10,59,49,58.67,59.33,69,10,10,10,10
15,2,0.022559300006832927,o,62.1,Unlimited Time,h,57.25022748820419,53.14662172184592,62.09585857002029,66.23009320042549,53.14662172184592,66.23009320042549,62.09585857002029,57.25022748820419,-10,-0.33,0.33,10,59,49,58.67,59.33,69,10,10,10,10
15,3,0.10871099994983524,o,48.0,Unlimited Time,h,68.76372976742314,63.528516404444446,47.950107570766555,61.925186041180915,63.528516404444446,61.925186041180915,47.950107570766555,68.76372976742314,-10,-0.33,0.33,10,59,49,58.67,59.33,69,10,10,10,10
15,4,0.11329810001188889,o,34.8,Unlimited Time,h,64.37418789830923,41.89387696501314,34.817583204073415,56.36524018643628,41.89387696501314,56.36524018643628,34.817583204073415,64.37418789830923,-10,-0.33,0.33,10,59,49,58.67,59.33,69,10,10,10,10
15,5,0.18097529996884987,w,55.0,Unlimited Time,h,63.13292150051083,55.02814107035121,62.93024891334498,57.219014337153766,55.02814107035121,57.219014337153766,62.93024891334498,63.13292150051083,-10,-0.33,0.33,10,59,49,58.67,59.33,69,10,10,10,10
15,6,0.15529439999954775,w,50.4,Unlimited Time,h,61.354354786268495,50.41458536393521,48.16192212008554,66.36817142910137,50.41458536393521,66.36817142910137,48.16192212008554,61.354354786268495,-10,-0.33,0.33,10,59,49,58.67,59.33,69,10,10,10,10
15,7,0.17162989999633282,w,68.5,Unlimited Time,h,79.90251567006266,68.47443195580415,58.49606476994443,57.107529618783026,68.47443195580415,57.107529618783026,58.49606476994443,79.90251567006266,-10,-0.33,0.33,10,59,49,58.67,59.33,69,10,10,10,10
15,8,0.19723370001884177,w,41.8,Unlimited Time,h,71.57549464402058,41.78750166761636,59.859157957619544,49.14313726106497,41.78750166761636,49.14313726106497,59.859157957619544,71.57549464402058,-10,-0.33,0.33,10,59,49,58.67,59.33,69,10,10,10,10
15,9,0.19280960003379732,w,49.9,Unlimited Time,h,64.97337434174328,49.93935461495365,55.43122555887077,40.46040916073647,49.93935461495365,40.46040916073647,55.43122555887077,64.97337434174328,-10,-0.33,0.33,10,59,49,58.67,59.33,69,10,10,10,10
15,10,0.18924959999276325,w,58.3,Unlimited Time,h,72.9092788274607,58.34420281522931,71.45628375054883,55.95396868714501,58.34420281522931,55.95396868714501,71.45628375054883,72.9092788274607,-10,-0.33,0.33,10,59,49,58.67,59.33,69,10,10,10,10
15,11,0.07272240001475438,q,69.4,Unlimited Time,h,69.3540627164504,36.90557016809348,59.514726319632466,49.12360363885104,36.90557016809348,49.12360363885104,59.514726319632466,69.3540627164504,-10,-0.33,0.33,10,59,49,58.67,59.33,69,10,10,10,10
15,12,0.19701720000011846,q,76.5,Unlimited Time,h,76.51200581453435,54.822850283313414,59.443169676761656,42.67340426648892,54.822850283313414,42.67340426648892,59.443169676761656,76.51200581453435,-10,-0.33,0.33,10,59,49,58.67,59.33,69,10,10,10,10
15,13,0.14301300002261996,p,58.1,Unlimited Time,h,93.31325302846112,46.4937299839871,81.16353743097721,58.06256980341119,46.4937299839871,58.06256980341119,81.16353743097721,93.31325302846112,-10,-0.33,0.33,10,59,49,58.67,59.33,69,10,10,10,10
15,14,0.12618420005310327,p,56.8,Unlimited Time,h,57.71223471698592,39.75870458977254,71.23724760292713,56.81774815994039,39.75870458977254,56.81774815994039,71.23724760292713,57.71223471698592,-10,-0.33,0.33,10,59,49,58.67,59.33,69,10,10,10,10
15,15,0.10087010002462193,p,66.1,Unlimited Time,h,63.60666413588211,58.85259710038781,62.75980977895112,66.14260224606929,58.85259710038781,66.14260224606929,62.75980977895112,63.60666413588211,-10,-0.33,0.33,10,59,49,58.67,59.33,69,10,10,10,10
15,16,0.09346070000901818,p,57.3,Unlimited Time,h,64.91045489336732,54.81399339610578,67.42845904356965,57.26732323681272,54.81399339610578,57.26732323681272,67.42845904356965,64.91045489336732,-10,-0.33,0.33,10,59,49,58.67,59.33,69,10,10,10,10
15,17,0.07653980003669858,p,64.4,Unlimited Time,h,88.00830850916479,45.10756055543178,52.68976173840481,64.42770925357311,45.10756055543178,64.42770925357311,52.68976173840481,88.00830850916479,-10,-0.33,0.33,10,59,49,58.67,59.33,69,10,10,10,10
15,18,0.06421559996670112,p,65.5,Unlimited Time,h,66.09669189274054,47.578362011819685,56.253542219916454,65.45456447608962,47.578362011819685,65.45456447608962,56.253542219916454,66.09669189274054,-10,-0.33,0.33,10,59,49,58.67,59.33,69,10,10,10,10
15,19,0.09337580000283197,p,67.4,Unlimited Time,h,57.878771326660114,63.582445118632194,74.30275447615078,67.38081942066415,63.582445118632194,67.38081942066415,74.30275447615078,57.878771326660114,-10,-0.33,0.33,10,59,49,58.67,59.33,69,10,10,10,10
15,20,0.07750529999611899,p,51.4,Unlimited Time,h,64.92784524088248,47.191381876817765,44.509093395500884,51.35237862417061,47.191381876817765,51.35237862417061,44.509093395500884,64.92784524088248,-10,-0.33,0.33,10,59,49,58.67,59.33,69,10,10,10,10
16,1,0.1973526999936439,o,47.2,Limited Time,i,36.04881922715992,67.01620385878762,47.24906347657789,72.72009808489423,47.24906347657789,36.04881922715992,67.01620385878762,72.72009808489423,-10,-10,10,10,59,49,49,69,69,3.1622776601683795,10,3.1622776601683795,10
16,2,0.12730829999782145,o,43.8,Limited Time,i,17.699227137744042,65.26672808208974,43.806176404796055,77.43795970742623,43.806176404796055,17.699227137744042,65.26672808208974,77.43795970742623,-10,-10,10,10,59,49,49,69,69,3.1622776601683795,10,3.1622776601683795,10
16,3,0.12268220004625618,o,51.9,Limited Time,i,39.37137605464487,68.7397082704184,51.87448294165279,56.79692104784993,51.87448294165279,39.37137605464487,68.7397082704184,56.79692104784993,-10,-10,10,10,59,49,49,69,69,3.1622776601683795,10,3.1622776601683795,10
16,4,0.007217099948320538,w,74.3,Limited Time,i,55.118794805821004,74.28728541738343,42.366775657069276,82.74191609196988,42.366775657069276,55.118794805821004,74.28728541738343,82.74191609196988,-10,-10,10,10,59,49,49,69,69,3.1622776601683795,10,3.1622776601683795,10
16,5,0.18145380000350997,w,70.8,Limited Time,i,53.09599100027135,70.79889427678563,50.07070262482613,52.83049235154602,50.07070262482613,53.09599100027135,70.79889427678563,52.83049235154602,-10,-10,10,10,59,49,49,69,69,3.1622776601683795,10,3.1622776601683795,10
16,6,0.1644724000361748,w,73.3,Limited Time,i,53.12764756179593,73.31498270667873,54.59958914224023,76.42095624049047,54.59958914224023,53.12764756179593,73.31498270667873,76.42095624049047,-10,-10,10,10,59,49,49,69,69,3.1622776601683795,10,3.1622776601683795,10
16,7,0.16514729999471456,w,63.6,Limited Time,i,47.68635477023317,63.626773349695874,50.30731093315962,51.48176604345312,50.30731093315962,47.68635477023317,63.626773349695874,51.48176604345312,-10,-10,10,10,59,49,49,69,69,3.1622776601683795,10,3.1622776601683795,10
16,8,0.15174820000538602,w,69.5,Limited Time,i,64.19880839193277,69.45157735564953,49.713411620358976,67.27359819077074,49.713411620358976,64.19880839193277,69.45157735564953,67.27359819077074,-10,-10,10,10,59,49,49,69,69,3.1622776601683795,10,3.1622776601683795,10
16,9,0.15296660002786666,p,79.5,Limited Time,i,62.156741631585476,70.20615591046452,48.69441366390199,79.46914457017544,48.69441366390199,62.156741631585476,70.20615591046452,79.46914457017544,-10,-10,10,10,59,49,49,69,69,3.1622776601683795,10,3.1622776601683795,10
16,10,0.12863689998630434,p,72.5,Limited Time,i,59.33525347056525,69.53742012217828,43.90447241221751,72.45387751974532,43.90447241221751,59.33525347056525,69.53742012217828,72.45387751974532,-10,-10,10,10,59,49,49,69,69,3.1622776601683795,10,3.1622776601683795,10
16,11,0.060734500002581626,q,71.4,Limited Time,i,71.38854462961706,65.53187398554532,49.71625020666267,66.24457798467868,49.71625020666267,71.38854462961706,65.53187398554532,66.24457798467868,-10,-10,10,10,59,49,49,69,69,3.1622776601683795,10,3.1622776601683795,10
16,12,0.23610179999377578,q,43.5,Limited Time,i,43.54978452481107,74.05872622774633,45.1154271576293,78.625031204134,45.1154271576293,43.54978452481107,74.05872622774633,78.625031204134,-10,-10,10,10,59,49,49,69,69,3.1622776601683795,10,3.1622776601683795,10
16,13,0.20256220002193004,q,54.1,Limited Time,i,54.08756297671613,72.23413238893514,44.98793937321891,83.55203888575467,44.98793937321891,54.08756297671613,72.23413238893514,83.55203888575467,-10,-10,10,10,59,49,49,69,69,3.1622776601683795,10,3.1622776601683795,10
16,14,0.2152755000279285,q,50.7,Limited Time,i,50.73540687548489,72.9426246736247,47.785364765908184,73.1969904865267,47.785364765908184,50.73540687548489,72.9426246736247,73.1969904865267,-10,-10,10,10,59,49,49,69,69,3.1622776601683795,10,3.1622776601683795,10
16,15,0.04101270000683144,q,50.2,Limited Time,i,50.236054297413446,72.25983407338296,48.33968939477462,77.46199856413782,48.33968939477462,50.236054297413446,72.25983407338296,77.46199856413782,-10,-10,10,10,59,49,49,69,69,3.1622776601683795,10,3.1622776601683795,10
16,16,0.06973119999747723,w,68.0,Limited Time,i,47.37269210468319,67.99805275660346,51.78247042420192,67.71279162047682,51.78247042420192,47.37269210468319,67.99805275660346,67.71279162047682,-10,-10,10,10,59,49,49,69,69,3.1622776601683795,10,3.1622776601683795,10
16,17,0.19120050000492483,w,71.4,Limited Time,i,42.18578739849835,71.36363594591786,47.101322839547734,56.53720751131631,47.101322839547734,42.18578739849835,71.36363594591786,56.53720751131631,-10,-10,10,10,59,49,49,69,69,3.1622776601683795,10,3.1622776601683795,10
16,18,0.20667779998620972,w,72.2,Limited Time,i,56.07193747722341,72.24214858166846,49.8890260937684,57.45883533442445,49.8890260937684,56.07193747722341,72.24214858166846,57.45883533442445,-10,-10,10,10,59,49,49,69,69,3.1622776601683795,10,3.1622776601683795,10
16,19,0.19460579997394234,w,73.7,Limited Time,i,40.400281093344404,73.69594644185709,52.0478980728906,72.52564809277463,52.0478980728906,40.400281093344404,73.69594644185709,72.52564809277463,-10,-10,10,10,59,49,49,69,69,3.1622776601683795,10,3.1622776601683795,10
16,20,0.024546500004362315,w,65.7,Limited Time,i,49.242510480040025,65.69249876165736,50.11831779910968,68.3282887921212,50.11831779910968,49.242510480040025,65.69249876165736,68.3282887921212,-10,-10,10,10,59,49,49,69,69,3.1622776601683795,10,3.1622776601683795,10
