Round Number,Trial Number,Reaction Time,Choice,Reward (Health Points),Time Condition,Payoff Condition,Q mapped,W mapped,O mapped,P mapped,One value,Two value,Three value,Four value,One mean,Two mean,Three mean,Four mean,Mean Shift,One shifted mean,Two shifted mean,Three shifted mean,Four shifted mean,One SD,Two SD,Three SD,Four SD
1,1,0.7576344999833964,w,34.6,Unlimited Time,l,40.03489652240411,34.629157761669994,21.53525887000862,28.810089708387043,21.53525887000862,34.629157761669994,28.810089708387043,40.03489652240411,-10,-0.33,0.33,10,31,21,30.67,31.33,41,3.1622776601683795,3.1622776601683795,3.1622776601683795,3.1622776601683795
1,2,0.5219230999937281,o,21.8,Unlimited Time,l,39.92280562875076,34.49247077293831,21.75975603173537,30.256413501616976,21.75975603173537,34.49247077293831,30.256413501616976,39.92280562875076,-10,-0.33,0.33,10,31,21,30.67,31.33,41,3.1622776601683795,3.1622776601683795,3.1622776601683795,3.1622776601683795
1,3,0.34723650000523776,w,35.5,Unlimited Time,l,46.822991568920244,35.491011347923134,18.71989102206058,35.386860649000106,18.71989102206058,35.491011347923134,35.386860649000106,46.822991568920244,-10,-0.33,0.33,10,31,21,30.67,31.33,41,3.1622776601683795,3.1622776601683795,3.1622776601683795,3.1622776601683795
1,4,0.29789839999284595,w,34.4,Unlimited Time,l,33.76767766067743,34.40971484666778,18.955801134483035,36.18075822427798,18.955801134483035,34.40971484666778,36.18075822427798,33.76767766067743,-10,-0.33,0.33,10,31,21,30.67,31.33,41,3.1622776601683795,3.1622776601683795,3.1622776601683795,3.1622776601683795
1,5,0.2965074999956414,p,28.3,Unlimited Time,l,41.69263312248012,29.59389249215034,21.658457976883383,28.300228732764168,21.658457976883383,29.59389249215034,28.300228732764168,41.69263312248012,-10,-0.33,0.33,10,31,21,30.67,31.33,41,3.1622776601683795,3.1622776601683795,3.1622776601683795,3.1622776601683795
1,6,0.2806396000087261,q,41.5,Unlimited Time,l,41.48160461691502,26.182851209630208,21.27042169544121,30.386457524273716,21.27042169544121,26.182851209630208,30.386457524273716,41.48160461691502,-10,-0.33,0.33,10,31,21,30.67,31.33,41,3.1622776601683795,3.1622776601683795,3.1622776601683795,3.1622776601683795
1,7,0.2534311000490561,q,34.4,Unlimited Time,l,34.440738452488546,32.27772069348891,24.25326720282201,37.7953267772143,24.25326720282201,32.27772069348891,37.7953267772143,34.440738452488546,-10,-0.33,0.33,10,31,21,30.67,31.33,41,3.1622776601683795,3.1622776601683795,3.1622776601683795,3.1622776601683795
1,8,0.07290189998457208,q,44.4,Unlimited Time,l,44.38764381408124,29.35049693550945,23.474113132604554,25.279627208737868,23.474113132604554,29.35049693550945,25.279627208737868,44.38764381408124,-10,-0.33,0.33,10,31,21,30.67,31.33,41,3.1622776601683795,3.1622776601683795,3.1622776601683795,3.1622776601683795
1,9,0.10261199995875359,q,43.1,Unlimited Time,l,43.096810325392056,24.610515478733276,27.042042679536298,29.383969539772647,27.042042679536298,24.610515478733276,29.383969539772647,43.096810325392056,-10,-0.33,0.33,10,31,21,30.67,31.33,41,3.1622776601683795,3.1622776601683795,3.1622776601683795,3.1622776601683795
1,10,0.6039638999500312,q,41.3,Unlimited Time,l,41.292056770655684,28.947832046827042,23.332851911658917,29.019023473924765,23.332851911658917,28.947832046827042,29.019023473924765,41.292056770655684,-10,-0.33,0.33,10,31,21,30.67,31.33,41,3.1622776601683795,3.1622776601683795,3.1622776601683795,3.1622776601683795
1,11,0.032184200012125075,o,23.0,Unlimited Time,l,41.639175273615336,33.77733802695235,23.037645909948598,32.2783835033229,23.037645909948598,33.77733802695235,32.2783835033229,41.639175273615336,-10,-0.33,0.33,10,31,21,30.67,31.33,41,3.1622776601683795,3.1622776601683795,3.1622776601683795,3.1622776601683795
1,12,0.20356419996824116,q,39.8,Unlimited Time,l,39.7737167324402,28.906200923999357,20.036659449224626,30.827236094760462,20.036659449224626,28.906200923999357,30.827236094760462,39.7737167324402,-10,-0.33,0.33,10,31,21,30.67,31.33,41,3.1622776601683795,3.1622776601683795,3.1622776601683795,3.1622776601683795
1,13,0.37252420000731945,w,27.9,Unlimited Time,l,46.26544534120426,27.891579310860298,16.03594354490039,29.203392426221853,16.03594354490039,27.891579310860298,29.203392426221853,46.26544534120426,-10,-0.33,0.33,10,31,21,30.67,31.33,41,3.1622776601683795,3.1622776601683795,3.1622776601683795,3.1622776601683795
1,14,0.32620130002032965,w,28.2,Unlimited Time,l,44.86201761116299,28.187366568842798,17.13309926360457,34.70959917452302,17.13309926360457,28.187366568842798,34.70959917452302,44.86201761116299,-10,-0.33,0.33,10,31,21,30.67,31.33,41,3.1622776601683795,3.1622776601683795,3.1622776601683795,3.1622776601683795
1,15,0.23850530001800507,w,31.3,Unlimited Time,l,41.3947904683142,31.33286755865357,19.06325430428932,28.37183248117285,19.06325430428932,31.33286755865357,28.37183248117285,41.3947904683142,-10,-0.33,0.33,10,31,21,30.67,31.33,41,3.1622776601683795,3.1622776601683795,3.1622776601683795,3.1622776601683795
1,16,0.00364909996278584,p,28.0,Unlimited Time,l,40.98492271469901,30.920451736977512,22.0300221725705,28.039816533883286,22.0300221725705,30.920451736977512,28.039816533883286,40.98492271469901,-10,-0.33,0.33,10,31,21,30.67,31.33,41,3.1622776601683795,3.1622776601683795,3.1622776601683795,3.1622776601683795
1,17,0.4347597000305541,w,35.4,Unlimited Time,l,41.86150371756302,35.35424497688566,20.61585562502114,24.39632508654706,20.61585562502114,35.35424497688566,24.39632508654706,41.86150371756302,-10,-0.33,0.33,10,31,21,30.67,31.33,41,3.1622776601683795,3.1622776601683795,3.1622776601683795,3.1622776601683795
1,18,0.38030479999724776,w,29.9,Unlimited Time,l,39.254238914670275,29.883619307101032,21.358506009997136,32.342676754599665,21.358506009997136,29.883619307101032,32.342676754599665,39.254238914670275,-10,-0.33,0.33,10,31,21,30.67,31.33,41,3.1622776601683795,3.1622776601683795,3.1622776601683795,3.1622776601683795
1,19,0.29215779999503866,q,40.1,Unlimited Time,l,40.09481793652131,31.464407624701504,16.103217163802015,28.593177794689836,16.103217163802015,31.464407624701504,28.593177794689836,40.09481793652131,-10,-0.33,0.33,10,31,21,30.67,31.33,41,3.1622776601683795,3.1622776601683795,3.1622776601683795,3.1622776601683795
1,20,0.24681199999758974,o,20.3,Unlimited Time,l,40.898091050049246,25.8857828670534,20.268992899450353,31.663625950309598,20.268992899450353,25.8857828670534,31.663625950309598,40.898091050049246,-10,-0.33,0.33,10,31,21,30.67,31.33,41,3.1622776601683795,3.1622776601683795,3.1622776601683795,3.1622776601683795
2,1,,,0.0,Limited Time - 400ms,e,37.081423056592406,29.012498383536784,28.55012831255017,31.894075028609873,28.55012831255017,37.081423056592406,31.894075028609873,29.012498383536784,0,0,0,0,31,31,31,31,31,3.1622776601683795,6.324555320336759,8.366600265340756,10
2,2,0.3038105000159703,o,37.4,Limited Time - 400ms,e,19.834961455299357,45.031568505601015,37.44903590980003,24.420042161978877,37.44903590980003,19.834961455299357,24.420042161978877,45.031568505601015,0,0,0,0,31,31,31,31,31,3.1622776601683795,6.324555320336759,8.366600265340756,10
2,3,0.22117330000037327,o,32.1,Limited Time - 400ms,e,30.558824234494363,39.881223271252665,32.05602328805682,17.49120215765604,32.05602328805682,30.558824234494363,17.49120215765604,39.881223271252665,0,0,0,0,31,31,31,31,31,3.1622776601683795,6.324555320336759,8.366600265340756,10
2,4,0.06016039999667555,o,39.7,Limited Time - 400ms,e,30.513197458545417,31.836668380996684,39.721255057131266,15.573507929504558,39.721255057131266,30.513197458545417,15.573507929504558,31.836668380996684,0,0,0,0,31,31,31,31,31,3.1622776601683795,6.324555320336759,8.366600265340756,10
2,5,0.1317722000530921,o,37.7,Limited Time - 400ms,e,28.239619274745206,40.719522124032835,37.724450536005946,43.34123684787323,37.724450536005946,28.239619274745206,43.34123684787323,40.719522124032835,0,0,0,0,31,31,31,31,31,3.1622776601683795,6.324555320336759,8.366600265340756,10
2,6,0.09673900000052527,o,33.9,Limited Time - 400ms,e,31.900094079782395,23.71218598497369,33.886010860102644,28.43718240645839,33.886010860102644,31.900094079782395,28.43718240645839,23.71218598497369,0,0,0,0,31,31,31,31,31,3.1622776601683795,6.324555320336759,8.366600265340756,10
2,7,0.00714719999814406,w,36.7,Limited Time - 400ms,e,44.56276606698037,36.71706498653313,30.613888230796768,33.29992796481133,30.613888230796768,44.56276606698037,33.29992796481133,36.71706498653313,0,0,0,0,31,31,31,31,31,3.1622776601683795,6.324555320336759,8.366600265340756,10
2,8,0.10761249996721745,o,26.3,Limited Time - 400ms,e,35.92122760700008,15.58765128524436,26.317821532227946,17.803226285024834,26.317821532227946,35.92122760700008,17.803226285024834,15.58765128524436,0,0,0,0,31,31,31,31,31,3.1622776601683795,6.324555320336759,8.366600265340756,10
2,9,0.07605699996929616,w,16.2,Limited Time - 400ms,e,24.81351205963655,16.240658982694427,27.967166996143455,27.67379401917156,27.967166996143455,24.81351205963655,27.67379401917156,16.240658982694427,0,0,0,0,31,31,31,31,31,3.1622776601683795,6.324555320336759,8.366600265340756,10
2,10,0.037756500008981675,o,27.0,Limited Time - 400ms,e,29.93837650167189,23.506283643035033,26.984669862576876,31.106928662530095,26.984669862576876,29.93837650167189,31.106928662530095,23.506283643035033,0,0,0,0,31,31,31,31,31,3.1622776601683795,6.324555320336759,8.366600265340756,10
2,11,0.048703999957069755,w,21.1,Limited Time - 400ms,e,32.44662513690272,21.103107342627673,34.76211024132247,26.20776667034386,34.76211024132247,32.44662513690272,26.20776667034386,21.103107342627673,0,0,0,0,31,31,31,31,31,3.1622776601683795,6.324555320336759,8.366600265340756,10
2,12,0.11481160001130775,p,40.3,Limited Time - 400ms,e,30.168956876757576,43.315594320693855,35.26898428520502,40.32045103507056,35.26898428520502,30.168956876757576,40.32045103507056,43.315594320693855,0,0,0,0,31,31,31,31,31,3.1622776601683795,6.324555320336759,8.366600265340756,10
2,13,0.05120919999899343,o,27.9,Limited Time - 400ms,e,27.255123728682715,45.65456043568503,27.91880096511791,32.28024846663894,27.91880096511791,27.255123728682715,32.28024846663894,45.65456043568503,0,0,0,0,31,31,31,31,31,3.1622776601683795,6.324555320336759,8.366600265340756,10
2,14,0.02182669995818287,q,34.6,Limited Time - 400ms,e,34.59881438725688,26.645106797925784,35.6891018809505,26.91587016426481,35.6891018809505,34.59881438725688,26.91587016426481,26.645106797925784,0,0,0,0,31,31,31,31,31,3.1622776601683795,6.324555320336759,8.366600265340756,10
2,15,0.00815770000917837,o,29.6,Limited Time - 400ms,e,22.708993878648187,30.3008569566979,29.571587049660952,35.1240459608643,29.571587049660952,22.708993878648187,35.1240459608643,30.3008569566979,0,0,0,0,31,31,31,31,31,3.1622776601683795,6.324555320336759,8.366600265340756,10
2,16,0.14568610000424087,p,26.0,Limited Time - 400ms,e,23.912231507531644,27.261503869626114,33.41289016271193,26.00446677903497,33.41289016271193,23.912231507531644,26.00446677903497,27.261503869626114,0,0,0,0,31,31,31,31,31,3.1622776601683795,6.324555320336759,8.366600265340756,10
2,17,0.056512400042265654,p,28.0,Limited Time - 400ms,e,31.05629114985027,31.925651346654337,31.28680862460556,27.96197342364359,31.28680862460556,31.05629114985027,27.96197342364359,31.925651346654337,0,0,0,0,31,31,31,31,31,3.1622776601683795,6.324555320336759,8.366600265340756,10
2,18,0.029938099964056164,w,14.2,Limited Time - 400ms,e,31.801018086895667,14.157399430150242,29.051557715272683,43.00464107801077,29.051557715272683,31.801018086895667,43.00464107801077,14.157399430150242,0,0,0,0,31,31,31,31,31,3.1622776601683795,6.324555320336759,8.366600265340756,10
2,19,0.02369380003074184,p,28.4,Limited Time - 400ms,e,27.653549372392753,24.93591551105312,33.987900386218435,28.39893819078949,33.987900386218435,27.653549372392753,28.39893819078949,24.93591551105312,0,0,0,0,31,31,31,31,31,3.1622776601683795,6.324555320336759,8.366600265340756,10
2,20,0.10727540001971647,q,18.6,Limited Time - 400ms,e,18.609155532373137,46.60530715821195,28.771185780395655,29.334478820385375,28.771185780395655,18.609155532373137,29.334478820385375,46.60530715821195,0,0,0,0,31,31,31,31,31,3.1622776601683795,6.324555320336759,8.366600265340756,10
3,1,0.5959450000082143,w,20.4,Limited Time - 800ms,i,20.125835534654797,20.35472063999337,46.27081344411799,33.40152424419621,20.125835534654797,20.35472063999337,46.27081344411799,33.40152424419621,-10,-10,10,10,31,21,21,41,41,3.1622776601683795,10,3.1622776601683795,10
3,2,0.5009761999826878,o,42.2,Limited Time - 800ms,i,20.340576648756787,19.407397376132106,42.23930340410395,40.20493744464541,20.340576648756787,19.407397376132106,42.23930340410395,40.20493744464541,-10,-10,10,10,31,21,21,41,41,3.1622776601683795,10,3.1622776601683795,10
3,3,,,0.0,Limited Time - 800ms,i,27.41036055330379,14.126995757225416,34.752639300478585,42.49208050543834,27.41036055330379,14.126995757225416,34.752639300478585,42.49208050543834,-10,-10,10,10,31,21,21,41,41,3.1622776601683795,10,3.1622776601683795,10
3,4,,,0.0,Limited Time - 800ms,i,20.46115264262101,21.165496189201747,38.01786125259587,46.23002990618373,20.46115264262101,21.165496189201747,38.01786125259587,46.23002990618373,-10,-10,10,10,31,21,21,41,41,3.1622776601683795,10,3.1622776601683795,10
3,5,,,0.0,Limited Time - 800ms,i,17.53974347509918,20.975197851116864,40.49224127884966,40.6020610537865,17.53974347509918,20.975197851116864,40.49224127884966,40.6020610537865,-10,-10,10,10,31,21,21,41,41,3.1622776601683795,10,3.1622776601683795,10
3,6,0.49681419995613396,q,24.8,Limited Time - 800ms,i,24.82880177759966,18.166574889135063,41.5964364255037,42.91562264455646,24.82880177759966,18.166574889135063,41.5964364255037,42.91562264455646,-10,-10,10,10,31,21,21,41,41,3.1622776601683795,10,3.1622776601683795,10
3,7,0.4348675000364892,w,17.7,Limited Time - 800ms,i,21.85119190558772,17.678474584438128,42.96804085124722,48.129863358560364,21.85119190558772,17.678474584438128,42.96804085124722,48.129863358560364,-10,-10,10,10,31,21,21,41,41,3.1622776601683795,10,3.1622776601683795,10
3,8,0.6247506000217982,w,5.9,Limited Time - 800ms,i,17.41389026097188,5.943175842441734,39.827434387330186,47.92521880623982,17.41389026097188,5.943175842441734,39.827434387330186,47.92521880623982,-10,-10,10,10,31,21,21,41,41,3.1622776601683795,10,3.1622776601683795,10
3,9,0.24219580000499263,o,43.5,Limited Time - 800ms,i,21.455353411871585,40.84714859675065,43.511402998855885,50.42170809811223,21.455353411871585,40.84714859675065,43.511402998855885,50.42170809811223,-10,-10,10,10,31,21,21,41,41,3.1622776601683795,10,3.1622776601683795,10
3,10,,,0.0,Limited Time - 800ms,i,19.99240150312174,17.203098968102598,40.29122010487153,39.926609111948665,19.99240150312174,17.203098968102598,40.29122010487153,39.926609111948665,-10,-10,10,10,31,21,21,41,41,3.1622776601683795,10,3.1622776601683795,10
3,11,0.2821099000284448,p,45.5,Limited Time - 800ms,i,21.18984776752427,13.314465053144144,39.29554762717717,45.46901958272524,21.18984776752427,13.314465053144144,39.29554762717717,45.46901958272524,-10,-10,10,10,31,21,21,41,41,3.1622776601683795,10,3.1622776601683795,10
3,12,0.6405387999839149,o,44.8,Limited Time - 800ms,i,26.600781300443252,29.69639128782591,44.79790563436219,44.85766277781248,26.600781300443252,29.69639128782591,44.79790563436219,44.85766277781248,-10,-10,10,10,31,21,21,41,41,3.1622776601683795,10,3.1622776601683795,10
3,13,0.2933836000156589,p,45.9,Limited Time - 800ms,i,23.289901712949344,9.600156074811933,46.4804529100989,45.93780547922605,23.289901712949344,9.600156074811933,46.4804529100989,45.93780547922605,-10,-10,10,10,31,21,21,41,41,3.1622776601683795,10,3.1622776601683795,10
3,14,0.21998519997578114,w,19.0,Limited Time - 800ms,i,20.53323397532922,18.961247553094456,39.526835926862944,32.92148770346194,20.53323397532922,18.961247553094456,39.526835926862944,32.92148770346194,-10,-10,10,10,31,21,21,41,41,3.1622776601683795,10,3.1622776601683795,10
3,15,0.3149365000426769,o,46.0,Limited Time - 800ms,i,17.02163275266874,31.123999057928103,45.95780048407642,49.03819209429149,17.02163275266874,31.123999057928103,45.95780048407642,49.03819209429149,-10,-10,10,10,31,21,21,41,41,3.1622776601683795,10,3.1622776601683795,10
3,16,0.23700510000344366,o,40.1,Limited Time - 800ms,i,21.837444278556852,26.966307326807314,40.082018340333924,33.93112262566386,21.837444278556852,26.966307326807314,40.082018340333924,33.93112262566386,-10,-10,10,10,31,21,21,41,41,3.1622776601683795,10,3.1622776601683795,10
3,17,0.12533760000951588,p,53.4,Limited Time - 800ms,i,19.94008408464195,5.841825898309297,39.7811626970456,53.41819224215298,19.94008408464195,5.841825898309297,39.7811626970456,53.41819224215298,-10,-10,10,10,31,21,21,41,41,3.1622776601683795,10,3.1622776601683795,10
3,18,0.3253466000314802,o,38.8,Limited Time - 800ms,i,22.051834703005845,32.28745450206229,38.76889290914642,25.02006406002397,22.051834703005845,32.28745450206229,38.76889290914642,25.02006406002397,-10,-10,10,10,31,21,21,41,41,3.1622776601683795,10,3.1622776601683795,10
3,19,0.22791940002935007,p,38.8,Limited Time - 800ms,i,22.63864547937797,16.314037742136662,43.62985353863886,38.82106324081619,22.63864547937797,16.314037742136662,43.62985353863886,38.82106324081619,-10,-10,10,10,31,21,21,41,41,3.1622776601683795,10,3.1622776601683795,10
3,20,0.2335004999767989,p,45.8,Limited Time - 800ms,i,13.47011438156331,20.864857411665646,41.31169773494104,45.81843318692964,13.47011438156331,20.864857411665646,41.31169773494104,45.81843318692964,-10,-10,10,10,31,21,21,41,41,3.1622776601683795,10,3.1622776601683795,10
4,1,0.37482979998458177,o,39.9,Unlimited Time,h,30.606864145993438,35.8697569305741,39.86014168535111,46.09473182190976,35.8697569305741,30.606864145993438,39.86014168535111,46.09473182190976,-10,-0.33,0.33,10,31,21,30.67,31.33,41,10,10,10,10
4,2,0.20184559997869655,o,28.9,Unlimited Time,h,25.020171738875604,15.441541545866905,28.907445601201136,31.67221768905165,15.441541545866905,25.020171738875604,28.907445601201136,31.67221768905165,-10,-0.33,0.33,10,31,21,30.67,31.33,41,10,10,10,10
4,3,0.17896400002064183,o,37.0,Unlimited Time,h,23.56885745356292,10.014432911335604,37.0135285674726,23.032632289629884,10.014432911335604,23.56885745356292,37.0135285674726,23.032632289629884,-10,-0.33,0.33,10,31,21,30.67,31.33,41,10,10,10,10
4,4,0.033944199967663735,o,48.1,Unlimited Time,h,40.165677677630924,31.092096121524904,48.11133963197763,40.43277970031504,31.092096121524904,40.165677677630924,48.11133963197763,40.43277970031504,-10,-0.33,0.33,10,31,21,30.67,31.33,41,10,10,10,10
4,5,0.11587719997623935,o,24.9,Unlimited Time,h,29.560042737949964,32.735215692842,24.869830308724126,44.276774099542365,32.735215692842,29.560042737949964,24.869830308724126,44.276774099542365,-10,-0.33,0.33,10,31,21,30.67,31.33,41,10,10,10,10
4,6,0.15780300000915304,o,30.6,Unlimited Time,h,29.36156671902842,27.341205223951917,30.595989645136513,36.08459580745013,27.341205223951917,29.36156671902842,30.595989645136513,36.08459580745013,-10,-0.33,0.33,10,31,21,30.67,31.33,41,10,10,10,10
4,7,0.06571469997288659,o,18.0,Unlimited Time,h,61.521511519224035,22.868767963569347,18.014743643866122,48.36209351139257,22.868767963569347,61.521511519224035,18.014743643866122,48.36209351139257,-10,-0.33,0.33,10,31,21,30.67,31.33,41,10,10,10,10
4,8,0.06919369997922331,o,26.5,Unlimited Time,h,29.87121165088978,33.5624198965372,26.460402952199928,42.98899083722665,33.5624198965372,29.87121165088978,26.460402952199928,42.98899083722665,-10,-0.33,0.33,10,31,21,30.67,31.33,41,10,10,10,10
4,9,0.0774604000034742,o,42.3,Unlimited Time,h,28.714178663774767,43.31353259404122,42.27844236234401,50.54957960695739,43.31353259404122,28.714178663774767,42.27844236234401,50.54957960695739,-10,-0.33,0.33,10,31,21,30.67,31.33,41,10,10,10,10
4,10,0.020659899979364127,o,16.0,Unlimited Time,h,29.611326185678834,22.19000052714358,15.955979805094046,61.195012521371005,22.19000052714358,29.611326185678834,15.955979805094046,61.195012521371005,-10,-0.33,0.33,10,31,21,30.67,31.33,41,10,10,10,10
4,11,0.014433300006203353,o,26.6,Unlimited Time,h,44.847030256007734,11.411282470696193,26.59877871763498,46.21051526343404,11.411282470696193,44.847030256007734,26.59877871763498,46.21051526343404,-10,-0.33,0.33,10,31,21,30.67,31.33,41,10,10,10,10
4,12,0.06892259995220229,o,43.6,Unlimited Time,h,41.86320075364671,13.26557468720127,43.6224790340624,53.56805144370999,13.26557468720127,41.86320075364671,43.6224790340624,53.56805144370999,-10,-0.33,0.33,10,31,21,30.67,31.33,41,10,10,10,10
4,13,0.07410160003928468,o,24.8,Unlimited Time,h,25.442588888883428,25.838940244494,24.755018452110374,34.35363693742007,25.838940244494,25.442588888883428,24.755018452110374,34.35363693742007,-10,-0.33,0.33,10,31,21,30.67,31.33,41,10,10,10,10
4,14,0.07981540000764653,o,29.1,Unlimited Time,h,12.319472037467808,23.30260509811865,29.084463013094762,63.770824947622295,23.30260509811865,12.319472037467808,29.084463013094762,63.770824947622295,-10,-0.33,0.33,10,31,21,30.67,31.33,41,10,10,10,10
4,15,0.05716520000714809,o,17.7,Unlimited Time,h,49.324225423629414,9.32325923717894,17.740367630399753,41.81993582507803,9.32325923717894,49.324225423629414,17.740367630399753,41.81993582507803,-10,-0.33,0.33,10,31,21,30.67,31.33,41,10,10,10,10
4,16,0.07800779998069629,o,39.7,Unlimited Time,h,37.889137791109434,22.303030287069067,39.685423856056374,42.55956296493104,22.303030287069067,37.889137791109434,39.685423856056374,42.55956296493104,-10,-0.33,0.33,10,31,21,30.67,31.33,41,10,10,10,10
4,17,0.08743709995178506,o,28.9,Unlimited Time,h,48.07382697863618,37.870293303874774,28.902927437976558,38.58068384701734,37.870293303874774,48.07382697863618,28.902927437976558,38.58068384701734,-10,-0.33,0.33,10,31,21,30.67,31.33,41,10,10,10,10
4,18,0.09751900000264868,o,36.4,Unlimited Time,h,20.157555988515742,13.427793931801158,36.38725878122074,48.07488750057981,13.427793931801158,20.157555988515742,36.38725878122074,48.07488750057981,-10,-0.33,0.33,10,31,21,30.67,31.33,41,10,10,10,10
4,19,0.04361260001314804,o,23.9,Unlimited Time,h,48.95638322838103,23.40839866070393,23.89873277597031,47.993531958077284,23.40839866070393,48.95638322838103,23.89873277597031,47.993531958077284,-10,-0.33,0.33,10,31,21,30.67,31.33,41,10,10,10,10
4,20,0.06063970003742725,o,28.6,Unlimited Time,h,31.12001546607626,16.315760529611982,28.57271768289305,32.645231474090934,16.315760529611982,31.12001546607626,28.57271768289305,32.645231474090934,-10,-0.33,0.33,10,31,21,30.67,31.33,41,10,10,10,10
5,1,,,0.0,Limited Time - 400ms,h,35.8697569305741,46.09473182190976,30.606864145993438,39.86014168535111,35.8697569305741,30.606864145993438,39.86014168535111,46.09473182190976,-10,-0.33,0.33,10,31,21,30.67,31.33,41,10,10,10,10
5,2,,,0.0,Limited Time - 400ms,h,15.441541545866905,31.67221768905165,25.020171738875604,28.907445601201136,15.441541545866905,25.020171738875604,28.907445601201136,31.67221768905165,-10,-0.33,0.33,10,31,21,30.67,31.33,41,10,10,10,10
5,3,0.09617820003768429,w,23.0,Limited Time - 400ms,h,10.014432911335604,23.032632289629884,23.56885745356292,37.0135285674726,10.014432911335604,23.56885745356292,37.0135285674726,23.032632289629884,-10,-0.33,0.33,10,31,21,30.67,31.33,41,10,10,10,10
5,4,0.2120110999676399,w,40.4,Limited Time - 400ms,h,31.092096121524904,40.43277970031504,40.165677677630924,48.11133963197763,31.092096121524904,40.165677677630924,48.11133963197763,40.43277970031504,-10,-0.33,0.33,10,31,21,30.67,31.33,41,10,10,10,10
5,5,0.23277860000962391,w,44.3,Limited Time - 400ms,h,32.735215692842,44.276774099542365,29.560042737949964,24.869830308724126,32.735215692842,29.560042737949964,24.869830308724126,44.276774099542365,-10,-0.33,0.33,10,31,21,30.67,31.33,41,10,10,10,10
5,6,0.09687440004199743,w,36.1,Limited Time - 400ms,h,27.341205223951917,36.08459580745013,29.36156671902842,30.595989645136513,27.341205223951917,29.36156671902842,30.595989645136513,36.08459580745013,-10,-0.33,0.33,10,31,21,30.67,31.33,41,10,10,10,10
5,7,0.057303200010210276,w,48.4,Limited Time - 400ms,h,22.868767963569347,48.36209351139257,61.521511519224035,18.014743643866122,22.868767963569347,61.521511519224035,18.014743643866122,48.36209351139257,-10,-0.33,0.33,10,31,21,30.67,31.33,41,10,10,10,10
5,8,0.05682540003908798,w,43.0,Limited Time - 400ms,h,33.5624198965372,42.98899083722665,29.87121165088978,26.460402952199928,33.5624198965372,29.87121165088978,26.460402952199928,42.98899083722665,-10,-0.33,0.33,10,31,21,30.67,31.33,41,10,10,10,10
5,9,0.025234300002921373,w,50.5,Limited Time - 400ms,h,43.31353259404122,50.54957960695739,28.714178663774767,42.27844236234401,43.31353259404122,28.714178663774767,42.27844236234401,50.54957960695739,-10,-0.33,0.33,10,31,21,30.67,31.33,41,10,10,10,10
5,10,0.04873159999260679,w,61.2,Limited Time - 400ms,h,22.19000052714358,61.195012521371005,29.611326185678834,15.955979805094046,22.19000052714358,29.611326185678834,15.955979805094046,61.195012521371005,-10,-0.33,0.33,10,31,21,30.67,31.33,41,10,10,10,10
5,11,0.10424630000488833,w,46.2,Limited Time - 400ms,h,11.411282470696193,46.21051526343404,44.847030256007734,26.59877871763498,11.411282470696193,44.847030256007734,26.59877871763498,46.21051526343404,-10,-0.33,0.33,10,31,21,30.67,31.33,41,10,10,10,10
5,12,0.2962777999928221,w,53.6,Limited Time - 400ms,h,13.26557468720127,53.56805144370999,41.86320075364671,43.6224790340624,13.26557468720127,41.86320075364671,43.6224790340624,53.56805144370999,-10,-0.33,0.33,10,31,21,30.67,31.33,41,10,10,10,10
5,13,,,0.0,Limited Time - 400ms,h,25.838940244494,34.35363693742007,25.442588888883428,24.755018452110374,25.838940244494,25.442588888883428,24.755018452110374,34.35363693742007,-10,-0.33,0.33,10,31,21,30.67,31.33,41,10,10,10,10
5,14,0.18970049999188632,w,63.8,Limited Time - 400ms,h,23.30260509811865,63.770824947622295,12.319472037467808,29.084463013094762,23.30260509811865,12.319472037467808,29.084463013094762,63.770824947622295,-10,-0.33,0.33,10,31,21,30.67,31.33,41,10,10,10,10
5,15,,,0.0,Limited Time - 400ms,h,9.32325923717894,41.81993582507803,49.324225423629414,17.740367630399753,9.32325923717894,49.324225423629414,17.740367630399753,41.81993582507803,-10,-0.33,0.33,10,31,21,30.67,31.33,41,10,10,10,10
5,16,0.21971320000011474,w,42.6,Limited Time - 400ms,h,22.303030287069067,42.55956296493104,37.889137791109434,39.685423856056374,22.303030287069067,37.889137791109434,39.685423856056374,42.55956296493104,-10,-0.33,0.33,10,31,21,30.67,31.33,41,10,10,10,10
5,17,0.03449580003507435,w,38.6,Limited Time - 400ms,h,37.870293303874774,38.58068384701734,48.07382697863618,28.902927437976558,37.870293303874774,48.07382697863618,28.902927437976558,38.58068384701734,-10,-0.33,0.33,10,31,21,30.67,31.33,41,10,10,10,10
5,18,0.02678449999075383,w,48.1,Limited Time - 400ms,h,13.427793931801158,48.07488750057981,20.157555988515742,36.38725878122074,13.427793931801158,20.157555988515742,36.38725878122074,48.07488750057981,-10,-0.33,0.33,10,31,21,30.67,31.33,41,10,10,10,10
5,19,,,0.0,Limited Time - 400ms,h,23.40839866070393,47.993531958077284,48.95638322838103,23.89873277597031,23.40839866070393,48.95638322838103,23.89873277597031,47.993531958077284,-10,-0.33,0.33,10,31,21,30.67,31.33,41,10,10,10,10
5,20,,,0.0,Limited Time - 400ms,h,16.315760529611982,32.645231474090934,31.12001546607626,28.57271768289305,16.315760529611982,31.12001546607626,28.57271768289305,32.645231474090934,-10,-0.33,0.33,10,31,21,30.67,31.33,41,10,10,10,10
6,1,0.29536109999753535,o,34.6,Limited Time - 800ms,l,28.810089708387043,21.53525887000862,34.629157761669994,40.03489652240411,21.53525887000862,34.629157761669994,28.810089708387043,40.03489652240411,-10,-0.33,0.33,10,31,21,30.67,31.33,41,3.1622776601683795,3.1622776601683795,3.1622776601683795,3.1622776601683795
6,2,0.22706170001765713,o,34.5,Limited Time - 800ms,l,30.256413501616976,21.75975603173537,34.49247077293831,39.92280562875076,21.75975603173537,34.49247077293831,30.256413501616976,39.92280562875076,-10,-0.33,0.33,10,31,21,30.67,31.33,41,3.1622776601683795,3.1622776601683795,3.1622776601683795,3.1622776601683795
6,3,0.5087755999993533,o,35.5,Limited Time - 800ms,l,35.386860649000106,18.71989102206058,35.491011347923134,46.822991568920244,18.71989102206058,35.491011347923134,35.386860649000106,46.822991568920244,-10,-0.33,0.33,10,31,21,30.67,31.33,41,3.1622776601683795,3.1622776601683795,3.1622776601683795,3.1622776601683795
6,4,,,0.0,Limited Time - 800ms,l,36.18075822427798,18.955801134483035,34.40971484666778,33.76767766067743,18.955801134483035,34.40971484666778,36.18075822427798,33.76767766067743,-10,-0.33,0.33,10,31,21,30.67,31.33,41,3.1622776601683795,3.1622776601683795,3.1622776601683795,3.1622776601683795
6,5,0.37320690002525225,o,29.6,Limited Time - 800ms,l,28.300228732764168,21.658457976883383,29.59389249215034,41.69263312248012,21.658457976883383,29.59389249215034,28.300228732764168,41.69263312248012,-10,-0.33,0.33,10,31,21,30.67,31.33,41,3.1622776601683795,3.1622776601683795,3.1622776601683795,3.1622776601683795
6,6,0.34383040003012866,o,26.2,Limited Time - 800ms,l,30.386457524273716,21.27042169544121,26.182851209630208,41.48160461691502,21.27042169544121,26.182851209630208,30.386457524273716,41.48160461691502,-10,-0.33,0.33,10,31,21,30.67,31.33,41,3.1622776601683795,3.1622776601683795,3.1622776601683795,3.1622776601683795
6,7,0.3127892999909818,p,34.4,Limited Time - 800ms,l,37.7953267772143,24.25326720282201,32.27772069348891,34.440738452488546,24.25326720282201,32.27772069348891,37.7953267772143,34.440738452488546,-10,-0.33,0.33,10,31,21,30.67,31.33,41,3.1622776601683795,3.1622776601683795,3.1622776601683795,3.1622776601683795
6,8,0.3060208999668248,p,44.4,Limited Time - 800ms,l,25.279627208737868,23.474113132604554,29.35049693550945,44.38764381408124,23.474113132604554,29.35049693550945,25.279627208737868,44.38764381408124,-10,-0.33,0.33,10,31,21,30.67,31.33,41,3.1622776601683795,3.1622776601683795,3.1622776601683795,3.1622776601683795
6,9,0.24086499999975786,p,43.1,Limited Time - 800ms,l,29.383969539772647,27.042042679536298,24.610515478733276,43.096810325392056,27.042042679536298,24.610515478733276,29.383969539772647,43.096810325392056,-10,-0.33,0.33,10,31,21,30.67,31.33,41,3.1622776601683795,3.1622776601683795,3.1622776601683795,3.1622776601683795
6,10,0.18081340001663193,p,41.3,Limited Time - 800ms,l,29.019023473924765,23.332851911658917,28.947832046827042,41.292056770655684,23.332851911658917,28.947832046827042,29.019023473924765,41.292056770655684,-10,-0.33,0.33,10,31,21,30.67,31.33,41,3.1622776601683795,3.1622776601683795,3.1622776601683795,3.1622776601683795
6,11,0.19385159999364987,p,41.6,Limited Time - 800ms,l,32.2783835033229,23.037645909948598,33.77733802695235,41.639175273615336,23.037645909948598,33.77733802695235,32.2783835033229,41.639175273615336,-10,-0.33,0.33,10,31,21,30.67,31.33,41,3.1622776601683795,3.1622776601683795,3.1622776601683795,3.1622776601683795
6,12,0.14477150002494454,q,30.8,Limited Time - 800ms,l,30.827236094760462,20.036659449224626,28.906200923999357,39.7737167324402,20.036659449224626,28.906200923999357,30.827236094760462,39.7737167324402,-10,-0.33,0.33,10,31,21,30.67,31.33,41,3.1622776601683795,3.1622776601683795,3.1622776601683795,3.1622776601683795
6,13,0.253001699980814,q,29.2,Limited Time - 800ms,l,29.203392426221853,16.03594354490039,27.891579310860298,46.26544534120426,16.03594354490039,27.891579310860298,29.203392426221853,46.26544534120426,-10,-0.33,0.33,10,31,21,30.67,31.33,41,3.1622776601683795,3.1622776601683795,3.1622776601683795,3.1622776601683795
6,14,0.16858319996390492,p,44.9,Limited Time - 800ms,l,34.70959917452302,17.13309926360457,28.187366568842798,44.86201761116299,17.13309926360457,28.187366568842798,34.70959917452302,44.86201761116299,-10,-0.33,0.33,10,31,21,30.67,31.33,41,3.1622776601683795,3.1622776601683795,3.1622776601683795,3.1622776601683795
6,15,0.23641589999897406,o,31.3,Limited Time - 800ms,l,28.37183248117285,19.06325430428932,31.33286755865357,41.3947904683142,19.06325430428932,31.33286755865357,28.37183248117285,41.3947904683142,-10,-0.33,0.33,10,31,21,30.67,31.33,41,3.1622776601683795,3.1622776601683795,3.1622776601683795,3.1622776601683795
6,16,0.05103249999228865,w,22.0,Limited Time - 800ms,l,28.039816533883286,22.0300221725705,30.920451736977512,40.98492271469901,22.0300221725705,30.920451736977512,28.039816533883286,40.98492271469901,-10,-0.33,0.33,10,31,21,30.67,31.33,41,3.1622776601683795,3.1622776601683795,3.1622776601683795,3.1622776601683795
6,17,0.48900050000520423,o,35.4,Limited Time - 800ms,l,24.39632508654706,20.61585562502114,35.35424497688566,41.86150371756302,20.61585562502114,35.35424497688566,24.39632508654706,41.86150371756302,-10,-0.33,0.33,10,31,21,30.67,31.33,41,3.1622776601683795,3.1622776601683795,3.1622776601683795,3.1622776601683795
6,18,0.17858519998844713,q,32.3,Limited Time - 800ms,l,32.342676754599665,21.358506009997136,29.883619307101032,39.254238914670275,21.358506009997136,29.883619307101032,32.342676754599665,39.254238914670275,-10,-0.33,0.33,10,31,21,30.67,31.33,41,3.1622776601683795,3.1622776601683795,3.1622776601683795,3.1622776601683795
6,19,0.058452900033444166,p,40.1,Limited Time - 800ms,l,28.593177794689836,16.103217163802015,31.464407624701504,40.09481793652131,16.103217163802015,31.464407624701504,28.593177794689836,40.09481793652131,-10,-0.33,0.33,10,31,21,30.67,31.33,41,3.1622776601683795,3.1622776601683795,3.1622776601683795,3.1622776601683795
6,20,0.11172499996609986,p,40.9,Limited Time - 800ms,l,31.663625950309598,20.268992899450353,25.8857828670534,40.898091050049246,20.268992899450353,25.8857828670534,31.663625950309598,40.898091050049246,-10,-0.33,0.33,10,31,21,30.67,31.33,41,3.1622776601683795,3.1622776601683795,3.1622776601683795,3.1622776601683795
7,1,0.6768906000070274,w,29.0,Unlimited Time,e,31.894075028609873,29.012498383536784,37.081423056592406,28.55012831255017,28.55012831255017,37.081423056592406,31.894075028609873,29.012498383536784,0,0,0,0,31,31,31,31,31,3.1622776601683795,6.324555320336759,8.366600265340756,10
7,2,0.37799980002455413,w,45.0,Unlimited Time,e,24.420042161978877,45.031568505601015,19.834961455299357,37.44903590980003,37.44903590980003,19.834961455299357,24.420042161978877,45.031568505601015,0,0,0,0,31,31,31,31,31,3.1622776601683795,6.324555320336759,8.366600265340756,10
7,3,0.26580519997514784,o,30.6,Unlimited Time,e,17.49120215765604,39.881223271252665,30.558824234494363,32.05602328805682,32.05602328805682,30.558824234494363,17.49120215765604,39.881223271252665,0,0,0,0,31,31,31,31,31,3.1622776601683795,6.324555320336759,8.366600265340756,10
7,4,0.40884739998728037,p,39.7,Unlimited Time,e,15.573507929504558,31.836668380996684,30.513197458545417,39.721255057131266,39.721255057131266,30.513197458545417,15.573507929504558,31.836668380996684,0,0,0,0,31,31,31,31,31,3.1622776601683795,6.324555320336759,8.366600265340756,10
7,5,0.3709206000203267,w,40.7,Unlimited Time,e,43.34123684787323,40.719522124032835,28.239619274745206,37.724450536005946,37.724450536005946,28.239619274745206,43.34123684787323,40.719522124032835,0,0,0,0,31,31,31,31,31,3.1622776601683795,6.324555320336759,8.366600265340756,10
7,6,0.3685756999766454,w,23.7,Unlimited Time,e,28.43718240645839,23.71218598497369,31.900094079782395,33.886010860102644,33.886010860102644,31.900094079782395,28.43718240645839,23.71218598497369,0,0,0,0,31,31,31,31,31,3.1622776601683795,6.324555320336759,8.366600265340756,10
7,7,0.1405869000009261,p,30.6,Unlimited Time,e,33.29992796481133,36.71706498653313,44.56276606698037,30.613888230796768,30.613888230796768,44.56276606698037,33.29992796481133,36.71706498653313,0,0,0,0,31,31,31,31,31,3.1622776601683795,6.324555320336759,8.366600265340756,10
7,8,0.40561269997851923,p,26.3,Unlimited Time,e,17.803226285024834,15.58765128524436,35.92122760700008,26.317821532227946,26.317821532227946,35.92122760700008,17.803226285024834,15.58765128524436,0,0,0,0,31,31,31,31,31,3.1622776601683795,6.324555320336759,8.366600265340756,10
7,9,0.3839323000283912,o,24.8,Unlimited Time,e,27.67379401917156,16.240658982694427,24.81351205963655,27.967166996143455,27.967166996143455,24.81351205963655,27.67379401917156,16.240658982694427,0,0,0,0,31,31,31,31,31,3.1622776601683795,6.324555320336759,8.366600265340756,10
7,10,0.34947159996954724,p,27.0,Unlimited Time,e,31.106928662530095,23.506283643035033,29.93837650167189,26.984669862576876,26.984669862576876,29.93837650167189,31.106928662530095,23.506283643035033,0,0,0,0,31,31,31,31,31,3.1622776601683795,6.324555320336759,8.366600265340756,10
7,11,0.28739200002746657,q,26.2,Unlimited Time,e,26.20776667034386,21.103107342627673,32.44662513690272,34.76211024132247,34.76211024132247,32.44662513690272,26.20776667034386,21.103107342627673,0,0,0,0,31,31,31,31,31,3.1622776601683795,6.324555320336759,8.366600265340756,10
7,12,0.09739070001523942,o,30.2,Unlimited Time,e,40.32045103507056,43.315594320693855,30.168956876757576,35.26898428520502,35.26898428520502,30.168956876757576,40.32045103507056,43.315594320693855,0,0,0,0,31,31,31,31,31,3.1622776601683795,6.324555320336759,8.366600265340756,10
7,13,0.29635610000696033,o,27.3,Unlimited Time,e,32.28024846663894,45.65456043568503,27.255123728682715,27.91880096511791,27.91880096511791,27.255123728682715,32.28024846663894,45.65456043568503,0,0,0,0,31,31,31,31,31,3.1622776601683795,6.324555320336759,8.366600265340756,10
7,14,0.15137940004933625,p,35.7,Unlimited Time,e,26.91587016426481,26.645106797925784,34.59881438725688,35.6891018809505,35.6891018809505,34.59881438725688,26.91587016426481,26.645106797925784,0,0,0,0,31,31,31,31,31,3.1622776601683795,6.324555320336759,8.366600265340756,10
7,15,0.3466457000467926,o,22.7,Unlimited Time,e,35.1240459608643,30.3008569566979,22.708993878648187,29.571587049660952,29.571587049660952,22.708993878648187,35.1240459608643,30.3008569566979,0,0,0,0,31,31,31,31,31,3.1622776601683795,6.324555320336759,8.366600265340756,10
7,16,0.2427591999876313,p,33.4,Unlimited Time,e,26.00446677903497,27.261503869626114,23.912231507531644,33.41289016271193,33.41289016271193,23.912231507531644,26.00446677903497,27.261503869626114,0,0,0,0,31,31,31,31,31,3.1622776601683795,6.324555320336759,8.366600265340756,10
7,17,0.29558529995847493,w,31.9,Unlimited Time,e,27.96197342364359,31.925651346654337,31.05629114985027,31.28680862460556,31.28680862460556,31.05629114985027,27.96197342364359,31.925651346654337,0,0,0,0,31,31,31,31,31,3.1622776601683795,6.324555320336759,8.366600265340756,10
7,18,0.24558149999938905,p,29.1,Unlimited Time,e,43.00464107801077,14.157399430150242,31.801018086895667,29.051557715272683,29.051557715272683,31.801018086895667,43.00464107801077,14.157399430150242,0,0,0,0,31,31,31,31,31,3.1622776601683795,6.324555320336759,8.366600265340756,10
7,19,0.23756119998870417,p,34.0,Unlimited Time,e,28.39893819078949,24.93591551105312,27.653549372392753,33.987900386218435,33.987900386218435,27.653549372392753,28.39893819078949,24.93591551105312,0,0,0,0,31,31,31,31,31,3.1622776601683795,6.324555320336759,8.366600265340756,10
7,20,0.3814157000160776,o,18.6,Unlimited Time,e,29.334478820385375,46.60530715821195,18.609155532373137,28.771185780395655,28.771185780395655,18.609155532373137,29.334478820385375,46.60530715821195,0,0,0,0,31,31,31,31,31,3.1622776601683795,6.324555320336759,8.366600265340756,10
8,1,0.1871945000020787,o,46.1,Limited Time - 400ms,h,30.606864145993438,39.86014168535111,46.09473182190976,35.8697569305741,35.8697569305741,30.606864145993438,39.86014168535111,46.09473182190976,-10,-0.33,0.33,10,31,21,30.67,31.33,41,10,10,10,10
8,2,0.014297300018370152,o,31.7,Limited Time - 400ms,h,25.020171738875604,28.907445601201136,31.67221768905165,15.441541545866905,15.441541545866905,25.020171738875604,28.907445601201136,31.67221768905165,-10,-0.33,0.33,10,31,21,30.67,31.33,41,10,10,10,10
8,3,0.17508290003752336,o,23.0,Limited Time - 400ms,h,23.56885745356292,37.0135285674726,23.032632289629884,10.014432911335604,10.014432911335604,23.56885745356292,37.0135285674726,23.032632289629884,-10,-0.33,0.33,10,31,21,30.67,31.33,41,10,10,10,10
8,4,0.11011599999619648,o,40.4,Limited Time - 400ms,h,40.165677677630924,48.11133963197763,40.43277970031504,31.092096121524904,31.092096121524904,40.165677677630924,48.11133963197763,40.43277970031504,-10,-0.33,0.33,10,31,21,30.67,31.33,41,10,10,10,10
8,5,0.329425000003539,o,44.3,Limited Time - 400ms,h,29.560042737949964,24.869830308724126,44.276774099542365,32.735215692842,32.735215692842,29.560042737949964,24.869830308724126,44.276774099542365,-10,-0.33,0.33,10,31,21,30.67,31.33,41,10,10,10,10
8,6,0.23407320003025234,o,36.1,Limited Time - 400ms,h,29.36156671902842,30.595989645136513,36.08459580745013,27.341205223951917,27.341205223951917,29.36156671902842,30.595989645136513,36.08459580745013,-10,-0.33,0.33,10,31,21,30.67,31.33,41,10,10,10,10
8,7,0.30445210001198575,o,48.4,Limited Time - 400ms,h,61.521511519224035,18.014743643866122,48.36209351139257,22.868767963569347,22.868767963569347,61.521511519224035,18.014743643866122,48.36209351139257,-10,-0.33,0.33,10,31,21,30.67,31.33,41,10,10,10,10
8,8,0.27057969995075837,o,43.0,Limited Time - 400ms,h,29.87121165088978,26.460402952199928,42.98899083722665,33.5624198965372,33.5624198965372,29.87121165088978,26.460402952199928,42.98899083722665,-10,-0.33,0.33,10,31,21,30.67,31.33,41,10,10,10,10
8,9,0.20153959997696802,o,50.5,Limited Time - 400ms,h,28.714178663774767,42.27844236234401,50.54957960695739,43.31353259404122,43.31353259404122,28.714178663774767,42.27844236234401,50.54957960695739,-10,-0.33,0.33,10,31,21,30.67,31.33,41,10,10,10,10
8,10,0.27699400001438335,o,61.2,Limited Time - 400ms,h,29.611326185678834,15.955979805094046,61.195012521371005,22.19000052714358,22.19000052714358,29.611326185678834,15.955979805094046,61.195012521371005,-10,-0.33,0.33,10,31,21,30.67,31.33,41,10,10,10,10
8,11,0.3245500000193715,o,46.2,Limited Time - 400ms,h,44.847030256007734,26.59877871763498,46.21051526343404,11.411282470696193,11.411282470696193,44.847030256007734,26.59877871763498,46.21051526343404,-10,-0.33,0.33,10,31,21,30.67,31.33,41,10,10,10,10
8,12,0.32469290000153705,o,53.6,Limited Time - 400ms,h,41.86320075364671,43.6224790340624,53.56805144370999,13.26557468720127,13.26557468720127,41.86320075364671,43.6224790340624,53.56805144370999,-10,-0.33,0.33,10,31,21,30.67,31.33,41,10,10,10,10
8,13,0.28458360000513494,o,34.4,Limited Time - 400ms,h,25.442588888883428,24.755018452110374,34.35363693742007,25.838940244494,25.838940244494,25.442588888883428,24.755018452110374,34.35363693742007,-10,-0.33,0.33,10,31,21,30.67,31.33,41,10,10,10,10
8,14,0.2709155000047758,o,63.8,Limited Time - 400ms,h,12.319472037467808,29.084463013094762,63.770824947622295,23.30260509811865,23.30260509811865,12.319472037467808,29.084463013094762,63.770824947622295,-10,-0.33,0.33,10,31,21,30.67,31.33,41,10,10,10,10
8,15,0.22049440001137555,o,41.8,Limited Time - 400ms,h,49.324225423629414,17.740367630399753,41.81993582507803,9.32325923717894,9.32325923717894,49.324225423629414,17.740367630399753,41.81993582507803,-10,-0.33,0.33,10,31,21,30.67,31.33,41,10,10,10,10
8,16,0.14449470001272857,o,42.6,Limited Time - 400ms,h,37.889137791109434,39.685423856056374,42.55956296493104,22.303030287069067,22.303030287069067,37.889137791109434,39.685423856056374,42.55956296493104,-10,-0.33,0.33,10,31,21,30.67,31.33,41,10,10,10,10
8,17,0.15223760000662878,o,38.6,Limited Time - 400ms,h,48.07382697863618,28.902927437976558,38.58068384701734,37.870293303874774,37.870293303874774,48.07382697863618,28.902927437976558,38.58068384701734,-10,-0.33,0.33,10,31,21,30.67,31.33,41,10,10,10,10
8,18,0.08064250001916662,o,48.1,Limited Time - 400ms,h,20.157555988515742,36.38725878122074,48.07488750057981,13.427793931801158,13.427793931801158,20.157555988515742,36.38725878122074,48.07488750057981,-10,-0.33,0.33,10,31,21,30.67,31.33,41,10,10,10,10
8,19,0.20041279995348305,o,48.0,Limited Time - 400ms,h,48.95638322838103,23.89873277597031,47.993531958077284,23.40839866070393,23.40839866070393,48.95638322838103,23.89873277597031,47.993531958077284,-10,-0.33,0.33,10,31,21,30.67,31.33,41,10,10,10,10
8,20,,,0.0,Limited Time - 400ms,h,31.12001546607626,28.57271768289305,32.645231474090934,16.315760529611982,16.315760529611982,31.12001546607626,28.57271768289305,32.645231474090934,-10,-0.33,0.33,10,31,21,30.67,31.33,41,10,10,10,10
9,1,,,0.0,Limited Time - 800ms,l,34.629157761669994,21.53525887000862,40.03489652240411,28.810089708387043,21.53525887000862,34.629157761669994,28.810089708387043,40.03489652240411,-10,-0.33,0.33,10,31,21,30.67,31.33,41,3.1622776601683795,3.1622776601683795,3.1622776601683795,3.1622776601683795
9,2,0.45719450002070516,o,39.9,Limited Time - 800ms,l,34.49247077293831,21.75975603173537,39.92280562875076,30.256413501616976,21.75975603173537,34.49247077293831,30.256413501616976,39.92280562875076,-10,-0.33,0.33,10,31,21,30.67,31.33,41,3.1622776601683795,3.1622776601683795,3.1622776601683795,3.1622776601683795
9,3,0.20364359999075532,o,46.8,Limited Time - 800ms,l,35.491011347923134,18.71989102206058,46.822991568920244,35.386860649000106,18.71989102206058,35.491011347923134,35.386860649000106,46.822991568920244,-10,-0.33,0.33,10,31,21,30.67,31.33,41,3.1622776601683795,3.1622776601683795,3.1622776601683795,3.1622776601683795
9,4,,,0.0,Limited Time - 800ms,l,34.40971484666778,18.955801134483035,33.76767766067743,36.18075822427798,18.955801134483035,34.40971484666778,36.18075822427798,33.76767766067743,-10,-0.33,0.33,10,31,21,30.67,31.33,41,3.1622776601683795,3.1622776601683795,3.1622776601683795,3.1622776601683795
9,5,0.08356980001553893,o,41.7,Limited Time - 800ms,l,29.59389249215034,21.658457976883383,41.69263312248012,28.300228732764168,21.658457976883383,29.59389249215034,28.300228732764168,41.69263312248012,-10,-0.33,0.33,10,31,21,30.67,31.33,41,3.1622776601683795,3.1622776601683795,3.1622776601683795,3.1622776601683795
9,6,0.09770189999835566,o,41.5,Limited Time - 800ms,l,26.182851209630208,21.27042169544121,41.48160461691502,30.386457524273716,21.27042169544121,26.182851209630208,30.386457524273716,41.48160461691502,-10,-0.33,0.33,10,31,21,30.67,31.33,41,3.1622776601683795,3.1622776601683795,3.1622776601683795,3.1622776601683795
9,7,0.030272799951490015,o,34.4,Limited Time - 800ms,l,32.27772069348891,24.25326720282201,34.440738452488546,37.7953267772143,24.25326720282201,32.27772069348891,37.7953267772143,34.440738452488546,-10,-0.33,0.33,10,31,21,30.67,31.33,41,3.1622776601683795,3.1622776601683795,3.1622776601683795,3.1622776601683795
9,8,0.15934990003006533,o,44.4,Limited Time - 800ms,l,29.35049693550945,23.474113132604554,44.38764381408124,25.279627208737868,23.474113132604554,29.35049693550945,25.279627208737868,44.38764381408124,-10,-0.33,0.33,10,31,21,30.67,31.33,41,3.1622776601683795,3.1622776601683795,3.1622776601683795,3.1622776601683795
9,9,0.13245269999606535,o,43.1,Limited Time - 800ms,l,24.610515478733276,27.042042679536298,43.096810325392056,29.383969539772647,27.042042679536298,24.610515478733276,29.383969539772647,43.096810325392056,-10,-0.33,0.33,10,31,21,30.67,31.33,41,3.1622776601683795,3.1622776601683795,3.1622776601683795,3.1622776601683795
9,10,0.0011798000195994973,o,41.3,Limited Time - 800ms,l,28.947832046827042,23.332851911658917,41.292056770655684,29.019023473924765,23.332851911658917,28.947832046827042,29.019023473924765,41.292056770655684,-10,-0.33,0.33,10,31,21,30.67,31.33,41,3.1622776601683795,3.1622776601683795,3.1622776601683795,3.1622776601683795
9,11,0.2003143999609165,p,32.3,Limited Time - 800ms,l,33.77733802695235,23.037645909948598,41.639175273615336,32.2783835033229,23.037645909948598,33.77733802695235,32.2783835033229,41.639175273615336,-10,-0.33,0.33,10,31,21,30.67,31.33,41,3.1622776601683795,3.1622776601683795,3.1622776601683795,3.1622776601683795
9,12,0.11566890001995489,p,30.8,Limited Time - 800ms,l,28.906200923999357,20.036659449224626,39.7737167324402,30.827236094760462,20.036659449224626,28.906200923999357,30.827236094760462,39.7737167324402,-10,-0.33,0.33,10,31,21,30.67,31.33,41,3.1622776601683795,3.1622776601683795,3.1622776601683795,3.1622776601683795
9,13,0.12584669998614118,w,16.0,Limited Time - 800ms,l,27.891579310860298,16.03594354490039,46.26544534120426,29.203392426221853,16.03594354490039,27.891579310860298,29.203392426221853,46.26544534120426,-10,-0.33,0.33,10,31,21,30.67,31.33,41,3.1622776601683795,3.1622776601683795,3.1622776601683795,3.1622776601683795
9,14,0.11820300004910678,w,17.1,Limited Time - 800ms,l,28.187366568842798,17.13309926360457,44.86201761116299,34.70959917452302,17.13309926360457,28.187366568842798,34.70959917452302,44.86201761116299,-10,-0.33,0.33,10,31,21,30.67,31.33,41,3.1622776601683795,3.1622776601683795,3.1622776601683795,3.1622776601683795
9,15,0.22852100001182407,w,19.1,Limited Time - 800ms,l,31.33286755865357,19.06325430428932,41.3947904683142,28.37183248117285,19.06325430428932,31.33286755865357,28.37183248117285,41.3947904683142,-10,-0.33,0.33,10,31,21,30.67,31.33,41,3.1622776601683795,3.1622776601683795,3.1622776601683795,3.1622776601683795
9,16,0.10530569998081774,w,22.0,Limited Time - 800ms,l,30.920451736977512,22.0300221725705,40.98492271469901,28.039816533883286,22.0300221725705,30.920451736977512,28.039816533883286,40.98492271469901,-10,-0.33,0.33,10,31,21,30.67,31.33,41,3.1622776601683795,3.1622776601683795,3.1622776601683795,3.1622776601683795
9,17,0.01046600000699982,w,20.6,Limited Time - 800ms,l,35.35424497688566,20.61585562502114,41.86150371756302,24.39632508654706,20.61585562502114,35.35424497688566,24.39632508654706,41.86150371756302,-10,-0.33,0.33,10,31,21,30.67,31.33,41,3.1622776601683795,3.1622776601683795,3.1622776601683795,3.1622776601683795
9,18,0.12876380002126098,p,32.3,Limited Time - 800ms,l,29.883619307101032,21.358506009997136,39.254238914670275,32.342676754599665,21.358506009997136,29.883619307101032,32.342676754599665,39.254238914670275,-10,-0.33,0.33,10,31,21,30.67,31.33,41,3.1622776601683795,3.1622776601683795,3.1622776601683795,3.1622776601683795
9,19,0.03651750000426546,p,28.6,Limited Time - 800ms,l,31.464407624701504,16.103217163802015,40.09481793652131,28.593177794689836,16.103217163802015,31.464407624701504,28.593177794689836,40.09481793652131,-10,-0.33,0.33,10,31,21,30.67,31.33,41,3.1622776601683795,3.1622776601683795,3.1622776601683795,3.1622776601683795
9,20,0.12746780004817992,w,20.3,Limited Time - 800ms,l,25.8857828670534,20.268992899450353,40.898091050049246,31.663625950309598,20.268992899450353,25.8857828670534,31.663625950309598,40.898091050049246,-10,-0.33,0.33,10,31,21,30.67,31.33,41,3.1622776601683795,3.1622776601683795,3.1622776601683795,3.1622776601683795
10,1,0.3508053000550717,o,46.3,Unlimited Time,i,20.125835534654797,33.40152424419621,46.27081344411799,20.35472063999337,20.125835534654797,20.35472063999337,46.27081344411799,33.40152424419621,-10,-10,10,10,31,21,21,41,41,3.1622776601683795,10,3.1622776601683795,10
10,2,0.4668791000149213,p,19.4,Unlimited Time,i,20.340576648756787,40.20493744464541,42.23930340410395,19.407397376132106,20.340576648756787,19.407397376132106,42.23930340410395,40.20493744464541,-10,-10,10,10,31,21,21,41,41,3.1622776601683795,10,3.1622776601683795,10
10,3,0.31912240001838654,o,34.8,Unlimited Time,i,27.41036055330379,42.49208050543834,34.752639300478585,14.126995757225416,27.41036055330379,14.126995757225416,34.752639300478585,42.49208050543834,-10,-10,10,10,31,21,21,41,41,3.1622776601683795,10,3.1622776601683795,10
10,4,0.34034080000128597,o,38.0,Unlimited Time,i,20.46115264262101,46.23002990618373,38.01786125259587,21.165496189201747,20.46115264262101,21.165496189201747,38.01786125259587,46.23002990618373,-10,-10,10,10,31,21,21,41,41,3.1622776601683795,10,3.1622776601683795,10
10,5,0.1374358999892138,p,21.0,Unlimited Time,i,17.53974347509918,40.6020610537865,40.49224127884966,20.975197851116864,17.53974347509918,20.975197851116864,40.49224127884966,40.6020610537865,-10,-10,10,10,31,21,21,41,41,3.1622776601683795,10,3.1622776601683795,10
10,6,0.01589320000493899,p,18.2,Unlimited Time,i,24.82880177759966,42.91562264455646,41.5964364255037,18.166574889135063,24.82880177759966,18.166574889135063,41.5964364255037,42.91562264455646,-10,-10,10,10,31,21,21,41,41,3.1622776601683795,10,3.1622776601683795,10
10,7,0.7834226000122726,w,48.1,Unlimited Time,i,21.85119190558772,48.129863358560364,42.96804085124722,17.678474584438128,21.85119190558772,17.678474584438128,42.96804085124722,48.129863358560364,-10,-10,10,10,31,21,21,41,41,3.1622776601683795,10,3.1622776601683795,10
10,8,0.2887697000405751,w,47.9,Unlimited Time,i,17.41389026097188,47.92521880623982,39.827434387330186,5.943175842441734,17.41389026097188,5.943175842441734,39.827434387330186,47.92521880623982,-10,-10,10,10,31,21,21,41,41,3.1622776601683795,10,3.1622776601683795,10
10,9,0.3004244000185281,p,40.8,Unlimited Time,i,21.455353411871585,50.42170809811223,43.511402998855885,40.84714859675065,21.455353411871585,40.84714859675065,43.511402998855885,50.42170809811223,-10,-10,10,10,31,21,21,41,41,3.1622776601683795,10,3.1622776601683795,10
10,10,0.4368342000525445,w,39.9,Unlimited Time,i,19.99240150312174,39.926609111948665,40.29122010487153,17.203098968102598,19.99240150312174,17.203098968102598,40.29122010487153,39.926609111948665,-10,-10,10,10,31,21,21,41,41,3.1622776601683795,10,3.1622776601683795,10
10,11,0.4875070999842137,o,39.3,Unlimited Time,i,21.18984776752427,45.46901958272524,39.29554762717717,13.314465053144144,21.18984776752427,13.314465053144144,39.29554762717717,45.46901958272524,-10,-10,10,10,31,21,21,41,41,3.1622776601683795,10,3.1622776601683795,10
10,12,0.22510059998603538,o,44.8,Unlimited Time,i,26.600781300443252,44.85766277781248,44.79790563436219,29.69639128782591,26.600781300443252,29.69639128782591,44.79790563436219,44.85766277781248,-10,-10,10,10,31,21,21,41,41,3.1622776601683795,10,3.1622776601683795,10
10,13,0.22682679997524247,o,46.5,Unlimited Time,i,23.289901712949344,45.93780547922605,46.4804529100989,9.600156074811933,23.289901712949344,9.600156074811933,46.4804529100989,45.93780547922605,-10,-10,10,10,31,21,21,41,41,3.1622776601683795,10,3.1622776601683795,10
10,14,0.21220760000869632,o,39.5,Unlimited Time,i,20.53323397532922,32.92148770346194,39.526835926862944,18.961247553094456,20.53323397532922,18.961247553094456,39.526835926862944,32.92148770346194,-10,-10,10,10,31,21,21,41,41,3.1622776601683795,10,3.1622776601683795,10
10,15,0.36210820003179833,q,17.0,Unlimited Time,i,17.02163275266874,49.03819209429149,45.95780048407642,31.123999057928103,17.02163275266874,31.123999057928103,45.95780048407642,49.03819209429149,-10,-10,10,10,31,21,21,41,41,3.1622776601683795,10,3.1622776601683795,10
10,16,0.3065235000103712,q,21.8,Unlimited Time,i,21.837444278556852,33.93112262566386,40.082018340333924,26.966307326807314,21.837444278556852,26.966307326807314,40.082018340333924,33.93112262566386,-10,-10,10,10,31,21,21,41,41,3.1622776601683795,10,3.1622776601683795,10
10,17,0.2616258999914862,q,19.9,Unlimited Time,i,19.94008408464195,53.41819224215298,39.7811626970456,5.841825898309297,19.94008408464195,5.841825898309297,39.7811626970456,53.41819224215298,-10,-10,10,10,31,21,21,41,41,3.1622776601683795,10,3.1622776601683795,10
10,18,0.38604620000114664,q,22.1,Unlimited Time,i,22.051834703005845,25.02006406002397,38.76889290914642,32.28745450206229,22.051834703005845,32.28745450206229,38.76889290914642,25.02006406002397,-10,-10,10,10,31,21,21,41,41,3.1622776601683795,10,3.1622776601683795,10
10,19,0.17215569998370484,o,43.6,Unlimited Time,i,22.63864547937797,38.82106324081619,43.62985353863886,16.314037742136662,22.63864547937797,16.314037742136662,43.62985353863886,38.82106324081619,-10,-10,10,10,31,21,21,41,41,3.1622776601683795,10,3.1622776601683795,10
10,20,0.4068381999968551,o,41.3,Unlimited Time,i,13.47011438156331,45.81843318692964,41.31169773494104,20.864857411665646,13.47011438156331,20.864857411665646,41.31169773494104,45.81843318692964,-10,-10,10,10,31,21,21,41,41,3.1622776601683795,10,3.1622776601683795,10
11,1,,,0.0,Limited Time - 400ms,l,40.03489652240411,21.53525887000862,28.810089708387043,34.629157761669994,21.53525887000862,34.629157761669994,28.810089708387043,40.03489652240411,-10,-0.33,0.33,10,31,21,30.67,31.33,41,3.1622776601683795,3.1622776601683795,3.1622776601683795,3.1622776601683795
11,2,0.1433726999675855,o,30.3,Limited Time - 400ms,l,39.92280562875076,21.75975603173537,30.256413501616976,34.49247077293831,21.75975603173537,34.49247077293831,30.256413501616976,39.92280562875076,-10,-0.33,0.33,10,31,21,30.67,31.33,41,3.1622776601683795,3.1622776601683795,3.1622776601683795,3.1622776601683795
11,3,0.1461799000389874,o,35.4,Limited Time - 400ms,l,46.822991568920244,18.71989102206058,35.386860649000106,35.491011347923134,18.71989102206058,35.491011347923134,35.386860649000106,46.822991568920244,-10,-0.33,0.33,10,31,21,30.67,31.33,41,3.1622776601683795,3.1622776601683795,3.1622776601683795,3.1622776601683795
11,4,0.1767571999807842,o,36.2,Limited Time - 400ms,l,33.76767766067743,18.955801134483035,36.18075822427798,34.40971484666778,18.955801134483035,34.40971484666778,36.18075822427798,33.76767766067743,-10,-0.33,0.33,10,31,21,30.67,31.33,41,3.1622776601683795,3.1622776601683795,3.1622776601683795,3.1622776601683795
11,5,0.08033130003605038,o,28.3,Limited Time - 400ms,l,41.69263312248012,21.658457976883383,28.300228732764168,29.59389249215034,21.658457976883383,29.59389249215034,28.300228732764168,41.69263312248012,-10,-0.33,0.33,10,31,21,30.67,31.33,41,3.1622776601683795,3.1622776601683795,3.1622776601683795,3.1622776601683795
11,6,0.047783899994101375,o,30.4,Limited Time - 400ms,l,41.48160461691502,21.27042169544121,30.386457524273716,26.182851209630208,21.27042169544121,26.182851209630208,30.386457524273716,41.48160461691502,-10,-0.33,0.33,10,31,21,30.67,31.33,41,3.1622776601683795,3.1622776601683795,3.1622776601683795,3.1622776601683795
11,7,0.03255100001115352,o,37.8,Limited Time - 400ms,l,34.440738452488546,24.25326720282201,37.7953267772143,32.27772069348891,24.25326720282201,32.27772069348891,37.7953267772143,34.440738452488546,-10,-0.33,0.33,10,31,21,30.67,31.33,41,3.1622776601683795,3.1622776601683795,3.1622776601683795,3.1622776601683795
11,8,0.059334399993531406,o,25.3,Limited Time - 400ms,l,44.38764381408124,23.474113132604554,25.279627208737868,29.35049693550945,23.474113132604554,29.35049693550945,25.279627208737868,44.38764381408124,-10,-0.33,0.33,10,31,21,30.67,31.33,41,3.1622776601683795,3.1622776601683795,3.1622776601683795,3.1622776601683795
11,9,0.04451609996613115,o,29.4,Limited Time - 400ms,l,43.096810325392056,27.042042679536298,29.383969539772647,24.610515478733276,27.042042679536298,24.610515478733276,29.383969539772647,43.096810325392056,-10,-0.33,0.33,10,31,21,30.67,31.33,41,3.1622776601683795,3.1622776601683795,3.1622776601683795,3.1622776601683795
11,10,0.07479639997472987,o,29.0,Limited Time - 400ms,l,41.292056770655684,23.332851911658917,29.019023473924765,28.947832046827042,23.332851911658917,28.947832046827042,29.019023473924765,41.292056770655684,-10,-0.33,0.33,10,31,21,30.67,31.33,41,3.1622776601683795,3.1622776601683795,3.1622776601683795,3.1622776601683795
11,11,0.029196200019214302,o,32.3,Limited Time - 400ms,l,41.639175273615336,23.037645909948598,32.2783835033229,33.77733802695235,23.037645909948598,33.77733802695235,32.2783835033229,41.639175273615336,-10,-0.33,0.33,10,31,21,30.67,31.33,41,3.1622776601683795,3.1622776601683795,3.1622776601683795,3.1622776601683795
11,12,0.061177700001280755,o,30.8,Limited Time - 400ms,l,39.7737167324402,20.036659449224626,30.827236094760462,28.906200923999357,20.036659449224626,28.906200923999357,30.827236094760462,39.7737167324402,-10,-0.33,0.33,10,31,21,30.67,31.33,41,3.1622776601683795,3.1622776601683795,3.1622776601683795,3.1622776601683795
11,13,0.05133180000120774,o,29.2,Limited Time - 400ms,l,46.26544534120426,16.03594354490039,29.203392426221853,27.891579310860298,16.03594354490039,27.891579310860298,29.203392426221853,46.26544534120426,-10,-0.33,0.33,10,31,21,30.67,31.33,41,3.1622776601683795,3.1622776601683795,3.1622776601683795,3.1622776601683795
11,14,0.027605700015556067,o,34.7,Limited Time - 400ms,l,44.86201761116299,17.13309926360457,34.70959917452302,28.187366568842798,17.13309926360457,28.187366568842798,34.70959917452302,44.86201761116299,-10,-0.33,0.33,10,31,21,30.67,31.33,41,3.1622776601683795,3.1622776601683795,3.1622776601683795,3.1622776601683795
11,15,0.06391879997681826,o,28.4,Limited Time - 400ms,l,41.3947904683142,19.06325430428932,28.37183248117285,31.33286755865357,19.06325430428932,31.33286755865357,28.37183248117285,41.3947904683142,-10,-0.33,0.33,10,31,21,30.67,31.33,41,3.1622776601683795,3.1622776601683795,3.1622776601683795,3.1622776601683795
11,16,0.048887900018598884,o,28.0,Limited Time - 400ms,l,40.98492271469901,22.0300221725705,28.039816533883286,30.920451736977512,22.0300221725705,30.920451736977512,28.039816533883286,40.98492271469901,-10,-0.33,0.33,10,31,21,30.67,31.33,41,3.1622776601683795,3.1622776601683795,3.1622776601683795,3.1622776601683795
11,17,0.12552850000793114,o,24.4,Limited Time - 400ms,l,41.86150371756302,20.61585562502114,24.39632508654706,35.35424497688566,20.61585562502114,35.35424497688566,24.39632508654706,41.86150371756302,-10,-0.33,0.33,10,31,21,30.67,31.33,41,3.1622776601683795,3.1622776601683795,3.1622776601683795,3.1622776601683795
11,18,0.11211839999305084,o,32.3,Limited Time - 400ms,l,39.254238914670275,21.358506009997136,32.342676754599665,29.883619307101032,21.358506009997136,29.883619307101032,32.342676754599665,39.254238914670275,-10,-0.33,0.33,10,31,21,30.67,31.33,41,3.1622776601683795,3.1622776601683795,3.1622776601683795,3.1622776601683795
11,19,0.09325380000518635,o,28.6,Limited Time - 400ms,l,40.09481793652131,16.103217163802015,28.593177794689836,31.464407624701504,16.103217163802015,31.464407624701504,28.593177794689836,40.09481793652131,-10,-0.33,0.33,10,31,21,30.67,31.33,41,3.1622776601683795,3.1622776601683795,3.1622776601683795,3.1622776601683795
11,20,0.13929399999324232,o,31.7,Limited Time - 400ms,l,40.898091050049246,20.268992899450353,31.663625950309598,25.8857828670534,20.268992899450353,25.8857828670534,31.663625950309598,40.898091050049246,-10,-0.33,0.33,10,31,21,30.67,31.33,41,3.1622776601683795,3.1622776601683795,3.1622776601683795,3.1622776601683795
12,1,0.7346842000260949,o,31.9,Limited Time - 800ms,e,28.55012831255017,37.081423056592406,31.894075028609873,29.012498383536784,28.55012831255017,37.081423056592406,31.894075028609873,29.012498383536784,0,0,0,0,31,31,31,31,31,3.1622776601683795,6.324555320336759,8.366600265340756,10
12,2,0.6674506000126712,o,24.4,Limited Time - 800ms,e,37.44903590980003,19.834961455299357,24.420042161978877,45.031568505601015,37.44903590980003,19.834961455299357,24.420042161978877,45.031568505601015,0,0,0,0,31,31,31,31,31,3.1622776601683795,6.324555320336759,8.366600265340756,10
12,3,0.4601776000345126,w,30.6,Limited Time - 800ms,e,32.05602328805682,30.558824234494363,17.49120215765604,39.881223271252665,32.05602328805682,30.558824234494363,17.49120215765604,39.881223271252665,0,0,0,0,31,31,31,31,31,3.1622776601683795,6.324555320336759,8.366600265340756,10
12,4,0.6271341000101529,w,30.5,Limited Time - 800ms,e,39.721255057131266,30.513197458545417,15.573507929504558,31.836668380996684,39.721255057131266,30.513197458545417,15.573507929504558,31.836668380996684,0,0,0,0,31,31,31,31,31,3.1622776601683795,6.324555320336759,8.366600265340756,10
12,5,0.48221440002089366,q,37.7,Limited Time - 800ms,e,37.724450536005946,28.239619274745206,43.34123684787323,40.719522124032835,37.724450536005946,28.239619274745206,43.34123684787323,40.719522124032835,0,0,0,0,31,31,31,31,31,3.1622776601683795,6.324555320336759,8.366600265340756,10
12,6,0.49051809997763485,q,33.9,Limited Time - 800ms,e,33.886010860102644,31.900094079782395,28.43718240645839,23.71218598497369,33.886010860102644,31.900094079782395,28.43718240645839,23.71218598497369,0,0,0,0,31,31,31,31,31,3.1622776601683795,6.324555320336759,8.366600265340756,10
12,7,0.4979919000179507,p,36.7,Limited Time - 800ms,e,30.613888230796768,44.56276606698037,33.29992796481133,36.71706498653313,30.613888230796768,44.56276606698037,33.29992796481133,36.71706498653313,0,0,0,0,31,31,31,31,31,3.1622776601683795,6.324555320336759,8.366600265340756,10
12,8,0.19262059999164194,p,15.6,Limited Time - 800ms,e,26.317821532227946,35.92122760700008,17.803226285024834,15.58765128524436,26.317821532227946,35.92122760700008,17.803226285024834,15.58765128524436,0,0,0,0,31,31,31,31,31,3.1622776601683795,6.324555320336759,8.366600265340756,10
12,9,0.10407259996281937,o,27.7,Limited Time - 800ms,e,27.967166996143455,24.81351205963655,27.67379401917156,16.240658982694427,27.967166996143455,24.81351205963655,27.67379401917156,16.240658982694427,0,0,0,0,31,31,31,31,31,3.1622776601683795,6.324555320336759,8.366600265340756,10
12,10,0.33658060000743717,o,31.1,Limited Time - 800ms,e,26.984669862576876,29.93837650167189,31.106928662530095,23.506283643035033,26.984669862576876,29.93837650167189,31.106928662530095,23.506283643035033,0,0,0,0,31,31,31,31,31,3.1622776601683795,6.324555320336759,8.366600265340756,10
12,11,0.263951700006146,p,21.1,Limited Time - 800ms,e,34.76211024132247,32.44662513690272,26.20776667034386,21.103107342627673,34.76211024132247,32.44662513690272,26.20776667034386,21.103107342627673,0,0,0,0,31,31,31,31,31,3.1622776601683795,6.324555320336759,8.366600265340756,10
12,12,0.24774350004736334,o,40.3,Limited Time - 800ms,e,35.26898428520502,30.168956876757576,40.32045103507056,43.315594320693855,35.26898428520502,30.168956876757576,40.32045103507056,43.315594320693855,0,0,0,0,31,31,31,31,31,3.1622776601683795,6.324555320336759,8.366600265340756,10
12,13,0.2997012999840081,q,27.9,Limited Time - 800ms,e,27.91880096511791,27.255123728682715,32.28024846663894,45.65456043568503,27.91880096511791,27.255123728682715,32.28024846663894,45.65456043568503,0,0,0,0,31,31,31,31,31,3.1622776601683795,6.324555320336759,8.366600265340756,10
12,14,0.24284889997215942,w,34.6,Limited Time - 800ms,e,35.6891018809505,34.59881438725688,26.91587016426481,26.645106797925784,35.6891018809505,34.59881438725688,26.91587016426481,26.645106797925784,0,0,0,0,31,31,31,31,31,3.1622776601683795,6.324555320336759,8.366600265340756,10
12,15,0.03745669999625534,o,35.1,Limited Time - 800ms,e,29.571587049660952,22.708993878648187,35.1240459608643,30.3008569566979,29.571587049660952,22.708993878648187,35.1240459608643,30.3008569566979,0,0,0,0,31,31,31,31,31,3.1622776601683795,6.324555320336759,8.366600265340756,10
12,16,0.23198179999599233,o,26.0,Limited Time - 800ms,e,33.41289016271193,23.912231507531644,26.00446677903497,27.261503869626114,33.41289016271193,23.912231507531644,26.00446677903497,27.261503869626114,0,0,0,0,31,31,31,31,31,3.1622776601683795,6.324555320336759,8.366600265340756,10
12,17,0.4730716999620199,o,28.0,Limited Time - 800ms,e,31.28680862460556,31.05629114985027,27.96197342364359,31.925651346654337,31.28680862460556,31.05629114985027,27.96197342364359,31.925651346654337,0,0,0,0,31,31,31,31,31,3.1622776601683795,6.324555320336759,8.366600265340756,10
12,18,0.16189410001970828,p,14.2,Limited Time - 800ms,e,29.051557715272683,31.801018086895667,43.00464107801077,14.157399430150242,29.051557715272683,31.801018086895667,43.00464107801077,14.157399430150242,0,0,0,0,31,31,31,31,31,3.1622776601683795,6.324555320336759,8.366600265340756,10
12,19,0.20228849997511134,q,34.0,Limited Time - 800ms,e,33.987900386218435,27.653549372392753,28.39893819078949,24.93591551105312,33.987900386218435,27.653549372392753,28.39893819078949,24.93591551105312,0,0,0,0,31,31,31,31,31,3.1622776601683795,6.324555320336759,8.366600265340756,10
12,20,0.2263447999721393,w,18.6,Limited Time - 800ms,e,28.771185780395655,18.609155532373137,29.334478820385375,46.60530715821195,28.771185780395655,18.609155532373137,29.334478820385375,46.60530715821195,0,0,0,0,31,31,31,31,31,3.1622776601683795,6.324555320336759,8.366600265340756,10
13,1,0.49908450001385063,w,21.5,Unlimited Time,l,34.629157761669994,21.53525887000862,40.03489652240411,28.810089708387043,21.53525887000862,34.629157761669994,28.810089708387043,40.03489652240411,-10,-0.33,0.33,10,31,21,30.67,31.33,41,3.1622776601683795,3.1622776601683795,3.1622776601683795,3.1622776601683795
13,2,1.3223494000267237,w,21.8,Unlimited Time,l,34.49247077293831,21.75975603173537,39.92280562875076,30.256413501616976,21.75975603173537,34.49247077293831,30.256413501616976,39.92280562875076,-10,-0.33,0.33,10,31,21,30.67,31.33,41,3.1622776601683795,3.1622776601683795,3.1622776601683795,3.1622776601683795
13,3,0.31543930002953857,w,18.7,Unlimited Time,l,35.491011347923134,18.71989102206058,46.822991568920244,35.386860649000106,18.71989102206058,35.491011347923134,35.386860649000106,46.822991568920244,-10,-0.33,0.33,10,31,21,30.67,31.33,41,3.1622776601683795,3.1622776601683795,3.1622776601683795,3.1622776601683795
13,4,0.29887900000903755,o,33.8,Unlimited Time,l,34.40971484666778,18.955801134483035,33.76767766067743,36.18075822427798,18.955801134483035,34.40971484666778,36.18075822427798,33.76767766067743,-10,-0.33,0.33,10,31,21,30.67,31.33,41,3.1622776601683795,3.1622776601683795,3.1622776601683795,3.1622776601683795
13,5,0.15783660003216937,o,41.7,Unlimited Time,l,29.59389249215034,21.658457976883383,41.69263312248012,28.300228732764168,21.658457976883383,29.59389249215034,28.300228732764168,41.69263312248012,-10,-0.33,0.33,10,31,21,30.67,31.33,41,3.1622776601683795,3.1622776601683795,3.1622776601683795,3.1622776601683795
13,6,0.17021959996782243,o,41.5,Unlimited Time,l,26.182851209630208,21.27042169544121,41.48160461691502,30.386457524273716,21.27042169544121,26.182851209630208,30.386457524273716,41.48160461691502,-10,-0.33,0.33,10,31,21,30.67,31.33,41,3.1622776601683795,3.1622776601683795,3.1622776601683795,3.1622776601683795
13,7,0.18766370002413169,o,34.4,Unlimited Time,l,32.27772069348891,24.25326720282201,34.440738452488546,37.7953267772143,24.25326720282201,32.27772069348891,37.7953267772143,34.440738452488546,-10,-0.33,0.33,10,31,21,30.67,31.33,41,3.1622776601683795,3.1622776601683795,3.1622776601683795,3.1622776601683795
13,8,0.04755630000727251,o,44.4,Unlimited Time,l,29.35049693550945,23.474113132604554,44.38764381408124,25.279627208737868,23.474113132604554,29.35049693550945,25.279627208737868,44.38764381408124,-10,-0.33,0.33,10,31,21,30.67,31.33,41,3.1622776601683795,3.1622776601683795,3.1622776601683795,3.1622776601683795
13,9,0.05275559995789081,o,43.1,Unlimited Time,l,24.610515478733276,27.042042679536298,43.096810325392056,29.383969539772647,27.042042679536298,24.610515478733276,29.383969539772647,43.096810325392056,-10,-0.33,0.33,10,31,21,30.67,31.33,41,3.1622776601683795,3.1622776601683795,3.1622776601683795,3.1622776601683795
13,10,0.10846040002070367,o,41.3,Unlimited Time,l,28.947832046827042,23.332851911658917,41.292056770655684,29.019023473924765,23.332851911658917,28.947832046827042,29.019023473924765,41.292056770655684,-10,-0.33,0.33,10,31,21,30.67,31.33,41,3.1622776601683795,3.1622776601683795,3.1622776601683795,3.1622776601683795
13,11,0.14811319997534156,o,41.6,Unlimited Time,l,33.77733802695235,23.037645909948598,41.639175273615336,32.2783835033229,23.037645909948598,33.77733802695235,32.2783835033229,41.639175273615336,-10,-0.33,0.33,10,31,21,30.67,31.33,41,3.1622776601683795,3.1622776601683795,3.1622776601683795,3.1622776601683795
13,12,0.14729279995663092,o,39.8,Unlimited Time,l,28.906200923999357,20.036659449224626,39.7737167324402,30.827236094760462,20.036659449224626,28.906200923999357,30.827236094760462,39.7737167324402,-10,-0.33,0.33,10,31,21,30.67,31.33,41,3.1622776601683795,3.1622776601683795,3.1622776601683795,3.1622776601683795
13,13,0.16059700003825128,o,46.3,Unlimited Time,l,27.891579310860298,16.03594354490039,46.26544534120426,29.203392426221853,16.03594354490039,27.891579310860298,29.203392426221853,46.26544534120426,-10,-0.33,0.33,10,31,21,30.67,31.33,41,3.1622776601683795,3.1622776601683795,3.1622776601683795,3.1622776601683795
13,14,0.19071809999877587,o,44.9,Unlimited Time,l,28.187366568842798,17.13309926360457,44.86201761116299,34.70959917452302,17.13309926360457,28.187366568842798,34.70959917452302,44.86201761116299,-10,-0.33,0.33,10,31,21,30.67,31.33,41,3.1622776601683795,3.1622776601683795,3.1622776601683795,3.1622776601683795
13,15,0.13557089999085292,o,41.4,Unlimited Time,l,31.33286755865357,19.06325430428932,41.3947904683142,28.37183248117285,19.06325430428932,31.33286755865357,28.37183248117285,41.3947904683142,-10,-0.33,0.33,10,31,21,30.67,31.33,41,3.1622776601683795,3.1622776601683795,3.1622776601683795,3.1622776601683795
13,16,0.18946520000463352,o,41.0,Unlimited Time,l,30.920451736977512,22.0300221725705,40.98492271469901,28.039816533883286,22.0300221725705,30.920451736977512,28.039816533883286,40.98492271469901,-10,-0.33,0.33,10,31,21,30.67,31.33,41,3.1622776601683795,3.1622776601683795,3.1622776601683795,3.1622776601683795
13,17,0.21209689998067915,o,41.9,Unlimited Time,l,35.35424497688566,20.61585562502114,41.86150371756302,24.39632508654706,20.61585562502114,35.35424497688566,24.39632508654706,41.86150371756302,-10,-0.33,0.33,10,31,21,30.67,31.33,41,3.1622776601683795,3.1622776601683795,3.1622776601683795,3.1622776601683795
13,18,0.20284850004827604,o,39.3,Unlimited Time,l,29.883619307101032,21.358506009997136,39.254238914670275,32.342676754599665,21.358506009997136,29.883619307101032,32.342676754599665,39.254238914670275,-10,-0.33,0.33,10,31,21,30.67,31.33,41,3.1622776601683795,3.1622776601683795,3.1622776601683795,3.1622776601683795
13,19,0.21241450001252815,o,40.1,Unlimited Time,l,31.464407624701504,16.103217163802015,40.09481793652131,28.593177794689836,16.103217163802015,31.464407624701504,28.593177794689836,40.09481793652131,-10,-0.33,0.33,10,31,21,30.67,31.33,41,3.1622776601683795,3.1622776601683795,3.1622776601683795,3.1622776601683795
13,20,0.21189009997760877,o,40.9,Unlimited Time,l,25.8857828670534,20.268992899450353,40.898091050049246,31.663625950309598,20.268992899450353,25.8857828670534,31.663625950309598,40.898091050049246,-10,-0.33,0.33,10,31,21,30.67,31.33,41,3.1622776601683795,3.1622776601683795,3.1622776601683795,3.1622776601683795
14,1,,,0.0,Limited Time - 400ms,e,29.012498383536784,28.55012831255017,37.081423056592406,31.894075028609873,28.55012831255017,37.081423056592406,31.894075028609873,29.012498383536784,0,0,0,0,31,31,31,31,31,3.1622776601683795,6.324555320336759,8.366600265340756,10
14,2,0.13004740001633763,o,19.8,Limited Time - 400ms,e,45.031568505601015,37.44903590980003,19.834961455299357,24.420042161978877,37.44903590980003,19.834961455299357,24.420042161978877,45.031568505601015,0,0,0,0,31,31,31,31,31,3.1622776601683795,6.324555320336759,8.366600265340756,10
14,3,0.18927710002753884,o,30.6,Limited Time - 400ms,e,39.881223271252665,32.05602328805682,30.558824234494363,17.49120215765604,32.05602328805682,30.558824234494363,17.49120215765604,39.881223271252665,0,0,0,0,31,31,31,31,31,3.1622776601683795,6.324555320336759,8.366600265340756,10
14,4,0.039107699994929135,o,30.5,Limited Time - 400ms,e,31.836668380996684,39.721255057131266,30.513197458545417,15.573507929504558,39.721255057131266,30.513197458545417,15.573507929504558,31.836668380996684,0,0,0,0,31,31,31,31,31,3.1622776601683795,6.324555320336759,8.366600265340756,10
14,5,0.029746500018518418,o,28.2,Limited Time - 400ms,e,40.719522124032835,37.724450536005946,28.239619274745206,43.34123684787323,37.724450536005946,28.239619274745206,43.34123684787323,40.719522124032835,0,0,0,0,31,31,31,31,31,3.1622776601683795,6.324555320336759,8.366600265340756,10
14,6,0.21769550000317395,o,31.9,Limited Time - 400ms,e,23.71218598497369,33.886010860102644,31.900094079782395,28.43718240645839,33.886010860102644,31.900094079782395,28.43718240645839,23.71218598497369,0,0,0,0,31,31,31,31,31,3.1622776601683795,6.324555320336759,8.366600265340756,10
14,7,,,0.0,Limited Time - 400ms,e,36.71706498653313,30.613888230796768,44.56276606698037,33.29992796481133,30.613888230796768,44.56276606698037,33.29992796481133,36.71706498653313,0,0,0,0,31,31,31,31,31,3.1622776601683795,6.324555320336759,8.366600265340756,10
14,8,,,0.0,Limited Time - 400ms,e,15.58765128524436,26.317821532227946,35.92122760700008,17.803226285024834,26.317821532227946,35.92122760700008,17.803226285024834,15.58765128524436,0,0,0,0,31,31,31,31,31,3.1622776601683795,6.324555320336759,8.366600265340756,10
14,9,0.2655547999893315,o,24.8,Limited Time - 400ms,e,16.240658982694427,27.967166996143455,24.81351205963655,27.67379401917156,27.967166996143455,24.81351205963655,27.67379401917156,16.240658982694427,0,0,0,0,31,31,31,31,31,3.1622776601683795,6.324555320336759,8.366600265340756,10
14,10,0.04972100001759827,o,29.9,Limited Time - 400ms,e,23.506283643035033,26.984669862576876,29.93837650167189,31.106928662530095,26.984669862576876,29.93837650167189,31.106928662530095,23.506283643035033,0,0,0,0,31,31,31,31,31,3.1622776601683795,6.324555320336759,8.366600265340756,10
14,11,0.1995191999594681,o,32.4,Limited Time - 400ms,e,21.103107342627673,34.76211024132247,32.44662513690272,26.20776667034386,34.76211024132247,32.44662513690272,26.20776667034386,21.103107342627673,0,0,0,0,31,31,31,31,31,3.1622776601683795,6.324555320336759,8.366600265340756,10
14,12,0.09472490003099665,o,30.2,Limited Time - 400ms,e,43.315594320693855,35.26898428520502,30.168956876757576,40.32045103507056,35.26898428520502,30.168956876757576,40.32045103507056,43.315594320693855,0,0,0,0,31,31,31,31,31,3.1622776601683795,6.324555320336759,8.366600265340756,10
14,13,0.019825700030196458,o,27.3,Limited Time - 400ms,e,45.65456043568503,27.91880096511791,27.255123728682715,32.28024846663894,27.91880096511791,27.255123728682715,32.28024846663894,45.65456043568503,0,0,0,0,31,31,31,31,31,3.1622776601683795,6.324555320336759,8.366600265340756,10
14,14,0.03393610002240166,o,34.6,Limited Time - 400ms,e,26.645106797925784,35.6891018809505,34.59881438725688,26.91587016426481,35.6891018809505,34.59881438725688,26.91587016426481,26.645106797925784,0,0,0,0,31,31,31,31,31,3.1622776601683795,6.324555320336759,8.366600265340756,10
14,15,0.03441750002093613,o,22.7,Limited Time - 400ms,e,30.3008569566979,29.571587049660952,22.708993878648187,35.1240459608643,29.571587049660952,22.708993878648187,35.1240459608643,30.3008569566979,0,0,0,0,31,31,31,31,31,3.1622776601683795,6.324555320336759,8.366600265340756,10
14,16,0.04114290000870824,o,23.9,Limited Time - 400ms,e,27.261503869626114,33.41289016271193,23.912231507531644,26.00446677903497,33.41289016271193,23.912231507531644,26.00446677903497,27.261503869626114,0,0,0,0,31,31,31,31,31,3.1622776601683795,6.324555320336759,8.366600265340756,10
14,17,0.06455759995151311,o,31.1,Limited Time - 400ms,e,31.925651346654337,31.28680862460556,31.05629114985027,27.96197342364359,31.28680862460556,31.05629114985027,27.96197342364359,31.925651346654337,0,0,0,0,31,31,31,31,31,3.1622776601683795,6.324555320336759,8.366600265340756,10
14,18,0.06897209997987375,o,31.8,Limited Time - 400ms,e,14.157399430150242,29.051557715272683,31.801018086895667,43.00464107801077,29.051557715272683,31.801018086895667,43.00464107801077,14.157399430150242,0,0,0,0,31,31,31,31,31,3.1622776601683795,6.324555320336759,8.366600265340756,10
14,19,0.07879870000761002,o,27.7,Limited Time - 400ms,e,24.93591551105312,33.987900386218435,27.653549372392753,28.39893819078949,33.987900386218435,27.653549372392753,28.39893819078949,24.93591551105312,0,0,0,0,31,31,31,31,31,3.1622776601683795,6.324555320336759,8.366600265340756,10
14,20,0.07338250003522262,o,18.6,Limited Time - 400ms,e,46.60530715821195,28.771185780395655,18.609155532373137,29.334478820385375,28.771185780395655,18.609155532373137,29.334478820385375,46.60530715821195,0,0,0,0,31,31,31,31,31,3.1622776601683795,6.324555320336759,8.366600265340756,10
15,1,0.30091520003043115,p,20.1,Limited Time - 800ms,i,20.35472063999337,46.27081344411799,33.40152424419621,20.125835534654797,20.125835534654797,20.35472063999337,46.27081344411799,33.40152424419621,-10,-10,10,10,31,21,21,41,41,3.1622776601683795,10,3.1622776601683795,10
15,2,,,0.0,Limited Time - 800ms,i,19.407397376132106,42.23930340410395,40.20493744464541,20.340576648756787,20.340576648756787,19.407397376132106,42.23930340410395,40.20493744464541,-10,-10,10,10,31,21,21,41,41,3.1622776601683795,10,3.1622776601683795,10
15,3,0.41770690004341304,w,34.8,Limited Time - 800ms,i,14.126995757225416,34.752639300478585,42.49208050543834,27.41036055330379,27.41036055330379,14.126995757225416,34.752639300478585,42.49208050543834,-10,-10,10,10,31,21,21,41,41,3.1622776601683795,10,3.1622776601683795,10
15,4,0.3080820000031963,w,38.0,Limited Time - 800ms,i,21.165496189201747,38.01786125259587,46.23002990618373,20.46115264262101,20.46115264262101,21.165496189201747,38.01786125259587,46.23002990618373,-10,-10,10,10,31,21,21,41,41,3.1622776601683795,10,3.1622776601683795,10
15,5,0.007616100017912686,w,40.5,Limited Time - 800ms,i,20.975197851116864,40.49224127884966,40.6020610537865,17.53974347509918,17.53974347509918,20.975197851116864,40.49224127884966,40.6020610537865,-10,-10,10,10,31,21,21,41,41,3.1622776601683795,10,3.1622776601683795,10
15,6,0.5393143000546843,q,18.2,Limited Time - 800ms,i,18.166574889135063,41.5964364255037,42.91562264455646,24.82880177759966,24.82880177759966,18.166574889135063,41.5964364255037,42.91562264455646,-10,-10,10,10,31,21,21,41,41,3.1622776601683795,10,3.1622776601683795,10
15,7,0.6989968999987468,p,21.9,Limited Time - 800ms,i,17.678474584438128,42.96804085124722,48.129863358560364,21.85119190558772,21.85119190558772,17.678474584438128,42.96804085124722,48.129863358560364,-10,-10,10,10,31,21,21,41,41,3.1622776601683795,10,3.1622776601683795,10
15,8,0.17151960002956912,p,17.4,Limited Time - 800ms,i,5.943175842441734,39.827434387330186,47.92521880623982,17.41389026097188,17.41389026097188,5.943175842441734,39.827434387330186,47.92521880623982,-10,-10,10,10,31,21,21,41,41,3.1622776601683795,10,3.1622776601683795,10
15,9,0.4620104000205174,p,21.5,Limited Time - 800ms,i,40.84714859675065,43.511402998855885,50.42170809811223,21.455353411871585,21.455353411871585,40.84714859675065,43.511402998855885,50.42170809811223,-10,-10,10,10,31,21,21,41,41,3.1622776601683795,10,3.1622776601683795,10
15,10,0.0007742000161670148,o,39.9,Limited Time - 800ms,i,17.203098968102598,40.29122010487153,39.926609111948665,19.99240150312174,19.99240150312174,17.203098968102598,40.29122010487153,39.926609111948665,-10,-10,10,10,31,21,21,41,41,3.1622776601683795,10,3.1622776601683795,10
15,11,0.14537809998728335,o,45.5,Limited Time - 800ms,i,13.314465053144144,39.29554762717717,45.46901958272524,21.18984776752427,21.18984776752427,13.314465053144144,39.29554762717717,45.46901958272524,-10,-10,10,10,31,21,21,41,41,3.1622776601683795,10,3.1622776601683795,10
15,12,0.16411570005584508,w,44.8,Limited Time - 800ms,i,29.69639128782591,44.79790563436219,44.85766277781248,26.600781300443252,26.600781300443252,29.69639128782591,44.79790563436219,44.85766277781248,-10,-10,10,10,31,21,21,41,41,3.1622776601683795,10,3.1622776601683795,10
15,13,0.2532624999876134,o,45.9,Limited Time - 800ms,i,9.600156074811933,46.4804529100989,45.93780547922605,23.289901712949344,23.289901712949344,9.600156074811933,46.4804529100989,45.93780547922605,-10,-10,10,10,31,21,21,41,41,3.1622776601683795,10,3.1622776601683795,10
15,14,0.23685670003760606,o,32.9,Limited Time - 800ms,i,18.961247553094456,39.526835926862944,32.92148770346194,20.53323397532922,20.53323397532922,18.961247553094456,39.526835926862944,32.92148770346194,-10,-10,10,10,31,21,21,41,41,3.1622776601683795,10,3.1622776601683795,10
15,15,0.12620820000302047,w,46.0,Limited Time - 800ms,i,31.123999057928103,45.95780048407642,49.03819209429149,17.02163275266874,17.02163275266874,31.123999057928103,45.95780048407642,49.03819209429149,-10,-10,10,10,31,21,21,41,41,3.1622776601683795,10,3.1622776601683795,10
15,16,,,0.0,Limited Time - 800ms,i,26.966307326807314,40.082018340333924,33.93112262566386,21.837444278556852,21.837444278556852,26.966307326807314,40.082018340333924,33.93112262566386,-10,-10,10,10,31,21,21,41,41,3.1622776601683795,10,3.1622776601683795,10
15,17,0.276121000002604,p,19.9,Limited Time - 800ms,i,5.841825898309297,39.7811626970456,53.41819224215298,19.94008408464195,19.94008408464195,5.841825898309297,39.7811626970456,53.41819224215298,-10,-10,10,10,31,21,21,41,41,3.1622776601683795,10,3.1622776601683795,10
15,18,0.12592610000865534,w,38.8,Limited Time - 800ms,i,32.28745450206229,38.76889290914642,25.02006406002397,22.051834703005845,22.051834703005845,32.28745450206229,38.76889290914642,25.02006406002397,-10,-10,10,10,31,21,21,41,41,3.1622776601683795,10,3.1622776601683795,10
15,19,0.1292016000370495,w,43.6,Limited Time - 800ms,i,16.314037742136662,43.62985353863886,38.82106324081619,22.63864547937797,22.63864547937797,16.314037742136662,43.62985353863886,38.82106324081619,-10,-10,10,10,31,21,21,41,41,3.1622776601683795,10,3.1622776601683795,10
15,20,0.17839339998317882,q,20.9,Limited Time - 800ms,i,20.864857411665646,41.31169773494104,45.81843318692964,13.47011438156331,13.47011438156331,20.864857411665646,41.31169773494104,45.81843318692964,-10,-10,10,10,31,21,21,41,41,3.1622776601683795,10,3.1622776601683795,10
16,1,0.6758501000003889,o,28.6,Unlimited Time,e,37.081423056592406,31.894075028609873,28.55012831255017,29.012498383536784,28.55012831255017,37.081423056592406,31.894075028609873,29.012498383536784,0,0,0,0,31,31,31,31,31,3.1622776601683795,6.324555320336759,8.366600265340756,10
16,2,1.1462789000361226,o,37.4,Unlimited Time,e,19.834961455299357,24.420042161978877,37.44903590980003,45.031568505601015,37.44903590980003,19.834961455299357,24.420042161978877,45.031568505601015,0,0,0,0,31,31,31,31,31,3.1622776601683795,6.324555320336759,8.366600265340756,10
16,3,0.8160336000146344,o,32.1,Unlimited Time,e,30.558824234494363,17.49120215765604,32.05602328805682,39.881223271252665,32.05602328805682,30.558824234494363,17.49120215765604,39.881223271252665,0,0,0,0,31,31,31,31,31,3.1622776601683795,6.324555320336759,8.366600265340756,10
16,4,0.35606339998776093,p,31.8,Unlimited Time,e,30.513197458545417,15.573507929504558,39.721255057131266,31.836668380996684,39.721255057131266,30.513197458545417,15.573507929504558,31.836668380996684,0,0,0,0,31,31,31,31,31,3.1622776601683795,6.324555320336759,8.366600265340756,10
16,5,0.6111904999706894,p,40.7,Unlimited Time,e,28.239619274745206,43.34123684787323,37.724450536005946,40.719522124032835,37.724450536005946,28.239619274745206,43.34123684787323,40.719522124032835,0,0,0,0,31,31,31,31,31,3.1622776601683795,6.324555320336759,8.366600265340756,10
16,6,0.7069722000160255,p,23.7,Unlimited Time,e,31.900094079782395,28.43718240645839,33.886010860102644,23.71218598497369,33.886010860102644,31.900094079782395,28.43718240645839,23.71218598497369,0,0,0,0,31,31,31,31,31,3.1622776601683795,6.324555320336759,8.366600265340756,10
16,7,0.48661389999324456,w,33.3,Unlimited Time,e,44.56276606698037,33.29992796481133,30.613888230796768,36.71706498653313,30.613888230796768,44.56276606698037,33.29992796481133,36.71706498653313,0,0,0,0,31,31,31,31,31,3.1622776601683795,6.324555320336759,8.366600265340756,10
16,8,0.39113170001655817,w,17.8,Unlimited Time,e,35.92122760700008,17.803226285024834,26.317821532227946,15.58765128524436,26.317821532227946,35.92122760700008,17.803226285024834,15.58765128524436,0,0,0,0,31,31,31,31,31,3.1622776601683795,6.324555320336759,8.366600265340756,10
16,9,0.44874199997866526,w,27.7,Unlimited Time,e,24.81351205963655,27.67379401917156,27.967166996143455,16.240658982694427,27.967166996143455,24.81351205963655,27.67379401917156,16.240658982694427,0,0,0,0,31,31,31,31,31,3.1622776601683795,6.324555320336759,8.366600265340756,10
16,10,0.2422321999911219,q,29.9,Unlimited Time,e,29.93837650167189,31.106928662530095,26.984669862576876,23.506283643035033,26.984669862576876,29.93837650167189,31.106928662530095,23.506283643035033,0,0,0,0,31,31,31,31,31,3.1622776601683795,6.324555320336759,8.366600265340756,10
16,11,0.2725583999999799,q,32.4,Unlimited Time,e,32.44662513690272,26.20776667034386,34.76211024132247,21.103107342627673,34.76211024132247,32.44662513690272,26.20776667034386,21.103107342627673,0,0,0,0,31,31,31,31,31,3.1622776601683795,6.324555320336759,8.366600265340756,10
16,12,0.5172650000313297,o,35.3,Unlimited Time,e,30.168956876757576,40.32045103507056,35.26898428520502,43.315594320693855,35.26898428520502,30.168956876757576,40.32045103507056,43.315594320693855,0,0,0,0,31,31,31,31,31,3.1622776601683795,6.324555320336759,8.366600265340756,10
16,13,0.2909312000265345,p,45.7,Unlimited Time,e,27.255123728682715,32.28024846663894,27.91880096511791,45.65456043568503,27.91880096511791,27.255123728682715,32.28024846663894,45.65456043568503,0,0,0,0,31,31,31,31,31,3.1622776601683795,6.324555320336759,8.366600265340756,10
16,14,0.06439479999244213,o,35.7,Unlimited Time,e,34.59881438725688,26.91587016426481,35.6891018809505,26.645106797925784,35.6891018809505,34.59881438725688,26.91587016426481,26.645106797925784,0,0,0,0,31,31,31,31,31,3.1622776601683795,6.324555320336759,8.366600265340756,10
16,15,0.05000089999521151,o,29.6,Unlimited Time,e,22.708993878648187,35.1240459608643,29.571587049660952,30.3008569566979,29.571587049660952,22.708993878648187,35.1240459608643,30.3008569566979,0,0,0,0,31,31,31,31,31,3.1622776601683795,6.324555320336759,8.366600265340756,10
16,16,0.0010412000119686127,w,26.0,Unlimited Time,e,23.912231507531644,26.00446677903497,33.41289016271193,27.261503869626114,33.41289016271193,23.912231507531644,26.00446677903497,27.261503869626114,0,0,0,0,31,31,31,31,31,3.1622776601683795,6.324555320336759,8.366600265340756,10
16,17,0.08157290000235662,w,28.0,Unlimited Time,e,31.05629114985027,27.96197342364359,31.28680862460556,31.925651346654337,31.28680862460556,31.05629114985027,27.96197342364359,31.925651346654337,0,0,0,0,31,31,31,31,31,3.1622776601683795,6.324555320336759,8.366600265340756,10
16,18,0.1425429999944754,p,14.2,Unlimited Time,e,31.801018086895667,43.00464107801077,29.051557715272683,14.157399430150242,29.051557715272683,31.801018086895667,43.00464107801077,14.157399430150242,0,0,0,0,31,31,31,31,31,3.1622776601683795,6.324555320336759,8.366600265340756,10
16,19,0.102513000019826,q,27.7,Unlimited Time,e,27.653549372392753,28.39893819078949,33.987900386218435,24.93591551105312,33.987900386218435,27.653549372392753,28.39893819078949,24.93591551105312,0,0,0,0,31,31,31,31,31,3.1622776601683795,6.324555320336759,8.366600265340756,10
16,20,0.11690040002577007,w,29.3,Unlimited Time,e,18.609155532373137,29.334478820385375,28.771185780395655,46.60530715821195,28.771185780395655,18.609155532373137,29.334478820385375,46.60530715821195,0,0,0,0,31,31,31,31,31,3.1622776601683795,6.324555320336759,8.366600265340756,10
17,1,0.297925699967891,o,28.8,Limited Time - 400ms,l,21.53525887000862,34.629157761669994,28.810089708387043,40.03489652240411,21.53525887000862,34.629157761669994,28.810089708387043,40.03489652240411,-10,-0.33,0.33,10,31,21,30.67,31.33,41,3.1622776601683795,3.1622776601683795,3.1622776601683795,3.1622776601683795
17,2,0.3001403999514878,o,30.3,Limited Time - 400ms,l,21.75975603173537,34.49247077293831,30.256413501616976,39.92280562875076,21.75975603173537,34.49247077293831,30.256413501616976,39.92280562875076,-10,-0.33,0.33,10,31,21,30.67,31.33,41,3.1622776601683795,3.1622776601683795,3.1622776601683795,3.1622776601683795
17,3,0.17295879998710006,o,35.4,Limited Time - 400ms,l,18.71989102206058,35.491011347923134,35.386860649000106,46.822991568920244,18.71989102206058,35.491011347923134,35.386860649000106,46.822991568920244,-10,-0.33,0.33,10,31,21,30.67,31.33,41,3.1622776601683795,3.1622776601683795,3.1622776601683795,3.1622776601683795
17,4,,,0.0,Limited Time - 400ms,l,18.955801134483035,34.40971484666778,36.18075822427798,33.76767766067743,18.955801134483035,34.40971484666778,36.18075822427798,33.76767766067743,-10,-0.33,0.33,10,31,21,30.67,31.33,41,3.1622776601683795,3.1622776601683795,3.1622776601683795,3.1622776601683795
17,5,0.1655204999842681,o,28.3,Limited Time - 400ms,l,21.658457976883383,29.59389249215034,28.300228732764168,41.69263312248012,21.658457976883383,29.59389249215034,28.300228732764168,41.69263312248012,-10,-0.33,0.33,10,31,21,30.67,31.33,41,3.1622776601683795,3.1622776601683795,3.1622776601683795,3.1622776601683795
17,6,0.2468228000216186,o,30.4,Limited Time - 400ms,l,21.27042169544121,26.182851209630208,30.386457524273716,41.48160461691502,21.27042169544121,26.182851209630208,30.386457524273716,41.48160461691502,-10,-0.33,0.33,10,31,21,30.67,31.33,41,3.1622776601683795,3.1622776601683795,3.1622776601683795,3.1622776601683795
17,7,0.18858040001941845,o,37.8,Limited Time - 400ms,l,24.25326720282201,32.27772069348891,37.7953267772143,34.440738452488546,24.25326720282201,32.27772069348891,37.7953267772143,34.440738452488546,-10,-0.33,0.33,10,31,21,30.67,31.33,41,3.1622776601683795,3.1622776601683795,3.1622776601683795,3.1622776601683795
17,8,0.1481902999803424,o,25.3,Limited Time - 400ms,l,23.474113132604554,29.35049693550945,25.279627208737868,44.38764381408124,23.474113132604554,29.35049693550945,25.279627208737868,44.38764381408124,-10,-0.33,0.33,10,31,21,30.67,31.33,41,3.1622776601683795,3.1622776601683795,3.1622776601683795,3.1622776601683795
17,9,0.11152080004103482,o,29.4,Limited Time - 400ms,l,27.042042679536298,24.610515478733276,29.383969539772647,43.096810325392056,27.042042679536298,24.610515478733276,29.383969539772647,43.096810325392056,-10,-0.33,0.33,10,31,21,30.67,31.33,41,3.1622776601683795,3.1622776601683795,3.1622776601683795,3.1622776601683795
17,10,0.08615699998335913,o,29.0,Limited Time - 400ms,l,23.332851911658917,28.947832046827042,29.019023473924765,41.292056770655684,23.332851911658917,28.947832046827042,29.019023473924765,41.292056770655684,-10,-0.33,0.33,10,31,21,30.67,31.33,41,3.1622776601683795,3.1622776601683795,3.1622776601683795,3.1622776601683795
17,11,0.2638104999787174,o,32.3,Limited Time - 400ms,l,23.037645909948598,33.77733802695235,32.2783835033229,41.639175273615336,23.037645909948598,33.77733802695235,32.2783835033229,41.639175273615336,-10,-0.33,0.33,10,31,21,30.67,31.33,41,3.1622776601683795,3.1622776601683795,3.1622776601683795,3.1622776601683795
17,12,0.0638030000263825,o,30.8,Limited Time - 400ms,l,20.036659449224626,28.906200923999357,30.827236094760462,39.7737167324402,20.036659449224626,28.906200923999357,30.827236094760462,39.7737167324402,-10,-0.33,0.33,10,31,21,30.67,31.33,41,3.1622776601683795,3.1622776601683795,3.1622776601683795,3.1622776601683795
17,13,0.08975460001965985,o,29.2,Limited Time - 400ms,l,16.03594354490039,27.891579310860298,29.203392426221853,46.26544534120426,16.03594354490039,27.891579310860298,29.203392426221853,46.26544534120426,-10,-0.33,0.33,10,31,21,30.67,31.33,41,3.1622776601683795,3.1622776601683795,3.1622776601683795,3.1622776601683795
17,14,0.05210659996373579,w,28.2,Limited Time - 400ms,l,17.13309926360457,28.187366568842798,34.70959917452302,44.86201761116299,17.13309926360457,28.187366568842798,34.70959917452302,44.86201761116299,-10,-0.33,0.33,10,31,21,30.67,31.33,41,3.1622776601683795,3.1622776601683795,3.1622776601683795,3.1622776601683795
17,15,0.28011619998142123,o,28.4,Limited Time - 400ms,l,19.06325430428932,31.33286755865357,28.37183248117285,41.3947904683142,19.06325430428932,31.33286755865357,28.37183248117285,41.3947904683142,-10,-0.33,0.33,10,31,21,30.67,31.33,41,3.1622776601683795,3.1622776601683795,3.1622776601683795,3.1622776601683795
17,16,0.04385709995403886,o,28.0,Limited Time - 400ms,l,22.0300221725705,30.920451736977512,28.039816533883286,40.98492271469901,22.0300221725705,30.920451736977512,28.039816533883286,40.98492271469901,-10,-0.33,0.33,10,31,21,30.67,31.33,41,3.1622776601683795,3.1622776601683795,3.1622776601683795,3.1622776601683795
17,17,0.22387250000610948,p,41.9,Limited Time - 400ms,l,20.61585562502114,35.35424497688566,24.39632508654706,41.86150371756302,20.61585562502114,35.35424497688566,24.39632508654706,41.86150371756302,-10,-0.33,0.33,10,31,21,30.67,31.33,41,3.1622776601683795,3.1622776601683795,3.1622776601683795,3.1622776601683795
17,18,0.22287850000429899,p,39.3,Limited Time - 400ms,l,21.358506009997136,29.883619307101032,32.342676754599665,39.254238914670275,21.358506009997136,29.883619307101032,32.342676754599665,39.254238914670275,-10,-0.33,0.33,10,31,21,30.67,31.33,41,3.1622776601683795,3.1622776601683795,3.1622776601683795,3.1622776601683795
17,19,0.3021527999662794,p,40.1,Limited Time - 400ms,l,16.103217163802015,31.464407624701504,28.593177794689836,40.09481793652131,16.103217163802015,31.464407624701504,28.593177794689836,40.09481793652131,-10,-0.33,0.33,10,31,21,30.67,31.33,41,3.1622776601683795,3.1622776601683795,3.1622776601683795,3.1622776601683795
17,20,0.2561826999881305,p,40.9,Limited Time - 400ms,l,20.268992899450353,25.8857828670534,31.663625950309598,40.898091050049246,20.268992899450353,25.8857828670534,31.663625950309598,40.898091050049246,-10,-0.33,0.33,10,31,21,30.67,31.33,41,3.1622776601683795,3.1622776601683795,3.1622776601683795,3.1622776601683795
18,1,0.5576656999764964,o,28.6,Limited Time - 800ms,e,37.081423056592406,29.012498383536784,28.55012831255017,31.894075028609873,28.55012831255017,37.081423056592406,31.894075028609873,29.012498383536784,0,0,0,0,31,31,31,31,31,3.1622776601683795,6.324555320336759,8.366600265340756,10
18,2,0.5043828000198118,p,24.4,Limited Time - 800ms,e,19.834961455299357,45.031568505601015,37.44903590980003,24.420042161978877,37.44903590980003,19.834961455299357,24.420042161978877,45.031568505601015,0,0,0,0,31,31,31,31,31,3.1622776601683795,6.324555320336759,8.366600265340756,10
18,3,0.37156700005289167,p,17.5,Limited Time - 800ms,e,30.558824234494363,39.881223271252665,32.05602328805682,17.49120215765604,32.05602328805682,30.558824234494363,17.49120215765604,39.881223271252665,0,0,0,0,31,31,31,31,31,3.1622776601683795,6.324555320336759,8.366600265340756,10
18,4,0.1812964000273496,p,15.6,Limited Time - 800ms,e,30.513197458545417,31.836668380996684,39.721255057131266,15.573507929504558,39.721255057131266,30.513197458545417,15.573507929504558,31.836668380996684,0,0,0,0,31,31,31,31,31,3.1622776601683795,6.324555320336759,8.366600265340756,10
18,5,0.0483702999772504,p,43.3,Limited Time - 800ms,e,28.239619274745206,40.719522124032835,37.724450536005946,43.34123684787323,37.724450536005946,28.239619274745206,43.34123684787323,40.719522124032835,0,0,0,0,31,31,31,31,31,3.1622776601683795,6.324555320336759,8.366600265340756,10
18,6,0.023276299994904548,p,28.4,Limited Time - 800ms,e,31.900094079782395,23.71218598497369,33.886010860102644,28.43718240645839,33.886010860102644,31.900094079782395,28.43718240645839,23.71218598497369,0,0,0,0,31,31,31,31,31,3.1622776601683795,6.324555320336759,8.366600265340756,10
18,7,0.41948019998380914,o,30.6,Limited Time - 800ms,e,44.56276606698037,36.71706498653313,30.613888230796768,33.29992796481133,30.613888230796768,44.56276606698037,33.29992796481133,36.71706498653313,0,0,0,0,31,31,31,31,31,3.1622776601683795,6.324555320336759,8.366600265340756,10
