Round Number,Trial Number,Reaction Time,Choice,Reward (Health Points),Time Condition,Payoff Condition,Q mapped,W mapped,O mapped,P mapped,One value,Two value,Three value,Four value,One mean,Two mean,Three mean,Four mean,Mean Shift,One shifted mean,Two shifted mean,Three shifted mean,Four shifted mean,One SD,Two SD,Three SD,Four SD
1,1,0.5191113000037149,q,38.5,Unlimited Time,e,38.465472650830336,23.451655024657196,22.694416850804956,34.721306454455586,34.721306454455586,38.465472650830336,23.451655024657196,22.694416850804956,0,0,0,0,34,34,34,34,34,3.1622776601683795,6.324555320336759,8.366600265340756,10
1,2,0.3454067000420764,q,34.4,Unlimited Time,e,34.43652750389398,38.04296633509353,43.71203088777705,36.5928634306272,36.5928634306272,34.43652750389398,38.04296633509353,43.71203088777705,0,0,0,0,34,34,34,34,34,3.1622776601683795,6.324555320336759,8.366600265340756,10
1,3,0.6939082000171766,o,32.0,Unlimited Time,e,33.266808405512485,41.16564684869952,32.02784247604883,30.90247427486012,30.90247427486012,33.266808405512485,41.16564684869952,32.02784247604883,0,0,0,0,34,34,34,34,34,3.1622776601683795,6.324555320336759,8.366600265340756,10
1,4,0.3849978999933228,p,31.4,Unlimited Time,e,39.55298388413907,36.02776298333097,46.927910768669875,31.353513893929314,31.353513893929314,39.55298388413907,36.02776298333097,46.927910768669875,0,0,0,0,34,34,34,34,34,3.1622776601683795,6.324555320336759,8.366600265340756,10
1,5,0.4883423000574112,q,39.6,Unlimited Time,e,39.641082432595276,29.52625451792303,37.69830151536675,33.97214726140332,33.97214726140332,39.641082432595276,29.52625451792303,37.69830151536675,0,0,0,0,34,34,34,34,34,3.1622776601683795,6.324555320336759,8.366600265340756,10
1,6,0.2748386999592185,w,38.1,Unlimited Time,e,43.51395400956919,38.12956236901264,27.294778508851394,36.48592353612545,36.48592353612545,43.51395400956919,38.12956236901264,27.294778508851394,0,0,0,0,34,34,34,34,34,3.1622776601683795,6.324555320336759,8.366600265340756,10
1,7,0.33960710000246763,o,32.7,Unlimited Time,e,35.41776791758463,39.32559605031225,32.69798339443233,38.82164998310261,38.82164998310261,35.41776791758463,39.32559605031225,32.69798339443233,0,0,0,0,34,34,34,34,34,3.1622776601683795,6.324555320336759,8.366600265340756,10
1,8,0.21298680000472814,p,33.1,Unlimited Time,e,31.55181850974102,32.75616389133093,27.374031384718283,33.1195477788951,33.1195477788951,31.55181850974102,32.75616389133093,27.374031384718283,0,0,0,0,34,34,34,34,34,3.1622776601683795,6.324555320336759,8.366600265340756,10
1,9,0.7397747000213712,q,30.4,Unlimited Time,e,30.354473946032194,45.96593265771322,49.252553099322654,33.75781395807289,33.75781395807289,30.354473946032194,45.96593265771322,49.252553099322654,0,0,0,0,34,34,34,34,34,3.1622776601683795,6.324555320336759,8.366600265340756,10
1,10,0.3639483000151813,w,39.3,Unlimited Time,e,30.04677719544539,39.28222888246068,28.990099062706918,37.458644762301326,37.458644762301326,30.04677719544539,39.28222888246068,28.990099062706918,0,0,0,0,34,34,34,34,34,3.1622776601683795,6.324555320336759,8.366600265340756,10
1,11,0.2862527999095619,p,29.1,Unlimited Time,e,40.15471134259412,22.776333652648603,31.593278370958704,29.085656052177384,29.085656052177384,40.15471134259412,22.776333652648603,31.593278370958704,0,0,0,0,34,34,34,34,34,3.1622776601683795,6.324555320336759,8.366600265340756,10
1,12,0.47992399998474866,o,44.1,Unlimited Time,e,31.96854576857165,37.919354217427426,44.1048507437323,33.3665862349811,33.3665862349811,31.96854576857165,37.919354217427426,44.1048507437323,0,0,0,0,34,34,34,34,34,3.1622776601683795,6.324555320336759,8.366600265340756,10
1,13,0.4390728999860585,o,54.6,Unlimited Time,e,35.11890740480107,32.949153566860886,54.61307078195867,35.47713599443858,35.47713599443858,35.11890740480107,32.949153566860886,54.61307078195867,0,0,0,0,34,34,34,34,34,3.1622776601683795,6.324555320336759,8.366600265340756,10
1,14,0.33188549999613315,o,27.9,Unlimited Time,e,38.2865144403009,38.92951046645059,27.866373281054972,33.23215953958968,33.23215953958968,38.2865144403009,38.92951046645059,27.866373281054972,0,0,0,0,34,34,34,34,34,3.1622776601683795,6.324555320336759,8.366600265340756,10
1,15,0.3281973999692127,w,31.3,Unlimited Time,e,41.64908479201113,31.300411879622374,42.697216473583815,34.34047102454521,34.34047102454521,41.64908479201113,31.300411879622374,42.697216473583815,0,0,0,0,34,34,34,34,34,3.1622776601683795,6.324555320336759,8.366600265340756,10
1,16,0.3391495000105351,w,56.3,Unlimited Time,e,42.69899265842819,56.305686848835194,36.56052930110332,35.605182366314494,35.605182366314494,42.69899265842819,56.305686848835194,36.56052930110332,0,0,0,0,34,34,34,34,34,3.1622776601683795,6.324555320336759,8.366600265340756,10
1,17,0.2714022999862209,w,31.1,Unlimited Time,e,42.536000345600925,31.141343800200723,25.710529255678885,33.00939324486659,33.00939324486659,42.536000345600925,31.141343800200723,25.710529255678885,0,0,0,0,34,34,34,34,34,3.1622776601683795,6.324555320336759,8.366600265340756,10
1,18,0.3115921999560669,o,22.1,Unlimited Time,e,21.075608705267065,47.350705854017725,22.14809473970712,32.140623098019994,32.140623098019994,21.075608705267065,47.350705854017725,22.14809473970712,0,0,0,0,34,34,34,34,34,3.1622776601683795,6.324555320336759,8.366600265340756,10
1,19,0.28306390007492155,o,20.9,Unlimited Time,e,30.788190268879948,22.839189624981337,20.860063687369816,35.827124319814054,35.827124319814054,30.788190268879948,22.839189624981337,20.860063687369816,0,0,0,0,34,34,34,34,34,3.1622776601683795,6.324555320336759,8.366600265340756,10
1,20,0.3747031999519095,o,37.6,Unlimited Time,e,30.400129175971315,34.89207961805987,37.63492504739856,29.521711354828458,29.521711354828458,30.400129175971315,34.89207961805987,37.63492504739856,0,0,0,0,34,34,34,34,34,3.1622776601683795,6.324555320336759,8.366600265340756,10
2,1,0.22772650001570582,q,51.9,Limited Time - 400ms,i,51.878901850547344,17.492811558648583,24.67666150218714,49.544707395502726,24.67666150218714,17.492811558648583,49.544707395502726,51.878901850547344,-10,-10,10,10,34,24,24,44,44,3.1622776601683795,10,3.1622776601683795,10
2,2,,,0.0,Limited Time - 400ms,i,34.60500542253845,31.224108084155095,25.449157784233666,39.58088274546369,25.449157784233666,31.224108084155095,39.58088274546369,34.60500542253845,-10,-10,10,10,34,24,24,44,44,3.1622776601683795,10,3.1622776601683795,10
2,3,0.3266890000086278,o,26.4,Limited Time - 400ms,i,45.201314710786,24.726336413718446,26.40482331764832,43.87823291786313,26.40482331764832,24.726336413718446,43.87823291786313,45.201314710786,-10,-10,10,10,34,24,24,44,44,3.1622776601683795,10,3.1622776601683795,10
2,4,0.012624999973922968,q,47.4,Limited Time - 400ms,i,47.3708749304171,26.76651367164125,28.08172147977139,43.2031207956245,28.08172147977139,26.76651367164125,43.2031207956245,47.3708749304171,-10,-10,10,10,34,24,24,44,44,3.1622776601683795,10,3.1622776601683795,10
2,5,,,0.0,Limited Time - 400ms,i,43.72205399163304,29.258669109465973,30.029694907059593,45.53864185706925,30.029694907059593,29.258669109465973,45.53864185706925,43.72205399163304,-10,-10,10,10,34,24,24,44,44,3.1622776601683795,10,3.1622776601683795,10
2,6,0.09262989996932447,o,22.7,Limited Time - 400ms,i,41.679492241189635,16.346853919345758,22.66460528995605,47.19119297636533,22.66460528995605,16.346853919345758,47.19119297636533,41.679492241189635,-10,-10,10,10,34,24,24,44,44,3.1622776601683795,10,3.1622776601683795,10
2,7,0.3553031000774354,q,30.2,Limited Time - 400ms,i,30.24173371129815,18.042739531994624,28.33911984774468,42.3710551018277,28.33911984774468,18.042739531994624,42.3710551018277,30.24173371129815,-10,-10,10,10,34,24,24,44,44,3.1622776601683795,10,3.1622776601683795,10
2,8,0.3344781999476254,o,22.2,Limited Time - 400ms,i,37.11641494920917,9.540014975358742,22.239282696822983,51.197799005412946,22.239282696822983,9.540014975358742,51.197799005412946,37.11641494920917,-10,-10,10,10,34,24,24,44,44,3.1622776601683795,10,3.1622776601683795,10
2,9,,,0.0,Limited Time - 400ms,i,45.67353576340057,26.1258865423442,25.87712771253471,43.35182206330588,25.87712771253471,26.1258865423442,43.35182206330588,45.67353576340057,-10,-10,10,10,34,24,24,44,44,3.1622776601683795,10,3.1622776601683795,10
2,10,0.020771500072441995,q,46.1,Limited Time - 400ms,i,46.07601390133905,10.162783254271227,23.157713559247625,45.60394521212267,23.157713559247625,10.162783254271227,45.60394521212267,46.07601390133905,-10,-10,10,10,34,24,24,44,44,3.1622776601683795,10,3.1622776601683795,10
2,11,0.10605079995002598,q,42.7,Limited Time - 400ms,i,42.68624407242686,18.52098889219367,22.517378719650537,45.880401637178956,22.517378719650537,18.52098889219367,45.880401637178956,42.68624407242686,-10,-10,10,10,34,24,24,44,44,3.1622776601683795,10,3.1622776601683795,10
2,12,0.10597030003555119,q,27.3,Limited Time - 400ms,i,27.317750717547813,16.763938340167826,23.640939432706148,45.9259656014988,23.640939432706148,16.763938340167826,45.9259656014988,27.317750717547813,-10,-10,10,10,34,24,24,44,44,3.1622776601683795,10,3.1622776601683795,10
2,13,0.14598779997322708,q,56.4,Limited Time - 400ms,i,56.4007468384627,26.84901744262085,25.283186499534587,45.52118117943221,25.283186499534587,26.84901744262085,45.52118117943221,56.4007468384627,-10,-10,10,10,34,24,24,44,44,3.1622776601683795,10,3.1622776601683795,10
2,14,0.1694751000031829,q,40.4,Limited Time - 400ms,i,40.448722094848435,13.856629428834882,25.878840614705506,45.83860997649918,25.878840614705506,13.856629428834882,45.83860997649918,40.448722094848435,-10,-10,10,10,34,24,24,44,44,3.1622776601683795,10,3.1622776601683795,10
2,15,0.015635699965059757,q,41.6,Limited Time - 400ms,i,41.55383483491001,10.992447292942927,25.775752011660593,44.515623206105346,25.775752011660593,10.992447292942927,44.515623206105346,41.55383483491001,-10,-10,10,10,34,24,24,44,44,3.1622776601683795,10,3.1622776601683795,10
2,16,0.279286399949342,q,62.7,Limited Time - 400ms,i,62.73604389258768,32.72970748325953,21.60417750366681,42.233026972947286,21.60417750366681,32.72970748325953,42.233026972947286,62.73604389258768,-10,-10,10,10,34,24,24,44,44,3.1622776601683795,10,3.1622776601683795,10
2,17,0.1385883999755606,q,51.8,Limited Time - 400ms,i,51.83409976016146,37.636063201885754,21.108824010647382,39.662664335739755,21.108824010647382,37.636063201885754,39.662664335739755,51.83409976016146,-10,-10,10,10,34,24,24,44,44,3.1622776601683795,10,3.1622776601683795,10
2,18,0.0004420999903231859,q,28.2,Limited Time - 400ms,i,28.174318998456044,40.89063419850221,26.57623337072501,41.53511897307054,26.57623337072501,40.89063419850221,41.53511897307054,28.174318998456044,-10,-10,10,10,34,24,24,44,44,3.1622776601683795,10,3.1622776601683795,10
2,19,0.014062999980524182,q,44.2,Limited Time - 400ms,i,44.17927658262949,41.56294339996903,22.750201912675426,46.92369910484246,22.750201912675426,41.56294339996903,46.92369910484246,44.17927658262949,-10,-10,10,10,34,24,24,44,44,3.1622776601683795,10,3.1622776601683795,10
2,20,0.1545699000125751,q,38.6,Limited Time - 400ms,i,38.5735872040575,26.03899344856407,29.564613022363126,44.19709960976919,29.564613022363126,26.03899344856407,44.19709960976919,38.5735872040575,-10,-10,10,10,34,24,24,44,44,3.1622776601683795,10,3.1622776601683795,10
3,1,0.26257979997899383,q,37.3,Limited Time - 800ms,h,37.32313515804113,40.63795536568362,20.772705883992302,41.75030082484052,20.772705883992302,37.32313515804113,41.75030082484052,40.63795536568362,-10,-0.33,0.33,10,34,24,33.67,34.33,44,10,10,10,10
3,2,0.1614983999170363,o,18.7,Limited Time - 800ms,h,30.609567458726815,42.86447507581634,18.669708257827633,22.01885625509796,18.669708257827633,30.609567458726815,22.01885625509796,42.86447507581634,-10,-0.33,0.33,10,34,24,33.67,34.33,44,10,10,10,10
3,3,0.21987579995766282,q,31.2,Limited Time - 800ms,h,31.1574199423739,20.27297627324735,20.382651643197608,8.83441997403946,20.382651643197608,31.1574199423739,8.83441997403946,20.27297627324735,-10,-0.33,0.33,10,34,24,33.67,34.33,44,10,10,10,10
3,4,0.1025355999590829,o,29.2,Limited Time - 800ms,h,47.93298270151422,45.40536407469534,29.248529733775708,38.473789878279796,29.248529733775708,47.93298270151422,38.473789878279796,45.40536407469534,-10,-0.33,0.33,10,34,24,33.67,34.33,44,10,10,10,10
3,5,0.06255610007792711,q,48.4,Limited Time - 800ms,h,48.44316811874859,53.61710834797408,32.061584185138,39.61483402022836,32.061584185138,48.44316811874859,39.61483402022836,53.61710834797408,-10,-0.33,0.33,10,34,24,33.67,34.33,44,10,10,10,10
3,6,0.10711460001766682,o,17.2,Limited Time - 800ms,h,26.546576448389747,53.459308479205944,17.151589674015426,41.14867092483206,17.151589674015426,26.546576448389747,41.14867092483206,53.459308479205944,-10,-0.33,0.33,10,34,24,33.67,34.33,44,10,10,10,10
3,7,0.12028300005476922,q,34.7,Limited Time - 800ms,h,34.72474412248663,63.46617281652948,11.797080150534041,48.41560314074098,11.797080150534041,34.72474412248663,48.41560314074098,63.46617281652948,-10,-0.33,0.33,10,34,24,33.67,34.33,44,10,10,10,10
3,8,0.09428069996647537,o,25.8,Limited Time - 800ms,h,38.9266086034046,40.86927470878987,25.837281016447946,42.65696541871984,25.837281016447946,38.9266086034046,42.65696541871984,40.86927470878987,-10,-0.33,0.33,10,34,24,33.67,34.33,44,10,10,10,10
3,9,0.11396190000232309,o,10.3,Limited Time - 800ms,h,22.663419003953884,21.972714689950337,10.34344879567497,25.50183507295545,10.34344879567497,22.663419003953884,25.50183507295545,21.972714689950337,-10,-0.33,0.33,10,34,24,33.67,34.33,44,10,10,10,10
3,10,0.14948280004318804,o,32.9,Limited Time - 800ms,h,35.40918216232588,37.5682864311396,32.92981739199924,51.14582753553239,32.92981739199924,35.40918216232588,51.14582753553239,37.5682864311396,-10,-0.33,0.33,10,34,24,33.67,34.33,44,10,10,10,10
3,11,0.11721300007775426,o,53.2,Limited Time - 800ms,h,39.34511161243221,49.997024714572134,53.194863041963956,29.531054312337915,53.194863041963956,39.34511161243221,29.531054312337915,49.997024714572134,-10,-0.33,0.33,10,34,24,33.67,34.33,44,10,10,10,10
3,12,0.147893900051713,o,34.9,Limited Time - 800ms,h,56.73917527860794,47.31585749601,34.90990975093075,44.248872725961654,34.90990975093075,56.73917527860794,44.248872725961654,47.31585749601,-10,-0.33,0.33,10,34,24,33.67,34.33,44,10,10,10,10
3,13,0.16510079998988658,o,17.9,Limited Time - 800ms,h,24.711585189571167,46.96367791540267,17.853498519159285,30.900484963693508,17.853498519159285,24.711585189571167,30.900484963693508,46.96367791540267,-10,-0.33,0.33,10,34,24,33.67,34.33,44,10,10,10,10
3,14,0.01873599993996322,o,20.5,Limited Time - 800ms,h,18.6897804670119,37.886417831953814,20.500881763160052,39.32982763452065,20.500881763160052,18.6897804670119,39.32982763452065,37.886417831953814,-10,-0.33,0.33,10,34,24,33.67,34.33,44,10,10,10,10
3,15,0.003085800097323954,o,29.1,Limited Time - 800ms,h,33.82048128508821,38.35244241205773,29.07151719443352,31.47277108344424,29.07151719443352,33.82048128508821,31.47277108344424,38.35244241205773,-10,-0.33,0.33,10,34,24,33.67,34.33,44,10,10,10,10
3,16,0.02602430002298206,o,33.8,Limited Time - 800ms,h,21.684103663457,29.90733612841504,33.82993636911017,35.52923152122957,33.82993636911017,21.684103663457,35.52923152122957,29.90733612841504,-10,-0.33,0.33,10,34,24,33.67,34.33,44,10,10,10,10
3,17,0.16937140002846718,o,27.2,Limited Time - 800ms,h,29.321479392833368,49.94786227736749,27.19722413663684,35.34648762965304,27.19722413663684,29.321479392833368,35.34648762965304,49.94786227736749,-10,-0.33,0.33,10,34,24,33.67,34.33,44,10,10,10,10
3,18,0.1109017999842763,o,18.9,Limited Time - 800ms,h,23.630459675478566,28.188627607174496,18.924812274208776,46.64876772121911,18.924812274208776,23.630459675478566,46.64876772121911,28.188627607174496,-10,-0.33,0.33,10,34,24,33.67,34.33,44,10,10,10,10
3,19,0.16479459998663515,o,29.1,Limited Time - 800ms,h,40.58462133048436,52.02886550463354,29.129676055552785,43.76675815978081,29.129676055552785,40.58462133048436,43.76675815978081,52.02886550463354,-10,-0.33,0.33,10,34,24,33.67,34.33,44,10,10,10,10
3,20,0.02111610001884401,o,12.2,Limited Time - 800ms,h,22.526838273942197,39.80321955855373,12.209360891530741,27.403724295429416,12.209360891530741,22.526838273942197,27.403724295429416,39.80321955855373,-10,-0.33,0.33,10,34,24,33.67,34.33,44,10,10,10,10
4,1,1.5459855000954121,q,32.1,Unlimited Time,l,32.06432932713762,35.8332602028594,36.29422869148579,21.465455462356715,21.465455462356715,35.8332602028594,32.06432932713762,36.29422869148579,-10,-0.33,0.33,10,34,24,33.67,34.33,44,3.1622776601683795,3.1622776601683795,3.1622776601683795,3.1622776601683795
4,2,0.7675022999756038,w,37.0,Unlimited Time,l,38.003852954104346,37.012002814016526,43.97831599192992,27.993978378052336,27.993978378052336,37.012002814016526,38.003852954104346,43.97831599192992,-10,-0.33,0.33,10,34,24,33.67,34.33,44,3.1622776601683795,3.1622776601683795,3.1622776601683795,3.1622776601683795
4,3,0.2941738999215886,o,44.7,Unlimited Time,l,30.9952034868263,37.537327239797065,44.671378320305294,18.76351147783368,18.76351147783368,37.537327239797065,30.9952034868263,44.671378320305294,-10,-0.33,0.33,10,34,24,33.67,34.33,44,3.1622776601683795,3.1622776601683795,3.1622776601683795,3.1622776601683795
4,4,0.4240455999970436,p,24.7,Unlimited Time,l,38.73738063716412,30.74818341403219,42.88817318358308,24.73095797100894,24.73095797100894,30.74818341403219,38.73738063716412,42.88817318358308,-10,-0.33,0.33,10,34,24,33.67,34.33,44,3.1622776601683795,3.1622776601683795,3.1622776601683795,3.1622776601683795
4,5,0.9759113999316469,q,36.8,Unlimited Time,l,36.8017991207785,33.002613768684164,42.78931599081605,17.478686230990256,17.478686230990256,33.002613768684164,36.8017991207785,42.78931599081605,-10,-0.33,0.33,10,34,24,33.67,34.33,44,3.1622776601683795,3.1622776601683795,3.1622776601683795,3.1622776601683795
4,6,0.20953170000575483,w,30.3,Unlimited Time,l,33.58228045200471,30.250404885486606,45.655549827571804,25.956514622841123,25.956514622841123,30.250404885486606,33.58228045200471,45.655549827571804,-10,-0.33,0.33,10,34,24,33.67,34.33,44,3.1622776601683795,3.1622776601683795,3.1622776601683795,3.1622776601683795
4,7,0.2606116000097245,o,42.4,Unlimited Time,l,39.732500591233006,32.53658881463668,42.37182077937164,26.785503461880758,26.785503461880758,32.53658881463668,39.732500591233006,42.37182077937164,-10,-0.33,0.33,10,34,24,33.67,34.33,44,3.1622776601683795,3.1622776601683795,3.1622776601683795,3.1622776601683795
4,8,0.7171983999432996,p,27.5,Unlimited Time,l,35.08419534678871,35.42719434406548,42.7088583166138,27.479745212522744,27.479745212522744,35.42719434406548,35.08419534678871,42.7088583166138,-10,-0.33,0.33,10,34,24,33.67,34.33,44,3.1622776601683795,3.1622776601683795,3.1622776601683795,3.1622776601683795
4,9,0.43833499995525926,q,42.5,Unlimited Time,l,42.50092223596742,35.39578407173524,41.65797085837747,23.589942165311577,23.589942165311577,35.39578407173524,42.50092223596742,41.65797085837747,-10,-0.33,0.33,10,34,24,33.67,34.33,44,3.1622776601683795,3.1622776601683795,3.1622776601683795,3.1622776601683795
4,10,0.21419650001917034,w,33.3,Unlimited Time,l,33.08644320809391,33.25328447647209,45.713781220444076,21.12081460122111,21.12081460122111,33.25328447647209,33.08644320809391,45.713781220444076,-10,-0.33,0.33,10,34,24,33.67,34.33,44,3.1622776601683795,3.1622776601683795,3.1622776601683795,3.1622776601683795
4,11,0.33488219999708235,o,45.1,Unlimited Time,l,37.75648306349786,31.384733611977293,45.12399919617924,28.49190705015659,28.49190705015659,31.384733611977293,37.75648306349786,45.12399919617924,-10,-0.33,0.33,10,34,24,33.67,34.33,44,3.1622776601683795,3.1622776601683795,3.1622776601683795,3.1622776601683795
4,12,0.25373930006753653,p,25.0,Unlimited Time,l,31.816827376106627,33.70150129028664,45.95879027932822,24.97770394024168,24.97770394024168,33.70150129028664,31.816827376106627,45.95879027932822,-10,-0.33,0.33,10,34,24,33.67,34.33,44,3.1622776601683795,3.1622776601683795,3.1622776601683795,3.1622776601683795
4,13,0.24963259999640286,o,45.8,Unlimited Time,l,33.72518766949951,35.32222412454003,45.84624194978189,22.27204583614261,22.27204583614261,35.32222412454003,33.72518766949951,45.84624194978189,-10,-0.33,0.33,10,34,24,33.67,34.33,44,3.1622776601683795,3.1622776601683795,3.1622776601683795,3.1622776601683795
4,14,0.04786040005274117,o,44.0,Unlimited Time,l,33.37865646487163,30.985958049255608,43.99225515091924,23.232788543769274,23.232788543769274,30.985958049255608,33.37865646487163,43.99225515091924,-10,-0.33,0.33,10,34,24,33.67,34.33,44,3.1622776601683795,3.1622776601683795,3.1622776601683795,3.1622776601683795
4,15,0.08393449999857694,o,38.4,Unlimited Time,l,36.95325461126177,34.61578469702801,38.422645361769895,25.160861426071165,25.160861426071165,34.61578469702801,36.95325461126177,38.422645361769895,-10,-0.33,0.33,10,34,24,33.67,34.33,44,3.1622776601683795,3.1622776601683795,3.1622776601683795,3.1622776601683795
4,16,0.04148509993683547,o,50.8,Unlimited Time,l,29.18414536808669,35.88735841025392,50.8038252926097,21.400731554053085,21.400731554053085,35.88735841025392,29.18414536808669,50.8038252926097,-10,-0.33,0.33,10,34,24,33.67,34.33,44,3.1622776601683795,3.1622776601683795,3.1622776601683795,3.1622776601683795
4,17,0.040963899926282465,o,40.3,Unlimited Time,l,31.77713575261797,34.07330816772666,40.34808447098919,22.516578624815118,22.516578624815118,34.07330816772666,31.77713575261797,40.34808447098919,-10,-0.33,0.33,10,34,24,33.67,34.33,44,3.1622776601683795,3.1622776601683795,3.1622776601683795,3.1622776601683795
4,18,0.04644499998539686,o,37.9,Unlimited Time,l,38.985869086993276,34.8975505766801,37.863530710061475,28.151806287563016,28.151806287563016,34.8975505766801,38.985869086993276,37.863530710061475,-10,-0.33,0.33,10,34,24,33.67,34.33,44,3.1622776601683795,3.1622776601683795,3.1622776601683795,3.1622776601683795
4,19,0.04853599995840341,o,45.4,Unlimited Time,l,29.306957935836934,29.614514899363467,45.37950379048405,20.901162788915737,20.901162788915737,29.614514899363467,29.306957935836934,45.37950379048405,-10,-0.33,0.33,10,34,24,33.67,34.33,44,3.1622776601683795,3.1622776601683795,3.1622776601683795,3.1622776601683795
4,20,0.03835679998155683,o,45.9,Unlimited Time,l,34.732125864607255,34.52441782068521,45.9276417212385,25.258023953163658,25.258023953163658,34.52441782068521,34.732125864607255,45.9276417212385,-10,-0.33,0.33,10,34,24,33.67,34.33,44,3.1622776601683795,3.1622776601683795,3.1622776601683795,3.1622776601683795
5,1,0.1864500999217853,q,35.8,Limited Time - 400ms,l,35.8332602028594,32.06432932713762,36.29422869148579,21.465455462356715,21.465455462356715,35.8332602028594,32.06432932713762,36.29422869148579,-10,-0.33,0.33,10,34,24,33.67,34.33,44,3.1622776601683795,3.1622776601683795,3.1622776601683795,3.1622776601683795
5,2,0.22201509994920343,o,44.0,Limited Time - 400ms,l,37.012002814016526,38.003852954104346,43.97831599192992,27.993978378052336,27.993978378052336,37.012002814016526,38.003852954104346,43.97831599192992,-10,-0.33,0.33,10,34,24,33.67,34.33,44,3.1622776601683795,3.1622776601683795,3.1622776601683795,3.1622776601683795
5,3,0.3406067000469193,q,37.5,Limited Time - 400ms,l,37.537327239797065,30.9952034868263,44.671378320305294,18.76351147783368,18.76351147783368,37.537327239797065,30.9952034868263,44.671378320305294,-10,-0.33,0.33,10,34,24,33.67,34.33,44,3.1622776601683795,3.1622776601683795,3.1622776601683795,3.1622776601683795
5,4,0.10749359999317676,o,42.9,Limited Time - 400ms,l,30.74818341403219,38.73738063716412,42.88817318358308,24.73095797100894,24.73095797100894,30.74818341403219,38.73738063716412,42.88817318358308,-10,-0.33,0.33,10,34,24,33.67,34.33,44,3.1622776601683795,3.1622776601683795,3.1622776601683795,3.1622776601683795
5,5,,,0.0,Limited Time - 400ms,l,33.002613768684164,36.8017991207785,42.78931599081605,17.478686230990256,17.478686230990256,33.002613768684164,36.8017991207785,42.78931599081605,-10,-0.33,0.33,10,34,24,33.67,34.33,44,3.1622776601683795,3.1622776601683795,3.1622776601683795,3.1622776601683795
5,6,0.07127219997346401,o,45.7,Limited Time - 400ms,l,30.250404885486606,33.58228045200471,45.655549827571804,25.956514622841123,25.956514622841123,30.250404885486606,33.58228045200471,45.655549827571804,-10,-0.33,0.33,10,34,24,33.67,34.33,44,3.1622776601683795,3.1622776601683795,3.1622776601683795,3.1622776601683795
5,7,0.34058830002322793,q,32.5,Limited Time - 400ms,l,32.53658881463668,39.732500591233006,42.37182077937164,26.785503461880758,26.785503461880758,32.53658881463668,39.732500591233006,42.37182077937164,-10,-0.33,0.33,10,34,24,33.67,34.33,44,3.1622776601683795,3.1622776601683795,3.1622776601683795,3.1622776601683795
5,8,0.21398750005755574,p,27.5,Limited Time - 400ms,l,35.42719434406548,35.08419534678871,42.7088583166138,27.479745212522744,27.479745212522744,35.42719434406548,35.08419534678871,42.7088583166138,-10,-0.33,0.33,10,34,24,33.67,34.33,44,3.1622776601683795,3.1622776601683795,3.1622776601683795,3.1622776601683795
5,9,0.12759610009379685,o,41.7,Limited Time - 400ms,l,35.39578407173524,42.50092223596742,41.65797085837747,23.589942165311577,23.589942165311577,35.39578407173524,42.50092223596742,41.65797085837747,-10,-0.33,0.33,10,34,24,33.67,34.33,44,3.1622776601683795,3.1622776601683795,3.1622776601683795,3.1622776601683795
5,10,0.15553990006446838,o,45.7,Limited Time - 400ms,l,33.25328447647209,33.08644320809391,45.713781220444076,21.12081460122111,21.12081460122111,33.25328447647209,33.08644320809391,45.713781220444076,-10,-0.33,0.33,10,34,24,33.67,34.33,44,3.1622776601683795,3.1622776601683795,3.1622776601683795,3.1622776601683795
5,11,0.14283000002615154,o,45.1,Limited Time - 400ms,l,31.384733611977293,37.75648306349786,45.12399919617924,28.49190705015659,28.49190705015659,31.384733611977293,37.75648306349786,45.12399919617924,-10,-0.33,0.33,10,34,24,33.67,34.33,44,3.1622776601683795,3.1622776601683795,3.1622776601683795,3.1622776601683795
5,12,0.16130969999358058,o,46.0,Limited Time - 400ms,l,33.70150129028664,31.816827376106627,45.95879027932822,24.97770394024168,24.97770394024168,33.70150129028664,31.816827376106627,45.95879027932822,-10,-0.33,0.33,10,34,24,33.67,34.33,44,3.1622776601683795,3.1622776601683795,3.1622776601683795,3.1622776601683795
5,13,0.09682340000290424,o,45.8,Limited Time - 400ms,l,35.32222412454003,33.72518766949951,45.84624194978189,22.27204583614261,22.27204583614261,35.32222412454003,33.72518766949951,45.84624194978189,-10,-0.33,0.33,10,34,24,33.67,34.33,44,3.1622776601683795,3.1622776601683795,3.1622776601683795,3.1622776601683795
5,14,0.19681890006177127,o,44.0,Limited Time - 400ms,l,30.985958049255608,33.37865646487163,43.99225515091924,23.232788543769274,23.232788543769274,30.985958049255608,33.37865646487163,43.99225515091924,-10,-0.33,0.33,10,34,24,33.67,34.33,44,3.1622776601683795,3.1622776601683795,3.1622776601683795,3.1622776601683795
5,15,0.17299110000021756,o,38.4,Limited Time - 400ms,l,34.61578469702801,36.95325461126177,38.422645361769895,25.160861426071165,25.160861426071165,34.61578469702801,36.95325461126177,38.422645361769895,-10,-0.33,0.33,10,34,24,33.67,34.33,44,3.1622776601683795,3.1622776601683795,3.1622776601683795,3.1622776601683795
5,16,0.18357160000596195,o,50.8,Limited Time - 400ms,l,35.88735841025392,29.18414536808669,50.8038252926097,21.400731554053085,21.400731554053085,35.88735841025392,29.18414536808669,50.8038252926097,-10,-0.33,0.33,10,34,24,33.67,34.33,44,3.1622776601683795,3.1622776601683795,3.1622776601683795,3.1622776601683795
5,17,0.10998379997909069,o,40.3,Limited Time - 400ms,l,34.07330816772666,31.77713575261797,40.34808447098919,22.516578624815118,22.516578624815118,34.07330816772666,31.77713575261797,40.34808447098919,-10,-0.33,0.33,10,34,24,33.67,34.33,44,3.1622776601683795,3.1622776601683795,3.1622776601683795,3.1622776601683795
5,18,0.16635720001067966,o,37.9,Limited Time - 400ms,l,34.8975505766801,38.985869086993276,37.863530710061475,28.151806287563016,28.151806287563016,34.8975505766801,38.985869086993276,37.863530710061475,-10,-0.33,0.33,10,34,24,33.67,34.33,44,3.1622776601683795,3.1622776601683795,3.1622776601683795,3.1622776601683795
5,19,0.15697470004670322,o,45.4,Limited Time - 400ms,l,29.614514899363467,29.306957935836934,45.37950379048405,20.901162788915737,20.901162788915737,29.614514899363467,29.306957935836934,45.37950379048405,-10,-0.33,0.33,10,34,24,33.67,34.33,44,3.1622776601683795,3.1622776601683795,3.1622776601683795,3.1622776601683795
5,20,0.030356000061146915,o,45.9,Limited Time - 400ms,l,34.52441782068521,34.732125864607255,45.9276417212385,25.258023953163658,25.258023953163658,34.52441782068521,34.732125864607255,45.9276417212385,-10,-0.33,0.33,10,34,24,33.67,34.33,44,3.1622776601683795,3.1622776601683795,3.1622776601683795,3.1622776601683795
6,1,0.15315429994370788,q,40.6,Limited Time - 800ms,h,40.63795536568362,20.772705883992302,37.32313515804113,41.75030082484052,20.772705883992302,37.32313515804113,41.75030082484052,40.63795536568362,-10,-0.33,0.33,10,34,24,33.67,34.33,44,10,10,10,10
6,2,0.1809213999658823,p,22.0,Limited Time - 800ms,h,42.86447507581634,18.669708257827633,30.609567458726815,22.01885625509796,18.669708257827633,30.609567458726815,22.01885625509796,42.86447507581634,-10,-0.33,0.33,10,34,24,33.67,34.33,44,10,10,10,10
6,3,0.20005520002450794,o,31.2,Limited Time - 800ms,h,20.27297627324735,20.382651643197608,31.1574199423739,8.83441997403946,20.382651643197608,31.1574199423739,8.83441997403946,20.27297627324735,-10,-0.33,0.33,10,34,24,33.67,34.33,44,10,10,10,10
6,4,0.19389940006658435,w,29.2,Limited Time - 800ms,h,45.40536407469534,29.248529733775708,47.93298270151422,38.473789878279796,29.248529733775708,47.93298270151422,38.473789878279796,45.40536407469534,-10,-0.33,0.33,10,34,24,33.67,34.33,44,10,10,10,10
6,5,0.18036330002360046,q,53.6,Limited Time - 800ms,h,53.61710834797408,32.061584185138,48.44316811874859,39.61483402022836,32.061584185138,48.44316811874859,39.61483402022836,53.61710834797408,-10,-0.33,0.33,10,34,24,33.67,34.33,44,10,10,10,10
6,6,0.18442020006477833,p,41.1,Limited Time - 800ms,h,53.459308479205944,17.151589674015426,26.546576448389747,41.14867092483206,17.151589674015426,26.546576448389747,41.14867092483206,53.459308479205944,-10,-0.33,0.33,10,34,24,33.67,34.33,44,10,10,10,10
6,7,0.1554187999572605,w,11.8,Limited Time - 800ms,h,63.46617281652948,11.797080150534041,34.72474412248663,48.41560314074098,11.797080150534041,34.72474412248663,48.41560314074098,63.46617281652948,-10,-0.33,0.33,10,34,24,33.67,34.33,44,10,10,10,10
6,8,0.20551889995113015,p,42.7,Limited Time - 800ms,h,40.86927470878987,25.837281016447946,38.9266086034046,42.65696541871984,25.837281016447946,38.9266086034046,42.65696541871984,40.86927470878987,-10,-0.33,0.33,10,34,24,33.67,34.33,44,10,10,10,10
6,9,0.07147819991223514,w,10.3,Limited Time - 800ms,h,21.972714689950337,10.34344879567497,22.663419003953884,25.50183507295545,10.34344879567497,22.663419003953884,25.50183507295545,21.972714689950337,-10,-0.33,0.33,10,34,24,33.67,34.33,44,10,10,10,10
6,10,0.1613556999946013,w,32.9,Limited Time - 800ms,h,37.5682864311396,32.92981739199924,35.40918216232588,51.14582753553239,32.92981739199924,35.40918216232588,51.14582753553239,37.5682864311396,-10,-0.33,0.33,10,34,24,33.67,34.33,44,10,10,10,10
6,11,0.009510600008070469,w,53.2,Limited Time - 800ms,h,49.997024714572134,53.194863041963956,39.34511161243221,29.531054312337915,53.194863041963956,39.34511161243221,29.531054312337915,49.997024714572134,-10,-0.33,0.33,10,34,24,33.67,34.33,44,10,10,10,10
6,12,0.03724720003083348,w,34.9,Limited Time - 800ms,h,47.31585749601,34.90990975093075,56.73917527860794,44.248872725961654,34.90990975093075,56.73917527860794,44.248872725961654,47.31585749601,-10,-0.33,0.33,10,34,24,33.67,34.33,44,10,10,10,10
6,13,0.061309700016863644,w,17.9,Limited Time - 800ms,h,46.96367791540267,17.853498519159285,24.711585189571167,30.900484963693508,17.853498519159285,24.711585189571167,30.900484963693508,46.96367791540267,-10,-0.33,0.33,10,34,24,33.67,34.33,44,10,10,10,10
6,14,0.04432420001830906,w,20.5,Limited Time - 800ms,h,37.886417831953814,20.500881763160052,18.6897804670119,39.32982763452065,20.500881763160052,18.6897804670119,39.32982763452065,37.886417831953814,-10,-0.33,0.33,10,34,24,33.67,34.33,44,10,10,10,10
6,15,0.0769230000441894,w,29.1,Limited Time - 800ms,h,38.35244241205773,29.07151719443352,33.82048128508821,31.47277108344424,29.07151719443352,33.82048128508821,31.47277108344424,38.35244241205773,-10,-0.33,0.33,10,34,24,33.67,34.33,44,10,10,10,10
6,16,0.03436079993844032,w,33.8,Limited Time - 800ms,h,29.90733612841504,33.82993636911017,21.684103663457,35.52923152122957,33.82993636911017,21.684103663457,35.52923152122957,29.90733612841504,-10,-0.33,0.33,10,34,24,33.67,34.33,44,10,10,10,10
6,17,0.15953659999649972,o,29.3,Limited Time - 800ms,h,49.94786227736749,27.19722413663684,29.321479392833368,35.34648762965304,27.19722413663684,29.321479392833368,35.34648762965304,49.94786227736749,-10,-0.33,0.33,10,34,24,33.67,34.33,44,10,10,10,10
6,18,0.10632620006799698,o,23.6,Limited Time - 800ms,h,28.188627607174496,18.924812274208776,23.630459675478566,46.64876772121911,18.924812274208776,23.630459675478566,46.64876772121911,28.188627607174496,-10,-0.33,0.33,10,34,24,33.67,34.33,44,10,10,10,10
6,19,0.017651400063186884,p,43.8,Limited Time - 800ms,h,52.02886550463354,29.129676055552785,40.58462133048436,43.76675815978081,29.129676055552785,40.58462133048436,43.76675815978081,52.02886550463354,-10,-0.33,0.33,10,34,24,33.67,34.33,44,10,10,10,10
6,20,0.08469700010027736,p,27.4,Limited Time - 800ms,h,39.80321955855373,12.209360891530741,22.526838273942197,27.403724295429416,12.209360891530741,22.526838273942197,27.403724295429416,39.80321955855373,-10,-0.33,0.33,10,34,24,33.67,34.33,44,10,10,10,10
7,1,0.15182250004727393,q,40.6,Unlimited Time,h,40.63795536568362,20.772705883992302,37.32313515804113,41.75030082484052,20.772705883992302,37.32313515804113,41.75030082484052,40.63795536568362,-10,-0.33,0.33,10,34,24,33.67,34.33,44,10,10,10,10
7,2,0.6011652000015602,w,18.7,Unlimited Time,h,42.86447507581634,18.669708257827633,30.609567458726815,22.01885625509796,18.669708257827633,30.609567458726815,22.01885625509796,42.86447507581634,-10,-0.33,0.33,10,34,24,33.67,34.33,44,10,10,10,10
7,3,0.20240129996091127,o,31.2,Unlimited Time,h,20.27297627324735,20.382651643197608,31.1574199423739,8.83441997403946,20.382651643197608,31.1574199423739,8.83441997403946,20.27297627324735,-10,-0.33,0.33,10,34,24,33.67,34.33,44,10,10,10,10
7,4,0.32074310001917183,p,38.5,Unlimited Time,h,45.40536407469534,29.248529733775708,47.93298270151422,38.473789878279796,29.248529733775708,47.93298270151422,38.473789878279796,45.40536407469534,-10,-0.33,0.33,10,34,24,33.67,34.33,44,10,10,10,10
7,5,0.28473509999457747,q,53.6,Unlimited Time,h,53.61710834797408,32.061584185138,48.44316811874859,39.61483402022836,32.061584185138,48.44316811874859,39.61483402022836,53.61710834797408,-10,-0.33,0.33,10,34,24,33.67,34.33,44,10,10,10,10
7,6,0.027342199929989874,w,17.2,Unlimited Time,h,53.459308479205944,17.151589674015426,26.546576448389747,41.14867092483206,17.151589674015426,26.546576448389747,41.14867092483206,53.459308479205944,-10,-0.33,0.33,10,34,24,33.67,34.33,44,10,10,10,10
7,7,0.27136340003926307,o,34.7,Unlimited Time,h,63.46617281652948,11.797080150534041,34.72474412248663,48.41560314074098,11.797080150534041,34.72474412248663,48.41560314074098,63.46617281652948,-10,-0.33,0.33,10,34,24,33.67,34.33,44,10,10,10,10
7,8,0.11891720001585782,p,42.7,Unlimited Time,h,40.86927470878987,25.837281016447946,38.9266086034046,42.65696541871984,25.837281016447946,38.9266086034046,42.65696541871984,40.86927470878987,-10,-0.33,0.33,10,34,24,33.67,34.33,44,10,10,10,10
7,9,0.22446789999958128,q,22.0,Unlimited Time,h,21.972714689950337,10.34344879567497,22.663419003953884,25.50183507295545,10.34344879567497,22.663419003953884,25.50183507295545,21.972714689950337,-10,-0.33,0.33,10,34,24,33.67,34.33,44,10,10,10,10
7,10,0.4610515999374911,o,35.4,Unlimited Time,h,37.5682864311396,32.92981739199924,35.40918216232588,51.14582753553239,32.92981739199924,35.40918216232588,51.14582753553239,37.5682864311396,-10,-0.33,0.33,10,34,24,33.67,34.33,44,10,10,10,10
7,11,0.10650340002030134,p,29.5,Unlimited Time,h,49.997024714572134,53.194863041963956,39.34511161243221,29.531054312337915,53.194863041963956,39.34511161243221,29.531054312337915,49.997024714572134,-10,-0.33,0.33,10,34,24,33.67,34.33,44,10,10,10,10
7,12,0.0767906999681145,q,47.3,Unlimited Time,h,47.31585749601,34.90990975093075,56.73917527860794,44.248872725961654,34.90990975093075,56.73917527860794,44.248872725961654,47.31585749601,-10,-0.33,0.33,10,34,24,33.67,34.33,44,10,10,10,10
7,13,0.772796000004746,w,17.9,Unlimited Time,h,46.96367791540267,17.853498519159285,24.711585189571167,30.900484963693508,17.853498519159285,24.711585189571167,30.900484963693508,46.96367791540267,-10,-0.33,0.33,10,34,24,33.67,34.33,44,10,10,10,10
7,14,0.22535600000992417,o,18.7,Unlimited Time,h,37.886417831953814,20.500881763160052,18.6897804670119,39.32982763452065,20.500881763160052,18.6897804670119,39.32982763452065,37.886417831953814,-10,-0.33,0.33,10,34,24,33.67,34.33,44,10,10,10,10
7,15,0.6078955999109894,p,31.5,Unlimited Time,h,38.35244241205773,29.07151719443352,33.82048128508821,31.47277108344424,29.07151719443352,33.82048128508821,31.47277108344424,38.35244241205773,-10,-0.33,0.33,10,34,24,33.67,34.33,44,10,10,10,10
7,16,0.26963369990698993,q,29.9,Unlimited Time,h,29.90733612841504,33.82993636911017,21.684103663457,35.52923152122957,33.82993636911017,21.684103663457,35.52923152122957,29.90733612841504,-10,-0.33,0.33,10,34,24,33.67,34.33,44,10,10,10,10
7,17,0.011361300013959408,w,27.2,Unlimited Time,h,49.94786227736749,27.19722413663684,29.321479392833368,35.34648762965304,27.19722413663684,29.321479392833368,35.34648762965304,49.94786227736749,-10,-0.33,0.33,10,34,24,33.67,34.33,44,10,10,10,10
7,18,0.3518807999789715,p,46.6,Unlimited Time,h,28.188627607174496,18.924812274208776,23.630459675478566,46.64876772121911,18.924812274208776,23.630459675478566,46.64876772121911,28.188627607174496,-10,-0.33,0.33,10,34,24,33.67,34.33,44,10,10,10,10
7,19,0.47683699999470264,p,43.8,Unlimited Time,h,52.02886550463354,29.129676055552785,40.58462133048436,43.76675815978081,29.129676055552785,40.58462133048436,43.76675815978081,52.02886550463354,-10,-0.33,0.33,10,34,24,33.67,34.33,44,10,10,10,10
7,20,0.030732600018382072,p,27.4,Unlimited Time,h,39.80321955855373,12.209360891530741,22.526838273942197,27.403724295429416,12.209360891530741,22.526838273942197,27.403724295429416,39.80321955855373,-10,-0.33,0.33,10,34,24,33.67,34.33,44,10,10,10,10
8,1,0.10787850001361221,q,40.6,Limited Time - 400ms,h,40.63795536568362,41.75030082484052,37.32313515804113,20.772705883992302,20.772705883992302,37.32313515804113,41.75030082484052,40.63795536568362,-10,-0.33,0.33,10,34,24,33.67,34.33,44,10,10,10,10
8,2,0.25971749995369464,o,30.6,Limited Time - 400ms,h,42.86447507581634,22.01885625509796,30.609567458726815,18.669708257827633,18.669708257827633,30.609567458726815,22.01885625509796,42.86447507581634,-10,-0.33,0.33,10,34,24,33.67,34.33,44,10,10,10,10
8,3,0.17785500001627952,q,20.3,Limited Time - 400ms,h,20.27297627324735,8.83441997403946,31.1574199423739,20.382651643197608,20.382651643197608,31.1574199423739,8.83441997403946,20.27297627324735,-10,-0.33,0.33,10,34,24,33.67,34.33,44,10,10,10,10
8,4,0.09162220009602606,o,47.9,Limited Time - 400ms,h,45.40536407469534,38.473789878279796,47.93298270151422,29.248529733775708,29.248529733775708,47.93298270151422,38.473789878279796,45.40536407469534,-10,-0.33,0.33,10,34,24,33.67,34.33,44,10,10,10,10
8,5,0.06732339994050562,q,53.6,Limited Time - 400ms,h,53.61710834797408,39.61483402022836,48.44316811874859,32.061584185138,32.061584185138,48.44316811874859,39.61483402022836,53.61710834797408,-10,-0.33,0.33,10,34,24,33.67,34.33,44,10,10,10,10
8,6,0.04167619999498129,o,26.5,Limited Time - 400ms,h,53.459308479205944,41.14867092483206,26.546576448389747,17.151589674015426,17.151589674015426,26.546576448389747,41.14867092483206,53.459308479205944,-10,-0.33,0.33,10,34,24,33.67,34.33,44,10,10,10,10
8,7,0.023401099955663085,q,63.5,Limited Time - 400ms,h,63.46617281652948,48.41560314074098,34.72474412248663,11.797080150534041,11.797080150534041,34.72474412248663,48.41560314074098,63.46617281652948,-10,-0.33,0.33,10,34,24,33.67,34.33,44,10,10,10,10
8,8,0.033120600041002035,o,38.9,Limited Time - 400ms,h,40.86927470878987,42.65696541871984,38.9266086034046,25.837281016447946,25.837281016447946,38.9266086034046,42.65696541871984,40.86927470878987,-10,-0.33,0.33,10,34,24,33.67,34.33,44,10,10,10,10
8,9,0.17373969999607652,w,25.5,Limited Time - 400ms,h,21.972714689950337,25.50183507295545,22.663419003953884,10.34344879567497,10.34344879567497,22.663419003953884,25.50183507295545,21.972714689950337,-10,-0.33,0.33,10,34,24,33.67,34.33,44,10,10,10,10
8,10,0.18088410003110766,w,51.1,Limited Time - 400ms,h,37.5682864311396,51.14582753553239,35.40918216232588,32.92981739199924,32.92981739199924,35.40918216232588,51.14582753553239,37.5682864311396,-10,-0.33,0.33,10,34,24,33.67,34.33,44,10,10,10,10
8,11,0.16303059994243085,w,29.5,Limited Time - 400ms,h,49.997024714572134,29.531054312337915,39.34511161243221,53.194863041963956,53.194863041963956,39.34511161243221,29.531054312337915,49.997024714572134,-10,-0.33,0.33,10,34,24,33.67,34.33,44,10,10,10,10
8,12,0.056707900017499924,w,44.2,Limited Time - 400ms,h,47.31585749601,44.248872725961654,56.73917527860794,34.90990975093075,34.90990975093075,56.73917527860794,44.248872725961654,47.31585749601,-10,-0.33,0.33,10,34,24,33.67,34.33,44,10,10,10,10
8,13,0.1101775000570342,w,30.9,Limited Time - 400ms,h,46.96367791540267,30.900484963693508,24.711585189571167,17.853498519159285,17.853498519159285,24.711585189571167,30.900484963693508,46.96367791540267,-10,-0.33,0.33,10,34,24,33.67,34.33,44,10,10,10,10
8,14,0.11803609994240105,w,39.3,Limited Time - 400ms,h,37.886417831953814,39.32982763452065,18.6897804670119,20.500881763160052,20.500881763160052,18.6897804670119,39.32982763452065,37.886417831953814,-10,-0.33,0.33,10,34,24,33.67,34.33,44,10,10,10,10
8,15,0.011632999987341464,w,31.5,Limited Time - 400ms,h,38.35244241205773,31.47277108344424,33.82048128508821,29.07151719443352,29.07151719443352,33.82048128508821,31.47277108344424,38.35244241205773,-10,-0.33,0.33,10,34,24,33.67,34.33,44,10,10,10,10
8,16,0.20939599990379065,w,35.5,Limited Time - 400ms,h,29.90733612841504,35.52923152122957,21.684103663457,33.82993636911017,33.82993636911017,21.684103663457,35.52923152122957,29.90733612841504,-10,-0.33,0.33,10,34,24,33.67,34.33,44,10,10,10,10
8,17,0.054442299995571375,w,35.3,Limited Time - 400ms,h,49.94786227736749,35.34648762965304,29.321479392833368,27.19722413663684,27.19722413663684,29.321479392833368,35.34648762965304,49.94786227736749,-10,-0.33,0.33,10,34,24,33.67,34.33,44,10,10,10,10
8,18,0.07076259993482381,w,46.6,Limited Time - 400ms,h,28.188627607174496,46.64876772121911,23.630459675478566,18.924812274208776,18.924812274208776,23.630459675478566,46.64876772121911,28.188627607174496,-10,-0.33,0.33,10,34,24,33.67,34.33,44,10,10,10,10
8,19,0.16052089992444962,w,43.8,Limited Time - 400ms,h,52.02886550463354,43.76675815978081,40.58462133048436,29.129676055552785,29.129676055552785,40.58462133048436,43.76675815978081,52.02886550463354,-10,-0.33,0.33,10,34,24,33.67,34.33,44,10,10,10,10
8,20,0.22776909999083728,o,22.5,Limited Time - 400ms,h,39.80321955855373,27.403724295429416,22.526838273942197,12.209360891530741,12.209360891530741,22.526838273942197,27.403724295429416,39.80321955855373,-10,-0.33,0.33,10,34,24,33.67,34.33,44,10,10,10,10
9,1,0.16369419998954982,q,51.9,Limited Time - 800ms,i,51.878901850547344,49.544707395502726,24.67666150218714,17.492811558648583,24.67666150218714,17.492811558648583,49.544707395502726,51.878901850547344,-10,-10,10,10,34,24,24,44,44,3.1622776601683795,10,3.1622776601683795,10
9,2,0.03522940003313124,o,25.4,Limited Time - 800ms,i,34.60500542253845,39.58088274546369,25.449157784233666,31.224108084155095,25.449157784233666,31.224108084155095,39.58088274546369,34.60500542253845,-10,-10,10,10,34,24,24,44,44,3.1622776601683795,10,3.1622776601683795,10
9,3,0.09661409992258996,q,45.2,Limited Time - 800ms,i,45.201314710786,43.87823291786313,26.40482331764832,24.726336413718446,26.40482331764832,24.726336413718446,43.87823291786313,45.201314710786,-10,-10,10,10,34,24,24,44,44,3.1622776601683795,10,3.1622776601683795,10
9,4,0.20322789996862411,p,26.8,Limited Time - 800ms,i,47.3708749304171,43.2031207956245,28.08172147977139,26.76651367164125,28.08172147977139,26.76651367164125,43.2031207956245,47.3708749304171,-10,-10,10,10,34,24,24,44,44,3.1622776601683795,10,3.1622776601683795,10
9,5,0.2311695999233052,q,43.7,Limited Time - 800ms,i,43.72205399163304,45.53864185706925,30.029694907059593,29.258669109465973,30.029694907059593,29.258669109465973,45.53864185706925,43.72205399163304,-10,-10,10,10,34,24,24,44,44,3.1622776601683795,10,3.1622776601683795,10
9,6,0.1741722000297159,q,41.7,Limited Time - 800ms,i,41.679492241189635,47.19119297636533,22.66460528995605,16.346853919345758,22.66460528995605,16.346853919345758,47.19119297636533,41.679492241189635,-10,-10,10,10,34,24,24,44,44,3.1622776601683795,10,3.1622776601683795,10
9,7,0.02865110000129789,q,30.2,Limited Time - 800ms,i,30.24173371129815,42.3710551018277,28.33911984774468,18.042739531994624,28.33911984774468,18.042739531994624,42.3710551018277,30.24173371129815,-10,-10,10,10,34,24,24,44,44,3.1622776601683795,10,3.1622776601683795,10
9,8,0.1261594999814406,q,37.1,Limited Time - 800ms,i,37.11641494920917,51.197799005412946,22.239282696822983,9.540014975358742,22.239282696822983,9.540014975358742,51.197799005412946,37.11641494920917,-10,-10,10,10,34,24,24,44,44,3.1622776601683795,10,3.1622776601683795,10
9,9,0.16416730009950697,q,45.7,Limited Time - 800ms,i,45.67353576340057,43.35182206330588,25.87712771253471,26.1258865423442,25.87712771253471,26.1258865423442,43.35182206330588,45.67353576340057,-10,-10,10,10,34,24,24,44,44,3.1622776601683795,10,3.1622776601683795,10
9,10,0.20804379996843636,q,46.1,Limited Time - 800ms,i,46.07601390133905,45.60394521212267,23.157713559247625,10.162783254271227,23.157713559247625,10.162783254271227,45.60394521212267,46.07601390133905,-10,-10,10,10,34,24,24,44,44,3.1622776601683795,10,3.1622776601683795,10
9,11,0.042550800018943846,q,42.7,Limited Time - 800ms,i,42.68624407242686,45.880401637178956,22.517378719650537,18.52098889219367,22.517378719650537,18.52098889219367,45.880401637178956,42.68624407242686,-10,-10,10,10,34,24,24,44,44,3.1622776601683795,10,3.1622776601683795,10
9,12,0.060675199958495796,q,27.3,Limited Time - 800ms,i,27.317750717547813,45.9259656014988,23.640939432706148,16.763938340167826,23.640939432706148,16.763938340167826,45.9259656014988,27.317750717547813,-10,-10,10,10,34,24,24,44,44,3.1622776601683795,10,3.1622776601683795,10
9,13,0.0322615000186488,q,56.4,Limited Time - 800ms,i,56.4007468384627,45.52118117943221,25.283186499534587,26.84901744262085,25.283186499534587,26.84901744262085,45.52118117943221,56.4007468384627,-10,-10,10,10,34,24,24,44,44,3.1622776601683795,10,3.1622776601683795,10
9,14,0.007498899940401316,q,40.4,Limited Time - 800ms,i,40.448722094848435,45.83860997649918,25.878840614705506,13.856629428834882,25.878840614705506,13.856629428834882,45.83860997649918,40.448722094848435,-10,-10,10,10,34,24,24,44,44,3.1622776601683795,10,3.1622776601683795,10
9,15,0.01863880001474172,q,41.6,Limited Time - 800ms,i,41.55383483491001,44.515623206105346,25.775752011660593,10.992447292942927,25.775752011660593,10.992447292942927,44.515623206105346,41.55383483491001,-10,-10,10,10,34,24,24,44,44,3.1622776601683795,10,3.1622776601683795,10
9,16,0.012396199977956712,q,62.7,Limited Time - 800ms,i,62.73604389258768,42.233026972947286,21.60417750366681,32.72970748325953,21.60417750366681,32.72970748325953,42.233026972947286,62.73604389258768,-10,-10,10,10,34,24,24,44,44,3.1622776601683795,10,3.1622776601683795,10
9,17,0.15410310006700456,q,51.8,Limited Time - 800ms,i,51.83409976016146,39.662664335739755,21.108824010647382,37.636063201885754,21.108824010647382,37.636063201885754,39.662664335739755,51.83409976016146,-10,-10,10,10,34,24,24,44,44,3.1622776601683795,10,3.1622776601683795,10
9,18,0.05505040008574724,q,28.2,Limited Time - 800ms,i,28.174318998456044,41.53511897307054,26.57623337072501,40.89063419850221,26.57623337072501,40.89063419850221,41.53511897307054,28.174318998456044,-10,-10,10,10,34,24,24,44,44,3.1622776601683795,10,3.1622776601683795,10
9,19,0.07971580000594258,q,44.2,Limited Time - 800ms,i,44.17927658262949,46.92369910484246,22.750201912675426,41.56294339996903,22.750201912675426,41.56294339996903,46.92369910484246,44.17927658262949,-10,-10,10,10,34,24,24,44,44,3.1622776601683795,10,3.1622776601683795,10
9,20,0.08004449994768947,q,38.6,Limited Time - 800ms,i,38.5735872040575,44.19709960976919,29.564613022363126,26.03899344856407,29.564613022363126,26.03899344856407,44.19709960976919,38.5735872040575,-10,-10,10,10,34,24,24,44,44,3.1622776601683795,10,3.1622776601683795,10
10,1,1.4271525000222027,q,37.3,Unlimited Time,h,37.32313515804113,20.772705883992302,41.75030082484052,40.63795536568362,20.772705883992302,37.32313515804113,41.75030082484052,40.63795536568362,-10,-0.33,0.33,10,34,24,33.67,34.33,44,10,10,10,10
10,2,0.5017671000678092,w,18.7,Unlimited Time,h,30.609567458726815,18.669708257827633,22.01885625509796,42.86447507581634,18.669708257827633,30.609567458726815,22.01885625509796,42.86447507581634,-10,-0.33,0.33,10,34,24,33.67,34.33,44,10,10,10,10
10,3,0.25738249998539686,o,8.8,Unlimited Time,h,31.1574199423739,20.382651643197608,8.83441997403946,20.27297627324735,20.382651643197608,31.1574199423739,8.83441997403946,20.27297627324735,-10,-0.33,0.33,10,34,24,33.67,34.33,44,10,10,10,10
10,4,0.2884146999567747,p,45.4,Unlimited Time,h,47.93298270151422,29.248529733775708,38.473789878279796,45.40536407469534,29.248529733775708,47.93298270151422,38.473789878279796,45.40536407469534,-10,-0.33,0.33,10,34,24,33.67,34.33,44,10,10,10,10
10,5,0.4741573000792414,q,48.4,Unlimited Time,h,48.44316811874859,32.061584185138,39.61483402022836,53.61710834797408,32.061584185138,48.44316811874859,39.61483402022836,53.61710834797408,-10,-0.33,0.33,10,34,24,33.67,34.33,44,10,10,10,10
10,6,0.7567046999465674,w,17.2,Unlimited Time,h,26.546576448389747,17.151589674015426,41.14867092483206,53.459308479205944,17.151589674015426,26.546576448389747,41.14867092483206,53.459308479205944,-10,-0.33,0.33,10,34,24,33.67,34.33,44,10,10,10,10
10,7,0.2673551000189036,o,48.4,Unlimited Time,h,34.72474412248663,11.797080150534041,48.41560314074098,63.46617281652948,11.797080150534041,34.72474412248663,48.41560314074098,63.46617281652948,-10,-0.33,0.33,10,34,24,33.67,34.33,44,10,10,10,10
10,8,0.33795229997485876,p,40.9,Unlimited Time,h,38.9266086034046,25.837281016447946,42.65696541871984,40.86927470878987,25.837281016447946,38.9266086034046,42.65696541871984,40.86927470878987,-10,-0.33,0.33,10,34,24,33.67,34.33,44,10,10,10,10
10,9,0.25827730004675686,q,22.7,Unlimited Time,h,22.663419003953884,10.34344879567497,25.50183507295545,21.972714689950337,10.34344879567497,22.663419003953884,25.50183507295545,21.972714689950337,-10,-0.33,0.33,10,34,24,33.67,34.33,44,10,10,10,10
10,10,0.772861999925226,w,32.9,Unlimited Time,h,35.40918216232588,32.92981739199924,51.14582753553239,37.5682864311396,32.92981739199924,35.40918216232588,51.14582753553239,37.5682864311396,-10,-0.33,0.33,10,34,24,33.67,34.33,44,10,10,10,10
10,11,0.250635499949567,o,29.5,Unlimited Time,h,39.34511161243221,53.194863041963956,29.531054312337915,49.997024714572134,53.194863041963956,39.34511161243221,29.531054312337915,49.997024714572134,-10,-0.33,0.33,10,34,24,33.67,34.33,44,10,10,10,10
10,12,0.2678065999643877,p,47.3,Unlimited Time,h,56.73917527860794,34.90990975093075,44.248872725961654,47.31585749601,34.90990975093075,56.73917527860794,44.248872725961654,47.31585749601,-10,-0.33,0.33,10,34,24,33.67,34.33,44,10,10,10,10
10,13,0.37738740001805127,q,24.7,Unlimited Time,h,24.711585189571167,17.853498519159285,30.900484963693508,46.96367791540267,17.853498519159285,24.711585189571167,30.900484963693508,46.96367791540267,-10,-0.33,0.33,10,34,24,33.67,34.33,44,10,10,10,10
10,14,0.3678971000481397,q,18.7,Unlimited Time,h,18.6897804670119,20.500881763160052,39.32982763452065,37.886417831953814,20.500881763160052,18.6897804670119,39.32982763452065,37.886417831953814,-10,-0.33,0.33,10,34,24,33.67,34.33,44,10,10,10,10
10,15,0.09390960005111992,q,33.8,Unlimited Time,h,33.82048128508821,29.07151719443352,31.47277108344424,38.35244241205773,29.07151719443352,33.82048128508821,31.47277108344424,38.35244241205773,-10,-0.33,0.33,10,34,24,33.67,34.33,44,10,10,10,10
10,16,0.004126799991354346,q,21.7,Unlimited Time,h,21.684103663457,33.82993636911017,35.52923152122957,29.90733612841504,33.82993636911017,21.684103663457,35.52923152122957,29.90733612841504,-10,-0.33,0.33,10,34,24,33.67,34.33,44,10,10,10,10
10,17,0.2149953000480309,p,49.9,Unlimited Time,h,29.321479392833368,27.19722413663684,35.34648762965304,49.94786227736749,27.19722413663684,29.321479392833368,35.34648762965304,49.94786227736749,-10,-0.33,0.33,10,34,24,33.67,34.33,44,10,10,10,10
10,18,0.1506389999995008,q,23.6,Unlimited Time,h,23.630459675478566,18.924812274208776,46.64876772121911,28.188627607174496,18.924812274208776,23.630459675478566,46.64876772121911,28.188627607174496,-10,-0.33,0.33,10,34,24,33.67,34.33,44,10,10,10,10
10,19,0.1272952000144869,o,43.8,Unlimited Time,h,40.58462133048436,29.129676055552785,43.76675815978081,52.02886550463354,29.129676055552785,40.58462133048436,43.76675815978081,52.02886550463354,-10,-0.33,0.33,10,34,24,33.67,34.33,44,10,10,10,10
10,20,0.131732500041835,o,27.4,Unlimited Time,h,22.526838273942197,12.209360891530741,27.403724295429416,39.80321955855373,12.209360891530741,22.526838273942197,27.403724295429416,39.80321955855373,-10,-0.33,0.33,10,34,24,33.67,34.33,44,10,10,10,10
11,1,0.08568569994531572,w,40.6,Limited Time - 400ms,h,20.772705883992302,40.63795536568362,37.32313515804113,41.75030082484052,20.772705883992302,37.32313515804113,41.75030082484052,40.63795536568362,-10,-0.33,0.33,10,34,24,33.67,34.33,44,10,10,10,10
11,2,0.03152130008675158,w,42.9,Limited Time - 400ms,h,18.669708257827633,42.86447507581634,30.609567458726815,22.01885625509796,18.669708257827633,30.609567458726815,22.01885625509796,42.86447507581634,-10,-0.33,0.33,10,34,24,33.67,34.33,44,10,10,10,10
11,3,0.04604709998238832,q,20.4,Limited Time - 400ms,h,20.382651643197608,20.27297627324735,31.1574199423739,8.83441997403946,20.382651643197608,31.1574199423739,8.83441997403946,20.27297627324735,-10,-0.33,0.33,10,34,24,33.67,34.33,44,10,10,10,10
11,4,0.11557889997493476,o,47.9,Limited Time - 400ms,h,29.248529733775708,45.40536407469534,47.93298270151422,38.473789878279796,29.248529733775708,47.93298270151422,38.473789878279796,45.40536407469534,-10,-0.33,0.33,10,34,24,33.67,34.33,44,10,10,10,10
11,5,0.041140499990433455,q,32.1,Limited Time - 400ms,h,32.061584185138,53.61710834797408,48.44316811874859,39.61483402022836,32.061584185138,48.44316811874859,39.61483402022836,53.61710834797408,-10,-0.33,0.33,10,34,24,33.67,34.33,44,10,10,10,10
11,6,0.12839159998111427,q,17.2,Limited Time - 400ms,h,17.151589674015426,53.459308479205944,26.546576448389747,41.14867092483206,17.151589674015426,26.546576448389747,41.14867092483206,53.459308479205944,-10,-0.33,0.33,10,34,24,33.67,34.33,44,10,10,10,10
11,7,0.2495198999531567,w,63.5,Limited Time - 400ms,h,11.797080150534041,63.46617281652948,34.72474412248663,48.41560314074098,11.797080150534041,34.72474412248663,48.41560314074098,63.46617281652948,-10,-0.33,0.33,10,34,24,33.67,34.33,44,10,10,10,10
11,8,0.0341897999169305,w,40.9,Limited Time - 400ms,h,25.837281016447946,40.86927470878987,38.9266086034046,42.65696541871984,25.837281016447946,38.9266086034046,42.65696541871984,40.86927470878987,-10,-0.33,0.33,10,34,24,33.67,34.33,44,10,10,10,10
11,9,0.06106440001167357,w,22.0,Limited Time - 400ms,h,10.34344879567497,21.972714689950337,22.663419003953884,25.50183507295545,10.34344879567497,22.663419003953884,25.50183507295545,21.972714689950337,-10,-0.33,0.33,10,34,24,33.67,34.33,44,10,10,10,10
11,10,0.021460099960677326,w,37.6,Limited Time - 400ms,h,32.92981739199924,37.5682864311396,35.40918216232588,51.14582753553239,32.92981739199924,35.40918216232588,51.14582753553239,37.5682864311396,-10,-0.33,0.33,10,34,24,33.67,34.33,44,10,10,10,10
11,11,0.036513300030492246,w,50.0,Limited Time - 400ms,h,53.194863041963956,49.997024714572134,39.34511161243221,29.531054312337915,53.194863041963956,39.34511161243221,29.531054312337915,49.997024714572134,-10,-0.33,0.33,10,34,24,33.67,34.33,44,10,10,10,10
11,12,0.06112130009569228,w,47.3,Limited Time - 400ms,h,34.90990975093075,47.31585749601,56.73917527860794,44.248872725961654,34.90990975093075,56.73917527860794,44.248872725961654,47.31585749601,-10,-0.33,0.33,10,34,24,33.67,34.33,44,10,10,10,10
11,13,0.08311499992851168,w,47.0,Limited Time - 400ms,h,17.853498519159285,46.96367791540267,24.711585189571167,30.900484963693508,17.853498519159285,24.711585189571167,30.900484963693508,46.96367791540267,-10,-0.33,0.33,10,34,24,33.67,34.33,44,10,10,10,10
11,14,0.17636549996677786,o,18.7,Limited Time - 400ms,h,20.500881763160052,37.886417831953814,18.6897804670119,39.32982763452065,20.500881763160052,18.6897804670119,39.32982763452065,37.886417831953814,-10,-0.33,0.33,10,34,24,33.67,34.33,44,10,10,10,10
11,15,0.0642873999895528,o,33.8,Limited Time - 400ms,h,29.07151719443352,38.35244241205773,33.82048128508821,31.47277108344424,29.07151719443352,33.82048128508821,31.47277108344424,38.35244241205773,-10,-0.33,0.33,10,34,24,33.67,34.33,44,10,10,10,10
11,16,0.023391299997456372,p,35.5,Limited Time - 400ms,h,33.82993636911017,29.90733612841504,21.684103663457,35.52923152122957,33.82993636911017,21.684103663457,35.52923152122957,29.90733612841504,-10,-0.33,0.33,10,34,24,33.67,34.33,44,10,10,10,10
11,17,0.041888699983246624,q,27.2,Limited Time - 400ms,h,27.19722413663684,49.94786227736749,29.321479392833368,35.34648762965304,27.19722413663684,29.321479392833368,35.34648762965304,49.94786227736749,-10,-0.33,0.33,10,34,24,33.67,34.33,44,10,10,10,10
11,18,0.16164890001527965,q,18.9,Limited Time - 400ms,h,18.924812274208776,28.188627607174496,23.630459675478566,46.64876772121911,18.924812274208776,23.630459675478566,46.64876772121911,28.188627607174496,-10,-0.33,0.33,10,34,24,33.67,34.33,44,10,10,10,10
11,19,0.07903070002794266,q,29.1,Limited Time - 400ms,h,29.129676055552785,52.02886550463354,40.58462133048436,43.76675815978081,29.129676055552785,40.58462133048436,43.76675815978081,52.02886550463354,-10,-0.33,0.33,10,34,24,33.67,34.33,44,10,10,10,10
11,20,0.20931689999997616,q,12.2,Limited Time - 400ms,h,12.209360891530741,39.80321955855373,22.526838273942197,27.403724295429416,12.209360891530741,22.526838273942197,27.403724295429416,39.80321955855373,-10,-0.33,0.33,10,34,24,33.67,34.33,44,10,10,10,10
12,1,0.15115110005717725,q,32.1,Limited Time - 800ms,l,32.06432932713762,21.465455462356715,35.8332602028594,36.29422869148579,21.465455462356715,35.8332602028594,32.06432932713762,36.29422869148579,-10,-0.33,0.33,10,34,24,33.67,34.33,44,3.1622776601683795,3.1622776601683795,3.1622776601683795,3.1622776601683795
12,2,0.0016755000688135624,o,37.0,Limited Time - 800ms,l,38.003852954104346,27.993978378052336,37.012002814016526,43.97831599192992,27.993978378052336,37.012002814016526,38.003852954104346,43.97831599192992,-10,-0.33,0.33,10,34,24,33.67,34.33,44,3.1622776601683795,3.1622776601683795,3.1622776601683795,3.1622776601683795
12,3,0.309440299984999,q,31.0,Limited Time - 800ms,l,30.9952034868263,18.76351147783368,37.537327239797065,44.671378320305294,18.76351147783368,37.537327239797065,30.9952034868263,44.671378320305294,-10,-0.33,0.33,10,34,24,33.67,34.33,44,3.1622776601683795,3.1622776601683795,3.1622776601683795,3.1622776601683795
12,4,0.24437440000474453,o,30.7,Limited Time - 800ms,l,38.73738063716412,24.73095797100894,30.74818341403219,42.88817318358308,24.73095797100894,30.74818341403219,38.73738063716412,42.88817318358308,-10,-0.33,0.33,10,34,24,33.67,34.33,44,3.1622776601683795,3.1622776601683795,3.1622776601683795,3.1622776601683795
12,5,0.19724550005048513,q,36.8,Limited Time - 800ms,l,36.8017991207785,17.478686230990256,33.002613768684164,42.78931599081605,17.478686230990256,33.002613768684164,36.8017991207785,42.78931599081605,-10,-0.33,0.33,10,34,24,33.67,34.33,44,3.1622776601683795,3.1622776601683795,3.1622776601683795,3.1622776601683795
12,6,0.16289189993403852,o,30.3,Limited Time - 800ms,l,33.58228045200471,25.956514622841123,30.250404885486606,45.655549827571804,25.956514622841123,30.250404885486606,33.58228045200471,45.655549827571804,-10,-0.33,0.33,10,34,24,33.67,34.33,44,3.1622776601683795,3.1622776601683795,3.1622776601683795,3.1622776601683795
12,7,0.3817176000447944,q,39.7,Limited Time - 800ms,l,39.732500591233006,26.785503461880758,32.53658881463668,42.37182077937164,26.785503461880758,32.53658881463668,39.732500591233006,42.37182077937164,-10,-0.33,0.33,10,34,24,33.67,34.33,44,3.1622776601683795,3.1622776601683795,3.1622776601683795,3.1622776601683795
12,8,0.3509388000238687,w,27.5,Limited Time - 800ms,l,35.08419534678871,27.479745212522744,35.42719434406548,42.7088583166138,27.479745212522744,35.42719434406548,35.08419534678871,42.7088583166138,-10,-0.33,0.33,10,34,24,33.67,34.33,44,3.1622776601683795,3.1622776601683795,3.1622776601683795,3.1622776601683795
12,9,0.4234745000721887,p,41.7,Limited Time - 800ms,l,42.50092223596742,23.589942165311577,35.39578407173524,41.65797085837747,23.589942165311577,35.39578407173524,42.50092223596742,41.65797085837747,-10,-0.33,0.33,10,34,24,33.67,34.33,44,3.1622776601683795,3.1622776601683795,3.1622776601683795,3.1622776601683795
12,10,0.18690780003089458,w,21.1,Limited Time - 800ms,l,33.08644320809391,21.12081460122111,33.25328447647209,45.713781220444076,21.12081460122111,33.25328447647209,33.08644320809391,45.713781220444076,-10,-0.33,0.33,10,34,24,33.67,34.33,44,3.1622776601683795,3.1622776601683795,3.1622776601683795,3.1622776601683795
12,11,0.01529170002322644,p,45.1,Limited Time - 800ms,l,37.75648306349786,28.49190705015659,31.384733611977293,45.12399919617924,28.49190705015659,31.384733611977293,37.75648306349786,45.12399919617924,-10,-0.33,0.33,10,34,24,33.67,34.33,44,3.1622776601683795,3.1622776601683795,3.1622776601683795,3.1622776601683795
12,12,0.05414759996347129,w,25.0,Limited Time - 800ms,l,31.816827376106627,24.97770394024168,33.70150129028664,45.95879027932822,24.97770394024168,33.70150129028664,31.816827376106627,45.95879027932822,-10,-0.33,0.33,10,34,24,33.67,34.33,44,3.1622776601683795,3.1622776601683795,3.1622776601683795,3.1622776601683795
12,13,0.08165229996666312,p,45.8,Limited Time - 800ms,l,33.72518766949951,22.27204583614261,35.32222412454003,45.84624194978189,22.27204583614261,35.32222412454003,33.72518766949951,45.84624194978189,-10,-0.33,0.33,10,34,24,33.67,34.33,44,3.1622776601683795,3.1622776601683795,3.1622776601683795,3.1622776601683795
12,14,0.023538999957963824,w,23.2,Limited Time - 800ms,l,33.37865646487163,23.232788543769274,30.985958049255608,43.99225515091924,23.232788543769274,30.985958049255608,33.37865646487163,43.99225515091924,-10,-0.33,0.33,10,34,24,33.67,34.33,44,3.1622776601683795,3.1622776601683795,3.1622776601683795,3.1622776601683795
12,15,0.2474509000312537,q,37.0,Limited Time - 800ms,l,36.95325461126177,25.160861426071165,34.61578469702801,38.422645361769895,25.160861426071165,34.61578469702801,36.95325461126177,38.422645361769895,-10,-0.33,0.33,10,34,24,33.67,34.33,44,3.1622776601683795,3.1622776601683795,3.1622776601683795,3.1622776601683795
12,16,0.39450749999377877,q,29.2,Limited Time - 800ms,l,29.18414536808669,21.400731554053085,35.88735841025392,50.8038252926097,21.400731554053085,35.88735841025392,29.18414536808669,50.8038252926097,-10,-0.33,0.33,10,34,24,33.67,34.33,44,3.1622776601683795,3.1622776601683795,3.1622776601683795,3.1622776601683795
12,17,0.151119300047867,q,31.8,Limited Time - 800ms,l,31.77713575261797,22.516578624815118,34.07330816772666,40.34808447098919,22.516578624815118,34.07330816772666,31.77713575261797,40.34808447098919,-10,-0.33,0.33,10,34,24,33.67,34.33,44,3.1622776601683795,3.1622776601683795,3.1622776601683795,3.1622776601683795
12,18,0.1959359000902623,p,37.9,Limited Time - 800ms,l,38.985869086993276,28.151806287563016,34.8975505766801,37.863530710061475,28.151806287563016,34.8975505766801,38.985869086993276,37.863530710061475,-10,-0.33,0.33,10,34,24,33.67,34.33,44,3.1622776601683795,3.1622776601683795,3.1622776601683795,3.1622776601683795
12,19,0.09942560002673417,p,45.4,Limited Time - 800ms,l,29.306957935836934,20.901162788915737,29.614514899363467,45.37950379048405,20.901162788915737,29.614514899363467,29.306957935836934,45.37950379048405,-10,-0.33,0.33,10,34,24,33.67,34.33,44,3.1622776601683795,3.1622776601683795,3.1622776601683795,3.1622776601683795
12,20,0.15347450005356222,q,34.7,Limited Time - 800ms,l,34.732125864607255,25.258023953163658,34.52441782068521,45.9276417212385,25.258023953163658,34.52441782068521,34.732125864607255,45.9276417212385,-10,-0.33,0.33,10,34,24,33.67,34.33,44,3.1622776601683795,3.1622776601683795,3.1622776601683795,3.1622776601683795
13,1,1.5499397999374196,q,17.5,Unlimited Time,i,17.492811558648583,51.878901850547344,49.544707395502726,24.67666150218714,24.67666150218714,17.492811558648583,49.544707395502726,51.878901850547344,-10,-10,10,10,34,24,24,44,44,3.1622776601683795,10,3.1622776601683795,10
13,2,0.2858809999888763,w,34.6,Unlimited Time,i,31.224108084155095,34.60500542253845,39.58088274546369,25.449157784233666,25.449157784233666,31.224108084155095,39.58088274546369,34.60500542253845,-10,-10,10,10,34,24,24,44,44,3.1622776601683795,10,3.1622776601683795,10
13,3,0.23436770006082952,o,43.9,Unlimited Time,i,24.726336413718446,45.201314710786,43.87823291786313,26.40482331764832,26.40482331764832,24.726336413718446,43.87823291786313,45.201314710786,-10,-10,10,10,34,24,24,44,44,3.1622776601683795,10,3.1622776601683795,10
13,4,0.26725010003428906,p,28.1,Unlimited Time,i,26.76651367164125,47.3708749304171,43.2031207956245,28.08172147977139,28.08172147977139,26.76651367164125,43.2031207956245,47.3708749304171,-10,-10,10,10,34,24,24,44,44,3.1622776601683795,10,3.1622776601683795,10
13,5,0.27068590000271797,q,29.3,Unlimited Time,i,29.258669109465973,43.72205399163304,45.53864185706925,30.029694907059593,30.029694907059593,29.258669109465973,45.53864185706925,43.72205399163304,-10,-10,10,10,34,24,24,44,44,3.1622776601683795,10,3.1622776601683795,10
13,6,0.24723129998892546,w,41.7,Unlimited Time,i,16.346853919345758,41.679492241189635,47.19119297636533,22.66460528995605,22.66460528995605,16.346853919345758,47.19119297636533,41.679492241189635,-10,-10,10,10,34,24,24,44,44,3.1622776601683795,10,3.1622776601683795,10
13,7,0.37236989999655634,p,28.3,Unlimited Time,i,18.042739531994624,30.24173371129815,42.3710551018277,28.33911984774468,28.33911984774468,18.042739531994624,42.3710551018277,30.24173371129815,-10,-10,10,10,34,24,24,44,44,3.1622776601683795,10,3.1622776601683795,10
13,8,0.3358882999746129,o,51.2,Unlimited Time,i,9.540014975358742,37.11641494920917,51.197799005412946,22.239282696822983,22.239282696822983,9.540014975358742,51.197799005412946,37.11641494920917,-10,-10,10,10,34,24,24,44,44,3.1622776601683795,10,3.1622776601683795,10
13,9,0.3882885000202805,o,43.4,Unlimited Time,i,26.1258865423442,45.67353576340057,43.35182206330588,25.87712771253471,25.87712771253471,26.1258865423442,43.35182206330588,45.67353576340057,-10,-10,10,10,34,24,24,44,44,3.1622776601683795,10,3.1622776601683795,10
13,10,0.1330186000559479,w,46.1,Unlimited Time,i,10.162783254271227,46.07601390133905,45.60394521212267,23.157713559247625,23.157713559247625,10.162783254271227,45.60394521212267,46.07601390133905,-10,-10,10,10,34,24,24,44,44,3.1622776601683795,10,3.1622776601683795,10
13,11,0.20578780001960695,o,45.9,Unlimited Time,i,18.52098889219367,42.68624407242686,45.880401637178956,22.517378719650537,22.517378719650537,18.52098889219367,45.880401637178956,42.68624407242686,-10,-10,10,10,34,24,24,44,44,3.1622776601683795,10,3.1622776601683795,10
13,12,0.15715059998910874,w,27.3,Unlimited Time,i,16.763938340167826,27.317750717547813,45.9259656014988,23.640939432706148,23.640939432706148,16.763938340167826,45.9259656014988,27.317750717547813,-10,-10,10,10,34,24,24,44,44,3.1622776601683795,10,3.1622776601683795,10
13,13,0.3973806999856606,o,45.5,Unlimited Time,i,26.84901744262085,56.4007468384627,45.52118117943221,25.283186499534587,25.283186499534587,26.84901744262085,45.52118117943221,56.4007468384627,-10,-10,10,10,34,24,24,44,44,3.1622776601683795,10,3.1622776601683795,10
13,14,0.22090590000152588,o,45.8,Unlimited Time,i,13.856629428834882,40.448722094848435,45.83860997649918,25.878840614705506,25.878840614705506,13.856629428834882,45.83860997649918,40.448722094848435,-10,-10,10,10,34,24,24,44,44,3.1622776601683795,10,3.1622776601683795,10
13,15,0.20927180000580847,o,44.5,Unlimited Time,i,10.992447292942927,41.55383483491001,44.515623206105346,25.775752011660593,25.775752011660593,10.992447292942927,44.515623206105346,41.55383483491001,-10,-10,10,10,34,24,24,44,44,3.1622776601683795,10,3.1622776601683795,10
13,16,0.13783800008241087,o,42.2,Unlimited Time,i,32.72970748325953,62.73604389258768,42.233026972947286,21.60417750366681,21.60417750366681,32.72970748325953,42.233026972947286,62.73604389258768,-10,-10,10,10,34,24,24,44,44,3.1622776601683795,10,3.1622776601683795,10
13,17,0.5934536999557167,o,39.7,Unlimited Time,i,37.636063201885754,51.83409976016146,39.662664335739755,21.108824010647382,21.108824010647382,37.636063201885754,39.662664335739755,51.83409976016146,-10,-10,10,10,34,24,24,44,44,3.1622776601683795,10,3.1622776601683795,10
13,18,0.12676840007770807,o,41.5,Unlimited Time,i,40.89063419850221,28.174318998456044,41.53511897307054,26.57623337072501,26.57623337072501,40.89063419850221,41.53511897307054,28.174318998456044,-10,-10,10,10,34,24,24,44,44,3.1622776601683795,10,3.1622776601683795,10
13,19,0.1328781999181956,o,46.9,Unlimited Time,i,41.56294339996903,44.17927658262949,46.92369910484246,22.750201912675426,22.750201912675426,41.56294339996903,46.92369910484246,44.17927658262949,-10,-10,10,10,34,24,24,44,44,3.1622776601683795,10,3.1622776601683795,10
13,20,0.19874040002468973,o,44.2,Unlimited Time,i,26.03899344856407,38.5735872040575,44.19709960976919,29.564613022363126,29.564613022363126,26.03899344856407,44.19709960976919,38.5735872040575,-10,-10,10,10,34,24,24,44,44,3.1622776601683795,10,3.1622776601683795,10
14,1,0.21409770008176565,q,35.8,Limited Time - 400ms,l,35.8332602028594,36.29422869148579,21.465455462356715,32.06432932713762,21.465455462356715,35.8332602028594,32.06432932713762,36.29422869148579,-10,-0.33,0.33,10,34,24,33.67,34.33,44,3.1622776601683795,3.1622776601683795,3.1622776601683795,3.1622776601683795
14,2,0.20262600004207343,o,28.0,Limited Time - 400ms,l,37.012002814016526,43.97831599192992,27.993978378052336,38.003852954104346,27.993978378052336,37.012002814016526,38.003852954104346,43.97831599192992,-10,-0.33,0.33,10,34,24,33.67,34.33,44,3.1622776601683795,3.1622776601683795,3.1622776601683795,3.1622776601683795
14,3,0.16309799998998642,q,37.5,Limited Time - 400ms,l,37.537327239797065,44.671378320305294,18.76351147783368,30.9952034868263,18.76351147783368,37.537327239797065,30.9952034868263,44.671378320305294,-10,-0.33,0.33,10,34,24,33.67,34.33,44,3.1622776601683795,3.1622776601683795,3.1622776601683795,3.1622776601683795
14,4,0.027140500023961067,o,24.7,Limited Time - 400ms,l,30.74818341403219,42.88817318358308,24.73095797100894,38.73738063716412,24.73095797100894,30.74818341403219,38.73738063716412,42.88817318358308,-10,-0.33,0.33,10,34,24,33.67,34.33,44,3.1622776601683795,3.1622776601683795,3.1622776601683795,3.1622776601683795
14,5,0.06600099999923259,q,33.0,Limited Time - 400ms,l,33.002613768684164,42.78931599081605,17.478686230990256,36.8017991207785,17.478686230990256,33.002613768684164,36.8017991207785,42.78931599081605,-10,-0.33,0.33,10,34,24,33.67,34.33,44,3.1622776601683795,3.1622776601683795,3.1622776601683795,3.1622776601683795
14,6,0.20846690004691482,p,33.6,Limited Time - 400ms,l,30.250404885486606,45.655549827571804,25.956514622841123,33.58228045200471,25.956514622841123,30.250404885486606,33.58228045200471,45.655549827571804,-10,-0.33,0.33,10,34,24,33.67,34.33,44,3.1622776601683795,3.1622776601683795,3.1622776601683795,3.1622776601683795
14,7,0.01653050002641976,w,42.4,Limited Time - 400ms,l,32.53658881463668,42.37182077937164,26.785503461880758,39.732500591233006,26.785503461880758,32.53658881463668,39.732500591233006,42.37182077937164,-10,-0.33,0.33,10,34,24,33.67,34.33,44,3.1622776601683795,3.1622776601683795,3.1622776601683795,3.1622776601683795
14,8,0.1212703000055626,q,35.4,Limited Time - 400ms,l,35.42719434406548,42.7088583166138,27.479745212522744,35.08419534678871,27.479745212522744,35.42719434406548,35.08419534678871,42.7088583166138,-10,-0.33,0.33,10,34,24,33.67,34.33,44,3.1622776601683795,3.1622776601683795,3.1622776601683795,3.1622776601683795
14,9,0.21549630002118647,p,42.5,Limited Time - 400ms,l,35.39578407173524,41.65797085837747,23.589942165311577,42.50092223596742,23.589942165311577,35.39578407173524,42.50092223596742,41.65797085837747,-10,-0.33,0.33,10,34,24,33.67,34.33,44,3.1622776601683795,3.1622776601683795,3.1622776601683795,3.1622776601683795
14,10,0.3580157000105828,q,33.3,Limited Time - 400ms,l,33.25328447647209,45.713781220444076,21.12081460122111,33.08644320809391,21.12081460122111,33.25328447647209,33.08644320809391,45.713781220444076,-10,-0.33,0.33,10,34,24,33.67,34.33,44,3.1622776601683795,3.1622776601683795,3.1622776601683795,3.1622776601683795
14,11,0.2639001999050379,p,37.8,Limited Time - 400ms,l,31.384733611977293,45.12399919617924,28.49190705015659,37.75648306349786,28.49190705015659,31.384733611977293,37.75648306349786,45.12399919617924,-10,-0.33,0.33,10,34,24,33.67,34.33,44,3.1622776601683795,3.1622776601683795,3.1622776601683795,3.1622776601683795
14,12,0.0029399999184533954,w,46.0,Limited Time - 400ms,l,33.70150129028664,45.95879027932822,24.97770394024168,31.816827376106627,24.97770394024168,33.70150129028664,31.816827376106627,45.95879027932822,-10,-0.33,0.33,10,34,24,33.67,34.33,44,3.1622776601683795,3.1622776601683795,3.1622776601683795,3.1622776601683795
14,13,0.12862800003495067,q,35.3,Limited Time - 400ms,l,35.32222412454003,45.84624194978189,22.27204583614261,33.72518766949951,22.27204583614261,35.32222412454003,33.72518766949951,45.84624194978189,-10,-0.33,0.33,10,34,24,33.67,34.33,44,3.1622776601683795,3.1622776601683795,3.1622776601683795,3.1622776601683795
14,14,0.02024330000858754,o,23.2,Limited Time - 400ms,l,30.985958049255608,43.99225515091924,23.232788543769274,33.37865646487163,23.232788543769274,30.985958049255608,33.37865646487163,43.99225515091924,-10,-0.33,0.33,10,34,24,33.67,34.33,44,3.1622776601683795,3.1622776601683795,3.1622776601683795,3.1622776601683795
14,15,0.0029177000978961587,o,25.2,Limited Time - 400ms,l,34.61578469702801,38.422645361769895,25.160861426071165,36.95325461126177,25.160861426071165,34.61578469702801,36.95325461126177,38.422645361769895,-10,-0.33,0.33,10,34,24,33.67,34.33,44,3.1622776601683795,3.1622776601683795,3.1622776601683795,3.1622776601683795
14,16,0.014919199980795383,o,21.4,Limited Time - 400ms,l,35.88735841025392,50.8038252926097,21.400731554053085,29.18414536808669,21.400731554053085,35.88735841025392,29.18414536808669,50.8038252926097,-10,-0.33,0.33,10,34,24,33.67,34.33,44,3.1622776601683795,3.1622776601683795,3.1622776601683795,3.1622776601683795
14,17,0.09762090002186596,w,40.3,Limited Time - 400ms,l,34.07330816772666,40.34808447098919,22.516578624815118,31.77713575261797,22.516578624815118,34.07330816772666,31.77713575261797,40.34808447098919,-10,-0.33,0.33,10,34,24,33.67,34.33,44,3.1622776601683795,3.1622776601683795,3.1622776601683795,3.1622776601683795
14,18,0.037116199964657426,o,28.2,Limited Time - 400ms,l,34.8975505766801,37.863530710061475,28.151806287563016,38.985869086993276,28.151806287563016,34.8975505766801,38.985869086993276,37.863530710061475,-10,-0.33,0.33,10,34,24,33.67,34.33,44,3.1622776601683795,3.1622776601683795,3.1622776601683795,3.1622776601683795
14,19,0.12488590006250888,w,45.4,Limited Time - 400ms,l,29.614514899363467,45.37950379048405,20.901162788915737,29.306957935836934,20.901162788915737,29.614514899363467,29.306957935836934,45.37950379048405,-10,-0.33,0.33,10,34,24,33.67,34.33,44,3.1622776601683795,3.1622776601683795,3.1622776601683795,3.1622776601683795
14,20,0.015593599993735552,w,45.9,Limited Time - 400ms,l,34.52441782068521,45.9276417212385,25.258023953163658,34.732125864607255,25.258023953163658,34.52441782068521,34.732125864607255,45.9276417212385,-10,-0.33,0.33,10,34,24,33.67,34.33,44,3.1622776601683795,3.1622776601683795,3.1622776601683795,3.1622776601683795
15,1,0.1068801999790594,q,38.5,Limited Time - 800ms,e,38.465472650830336,34.721306454455586,22.694416850804956,23.451655024657196,34.721306454455586,38.465472650830336,23.451655024657196,22.694416850804956,0,0,0,0,34,34,34,34,34,3.1622776601683795,6.324555320336759,8.366600265340756,10
15,2,,,0.0,Limited Time - 800ms,e,34.43652750389398,36.5928634306272,43.71203088777705,38.04296633509353,36.5928634306272,34.43652750389398,38.04296633509353,43.71203088777705,0,0,0,0,34,34,34,34,34,3.1622776601683795,6.324555320336759,8.366600265340756,10
15,3,0.385983599931933,p,41.2,Limited Time - 800ms,e,33.266808405512485,30.90247427486012,32.02784247604883,41.16564684869952,30.90247427486012,33.266808405512485,41.16564684869952,32.02784247604883,0,0,0,0,34,34,34,34,34,3.1622776601683795,6.324555320336759,8.366600265340756,10
15,4,0.08987909997813404,w,31.4,Limited Time - 800ms,e,39.55298388413907,31.353513893929314,46.927910768669875,36.02776298333097,31.353513893929314,39.55298388413907,36.02776298333097,46.927910768669875,0,0,0,0,34,34,34,34,34,3.1622776601683795,6.324555320336759,8.366600265340756,10
15,5,0.0350606000283733,p,29.5,Limited Time - 800ms,e,39.641082432595276,33.97214726140332,37.69830151536675,29.52625451792303,33.97214726140332,39.641082432595276,29.52625451792303,37.69830151536675,0,0,0,0,34,34,34,34,34,3.1622776601683795,6.324555320336759,8.366600265340756,10
15,6,0.08730210002977401,w,36.5,Limited Time - 800ms,e,43.51395400956919,36.48592353612545,27.294778508851394,38.12956236901264,36.48592353612545,43.51395400956919,38.12956236901264,27.294778508851394,0,0,0,0,34,34,34,34,34,3.1622776601683795,6.324555320336759,8.366600265340756,10
15,7,0.24836209998466074,q,35.4,Limited Time - 800ms,e,35.41776791758463,38.82164998310261,32.69798339443233,39.32559605031225,38.82164998310261,35.41776791758463,39.32559605031225,32.69798339443233,0,0,0,0,34,34,34,34,34,3.1622776601683795,6.324555320336759,8.366600265340756,10
15,8,0.15936799999326468,p,32.8,Limited Time - 800ms,e,31.55181850974102,33.1195477788951,27.374031384718283,32.75616389133093,33.1195477788951,31.55181850974102,32.75616389133093,27.374031384718283,0,0,0,0,34,34,34,34,34,3.1622776601683795,6.324555320336759,8.366600265340756,10
15,9,0.13547920004930347,o,49.3,Limited Time - 800ms,e,30.354473946032194,33.75781395807289,49.252553099322654,45.96593265771322,33.75781395807289,30.354473946032194,45.96593265771322,49.252553099322654,0,0,0,0,34,34,34,34,34,3.1622776601683795,6.324555320336759,8.366600265340756,10
15,10,0.07294320000801235,o,29.0,Limited Time - 800ms,e,30.04677719544539,37.458644762301326,28.990099062706918,39.28222888246068,37.458644762301326,30.04677719544539,39.28222888246068,28.990099062706918,0,0,0,0,34,34,34,34,34,3.1622776601683795,6.324555320336759,8.366600265340756,10
15,11,0.3812169999582693,o,31.6,Limited Time - 800ms,e,40.15471134259412,29.085656052177384,31.593278370958704,22.776333652648603,29.085656052177384,40.15471134259412,22.776333652648603,31.593278370958704,0,0,0,0,34,34,34,34,34,3.1622776601683795,6.324555320336759,8.366600265340756,10
15,12,0.002326600020751357,o,44.1,Limited Time - 800ms,e,31.96854576857165,33.3665862349811,44.1048507437323,37.919354217427426,33.3665862349811,31.96854576857165,37.919354217427426,44.1048507437323,0,0,0,0,34,34,34,34,34,3.1622776601683795,6.324555320336759,8.366600265340756,10
15,13,0.15695039997808635,o,54.6,Limited Time - 800ms,e,35.11890740480107,35.47713599443858,54.61307078195867,32.949153566860886,35.47713599443858,35.11890740480107,32.949153566860886,54.61307078195867,0,0,0,0,34,34,34,34,34,3.1622776601683795,6.324555320336759,8.366600265340756,10
15,14,0.13974699995014817,o,27.9,Limited Time - 800ms,e,38.2865144403009,33.23215953958968,27.866373281054972,38.92951046645059,33.23215953958968,38.2865144403009,38.92951046645059,27.866373281054972,0,0,0,0,34,34,34,34,34,3.1622776601683795,6.324555320336759,8.366600265340756,10
15,15,0.03308089997153729,o,42.7,Limited Time - 800ms,e,41.64908479201113,34.34047102454521,42.697216473583815,31.300411879622374,34.34047102454521,41.64908479201113,31.300411879622374,42.697216473583815,0,0,0,0,34,34,34,34,34,3.1622776601683795,6.324555320336759,8.366600265340756,10
15,16,0.03396069991867989,o,36.6,Limited Time - 800ms,e,42.69899265842819,35.605182366314494,36.56052930110332,56.305686848835194,35.605182366314494,42.69899265842819,56.305686848835194,36.56052930110332,0,0,0,0,34,34,34,34,34,3.1622776601683795,6.324555320336759,8.366600265340756,10
15,17,0.013895599986426532,o,25.7,Limited Time - 800ms,e,42.536000345600925,33.00939324486659,25.710529255678885,31.141343800200723,33.00939324486659,42.536000345600925,31.141343800200723,25.710529255678885,0,0,0,0,34,34,34,34,34,3.1622776601683795,6.324555320336759,8.366600265340756,10
15,18,0.01947389997076243,o,22.1,Limited Time - 800ms,e,21.075608705267065,32.140623098019994,22.14809473970712,47.350705854017725,32.140623098019994,21.075608705267065,47.350705854017725,22.14809473970712,0,0,0,0,34,34,34,34,34,3.1622776601683795,6.324555320336759,8.366600265340756,10
15,19,0.0013648999156430364,o,20.9,Limited Time - 800ms,e,30.788190268879948,35.827124319814054,20.860063687369816,22.839189624981337,35.827124319814054,30.788190268879948,22.839189624981337,20.860063687369816,0,0,0,0,34,34,34,34,34,3.1622776601683795,6.324555320336759,8.366600265340756,10
15,20,0.0038318000733852386,o,37.6,Limited Time - 800ms,e,30.400129175971315,29.521711354828458,37.63492504739856,34.89207961805987,29.521711354828458,30.400129175971315,34.89207961805987,37.63492504739856,0,0,0,0,34,34,34,34,34,3.1622776601683795,6.324555320336759,8.366600265340756,10
16,1,0.22875430004205555,q,49.5,Unlimited Time,i,49.544707395502726,51.878901850547344,17.492811558648583,24.67666150218714,24.67666150218714,17.492811558648583,49.544707395502726,51.878901850547344,-10,-10,10,10,34,24,24,44,44,3.1622776601683795,10,3.1622776601683795,10
16,2,0.22089750005397946,w,34.6,Unlimited Time,i,39.58088274546369,34.60500542253845,31.224108084155095,25.449157784233666,25.449157784233666,31.224108084155095,39.58088274546369,34.60500542253845,-10,-10,10,10,34,24,24,44,44,3.1622776601683795,10,3.1622776601683795,10
16,3,0.22042040002997965,p,26.4,Unlimited Time,i,43.87823291786313,45.201314710786,24.726336413718446,26.40482331764832,26.40482331764832,24.726336413718446,43.87823291786313,45.201314710786,-10,-10,10,10,34,24,24,44,44,3.1622776601683795,10,3.1622776601683795,10
16,4,0.20227809995412827,o,26.8,Unlimited Time,i,43.2031207956245,47.3708749304171,26.76651367164125,28.08172147977139,28.08172147977139,26.76651367164125,43.2031207956245,47.3708749304171,-10,-10,10,10,34,24,24,44,44,3.1622776601683795,10,3.1622776601683795,10
16,5,0.7839362999657169,q,45.5,Unlimited Time,i,45.53864185706925,43.72205399163304,29.258669109465973,30.029694907059593,30.029694907059593,29.258669109465973,45.53864185706925,43.72205399163304,-10,-10,10,10,34,24,24,44,44,3.1622776601683795,10,3.1622776601683795,10
16,6,0.5481301000108942,o,16.3,Unlimited Time,i,47.19119297636533,41.679492241189635,16.346853919345758,22.66460528995605,22.66460528995605,16.346853919345758,47.19119297636533,41.679492241189635,-10,-10,10,10,34,24,24,44,44,3.1622776601683795,10,3.1622776601683795,10
16,7,0.6105687000090256,q,42.4,Unlimited Time,i,42.3710551018277,30.24173371129815,18.042739531994624,28.33911984774468,28.33911984774468,18.042739531994624,42.3710551018277,30.24173371129815,-10,-10,10,10,34,24,24,44,44,3.1622776601683795,10,3.1622776601683795,10
16,8,0.5338113999459893,w,37.1,Unlimited Time,i,51.197799005412946,37.11641494920917,9.540014975358742,22.239282696822983,22.239282696822983,9.540014975358742,51.197799005412946,37.11641494920917,-10,-10,10,10,34,24,24,44,44,3.1622776601683795,10,3.1622776601683795,10
16,9,0.03678840002976358,o,26.1,Unlimited Time,i,43.35182206330588,45.67353576340057,26.1258865423442,25.87712771253471,25.87712771253471,26.1258865423442,43.35182206330588,45.67353576340057,-10,-10,10,10,34,24,24,44,44,3.1622776601683795,10,3.1622776601683795,10
16,10,0.5764770000241697,p,23.2,Unlimited Time,i,45.60394521212267,46.07601390133905,10.162783254271227,23.157713559247625,23.157713559247625,10.162783254271227,45.60394521212267,46.07601390133905,-10,-10,10,10,34,24,24,44,44,3.1622776601683795,10,3.1622776601683795,10
16,11,0.2197613000171259,q,45.9,Unlimited Time,i,45.880401637178956,42.68624407242686,18.52098889219367,22.517378719650537,22.517378719650537,18.52098889219367,45.880401637178956,42.68624407242686,-10,-10,10,10,34,24,24,44,44,3.1622776601683795,10,3.1622776601683795,10
16,12,0.060881200013682246,q,45.9,Unlimited Time,i,45.9259656014988,27.317750717547813,16.763938340167826,23.640939432706148,23.640939432706148,16.763938340167826,45.9259656014988,27.317750717547813,-10,-10,10,10,34,24,24,44,44,3.1622776601683795,10,3.1622776601683795,10
16,13,0.20210610004141927,q,45.5,Unlimited Time,i,45.52118117943221,56.4007468384627,26.84901744262085,25.283186499534587,25.283186499534587,26.84901744262085,45.52118117943221,56.4007468384627,-10,-10,10,10,34,24,24,44,44,3.1622776601683795,10,3.1622776601683795,10
16,14,0.1529733999632299,q,45.8,Unlimited Time,i,45.83860997649918,40.448722094848435,13.856629428834882,25.878840614705506,25.878840614705506,13.856629428834882,45.83860997649918,40.448722094848435,-10,-10,10,10,34,24,24,44,44,3.1622776601683795,10,3.1622776601683795,10
16,15,0.12446259998250753,q,44.5,Unlimited Time,i,44.515623206105346,41.55383483491001,10.992447292942927,25.775752011660593,25.775752011660593,10.992447292942927,44.515623206105346,41.55383483491001,-10,-10,10,10,34,24,24,44,44,3.1622776601683795,10,3.1622776601683795,10
16,16,0.23009740002453327,q,42.2,Unlimited Time,i,42.233026972947286,62.73604389258768,32.72970748325953,21.60417750366681,21.60417750366681,32.72970748325953,42.233026972947286,62.73604389258768,-10,-10,10,10,34,24,24,44,44,3.1622776601683795,10,3.1622776601683795,10
16,17,0.012198699987493455,q,39.7,Unlimited Time,i,39.662664335739755,51.83409976016146,37.636063201885754,21.108824010647382,21.108824010647382,37.636063201885754,39.662664335739755,51.83409976016146,-10,-10,10,10,34,24,24,44,44,3.1622776601683795,10,3.1622776601683795,10
16,18,0.004102500039152801,q,41.5,Unlimited Time,i,41.53511897307054,28.174318998456044,40.89063419850221,26.57623337072501,26.57623337072501,40.89063419850221,41.53511897307054,28.174318998456044,-10,-10,10,10,34,24,24,44,44,3.1622776601683795,10,3.1622776601683795,10
16,19,0.14713820000179112,w,44.2,Unlimited Time,i,46.92369910484246,44.17927658262949,41.56294339996903,22.750201912675426,22.750201912675426,41.56294339996903,46.92369910484246,44.17927658262949,-10,-10,10,10,34,24,24,44,44,3.1622776601683795,10,3.1622776601683795,10
16,20,0.08524369995575398,w,38.6,Unlimited Time,i,44.19709960976919,38.5735872040575,26.03899344856407,29.564613022363126,29.564613022363126,26.03899344856407,44.19709960976919,38.5735872040575,-10,-10,10,10,34,24,24,44,44,3.1622776601683795,10,3.1622776601683795,10
17,1,0.23432340007275343,q,34.7,Limited Time - 400ms,e,34.721306454455586,22.694416850804956,23.451655024657196,38.465472650830336,34.721306454455586,38.465472650830336,23.451655024657196,22.694416850804956,0,0,0,0,34,34,34,34,34,3.1622776601683795,6.324555320336759,8.366600265340756,10
17,2,0.01181729999370873,o,38.0,Limited Time - 400ms,e,36.5928634306272,43.71203088777705,38.04296633509353,34.43652750389398,36.5928634306272,34.43652750389398,38.04296633509353,43.71203088777705,0,0,0,0,34,34,34,34,34,3.1622776601683795,6.324555320336759,8.366600265340756,10
17,3,0.22227670007850975,w,32.0,Limited Time - 400ms,e,30.90247427486012,32.02784247604883,41.16564684869952,33.266808405512485,30.90247427486012,33.266808405512485,41.16564684869952,32.02784247604883,0,0,0,0,34,34,34,34,34,3.1622776601683795,6.324555320336759,8.366600265340756,10
17,4,0.12158810009714216,q,31.4,Limited Time - 400ms,e,31.353513893929314,46.927910768669875,36.02776298333097,39.55298388413907,31.353513893929314,39.55298388413907,36.02776298333097,46.927910768669875,0,0,0,0,34,34,34,34,34,3.1622776601683795,6.324555320336759,8.366600265340756,10
17,5,0.10466779989656061,p,39.6,Limited Time - 400ms,e,33.97214726140332,37.69830151536675,29.52625451792303,39.641082432595276,33.97214726140332,39.641082432595276,29.52625451792303,37.69830151536675,0,0,0,0,34,34,34,34,34,3.1622776601683795,6.324555320336759,8.366600265340756,10
17,6,0.14005709998309612,o,38.1,Limited Time - 400ms,e,36.48592353612545,27.294778508851394,38.12956236901264,43.51395400956919,36.48592353612545,43.51395400956919,38.12956236901264,27.294778508851394,0,0,0,0,34,34,34,34,34,3.1622776601683795,6.324555320336759,8.366600265340756,10
17,7,0.13253609999082983,w,32.7,Limited Time - 400ms,e,38.82164998310261,32.69798339443233,39.32559605031225,35.41776791758463,38.82164998310261,35.41776791758463,39.32559605031225,32.69798339443233,0,0,0,0,34,34,34,34,34,3.1622776601683795,6.324555320336759,8.366600265340756,10
17,8,0.08044339995831251,q,33.1,Limited Time - 400ms,e,33.1195477788951,27.374031384718283,32.75616389133093,31.55181850974102,33.1195477788951,31.55181850974102,32.75616389133093,27.374031384718283,0,0,0,0,34,34,34,34,34,3.1622776601683795,6.324555320336759,8.366600265340756,10
17,9,0.1377519000088796,p,30.4,Limited Time - 400ms,e,33.75781395807289,49.252553099322654,45.96593265771322,30.354473946032194,33.75781395807289,30.354473946032194,45.96593265771322,49.252553099322654,0,0,0,0,34,34,34,34,34,3.1622776601683795,6.324555320336759,8.366600265340756,10
17,10,0.12059209996368736,o,39.3,Limited Time - 400ms,e,37.458644762301326,28.990099062706918,39.28222888246068,30.04677719544539,37.458644762301326,30.04677719544539,39.28222888246068,28.990099062706918,0,0,0,0,34,34,34,34,34,3.1622776601683795,6.324555320336759,8.366600265340756,10
17,11,0.1905218999600038,p,40.2,Limited Time - 400ms,e,29.085656052177384,31.593278370958704,22.776333652648603,40.15471134259412,29.085656052177384,40.15471134259412,22.776333652648603,31.593278370958704,0,0,0,0,34,34,34,34,34,3.1622776601683795,6.324555320336759,8.366600265340756,10
17,12,0.16874560003634542,p,32.0,Limited Time - 400ms,e,33.3665862349811,44.1048507437323,37.919354217427426,31.96854576857165,33.3665862349811,31.96854576857165,37.919354217427426,44.1048507437323,0,0,0,0,34,34,34,34,34,3.1622776601683795,6.324555320336759,8.366600265340756,10
17,13,0.17294720001518726,p,35.1,Limited Time - 400ms,e,35.47713599443858,54.61307078195867,32.949153566860886,35.11890740480107,35.47713599443858,35.11890740480107,32.949153566860886,54.61307078195867,0,0,0,0,34,34,34,34,34,3.1622776601683795,6.324555320336759,8.366600265340756,10
17,14,0.2575364999938756,q,33.2,Limited Time - 400ms,e,33.23215953958968,27.866373281054972,38.92951046645059,38.2865144403009,33.23215953958968,38.2865144403009,38.92951046645059,27.866373281054972,0,0,0,0,34,34,34,34,34,3.1622776601683795,6.324555320336759,8.366600265340756,10
17,15,0.02464509999845177,q,34.3,Limited Time - 400ms,e,34.34047102454521,42.697216473583815,31.300411879622374,41.64908479201113,34.34047102454521,41.64908479201113,31.300411879622374,42.697216473583815,0,0,0,0,34,34,34,34,34,3.1622776601683795,6.324555320336759,8.366600265340756,10
17,16,0.21289550000801682,q,35.6,Limited Time - 400ms,e,35.605182366314494,36.56052930110332,56.305686848835194,42.69899265842819,35.605182366314494,42.69899265842819,56.305686848835194,36.56052930110332,0,0,0,0,34,34,34,34,34,3.1622776601683795,6.324555320336759,8.366600265340756,10
17,17,0.2219895999878645,q,33.0,Limited Time - 400ms,e,33.00939324486659,25.710529255678885,31.141343800200723,42.536000345600925,33.00939324486659,42.536000345600925,31.141343800200723,25.710529255678885,0,0,0,0,34,34,34,34,34,3.1622776601683795,6.324555320336759,8.366600265340756,10
17,18,0.06280640000477433,q,32.1,Limited Time - 400ms,e,32.140623098019994,22.14809473970712,47.350705854017725,21.075608705267065,32.140623098019994,21.075608705267065,47.350705854017725,22.14809473970712,0,0,0,0,34,34,34,34,34,3.1622776601683795,6.324555320336759,8.366600265340756,10
17,19,0.22363509994465858,w,20.9,Limited Time - 400ms,e,35.827124319814054,20.860063687369816,22.839189624981337,30.788190268879948,35.827124319814054,30.788190268879948,22.839189624981337,20.860063687369816,0,0,0,0,34,34,34,34,34,3.1622776601683795,6.324555320336759,8.366600265340756,10
17,20,0.06122919998597354,w,37.6,Limited Time - 400ms,e,29.521711354828458,37.63492504739856,34.89207961805987,30.400129175971315,29.521711354828458,30.400129175971315,34.89207961805987,37.63492504739856,0,0,0,0,34,34,34,34,34,3.1622776601683795,6.324555320336759,8.366600265340756,10
18,1,0.22335119999479502,q,34.7,Limited Time - 800ms,e,34.721306454455586,23.451655024657196,22.694416850804956,38.465472650830336,34.721306454455586,38.465472650830336,23.451655024657196,22.694416850804956,0,0,0,0,34,34,34,34,34,3.1622776601683795,6.324555320336759,8.366600265340756,10
18,2,0.3113417999120429,o,43.7,Limited Time - 800ms,e,36.5928634306272,38.04296633509353,43.71203088777705,34.43652750389398,36.5928634306272,34.43652750389398,38.04296633509353,43.71203088777705,0,0,0,0,34,34,34,34,34,3.1622776601683795,6.324555320336759,8.366600265340756,10
18,3,0.06814600003417581,q,30.9,Limited Time - 800ms,e,30.90247427486012,41.16564684869952,32.02784247604883,33.266808405512485,30.90247427486012,33.266808405512485,41.16564684869952,32.02784247604883,0,0,0,0,34,34,34,34,34,3.1622776601683795,6.324555320336759,8.366600265340756,10
18,4,0.19357580004725605,p,39.6,Limited Time - 800ms,e,31.353513893929314,36.02776298333097,46.927910768669875,39.55298388413907,31.353513893929314,39.55298388413907,36.02776298333097,46.927910768669875,0,0,0,0,34,34,34,34,34,3.1622776601683795,6.324555320336759,8.366600265340756,10
18,5,0.012242000084370375,o,37.7,Limited Time - 800ms,e,33.97214726140332,29.52625451792303,37.69830151536675,39.641082432595276,33.97214726140332,39.641082432595276,29.52625451792303,37.69830151536675,0,0,0,0,34,34,34,34,34,3.1622776601683795,6.324555320336759,8.366600265340756,10
18,6,0.08283820003271103,q,36.5,Limited Time - 800ms,e,36.48592353612545,38.12956236901264,27.294778508851394,43.51395400956919,36.48592353612545,43.51395400956919,38.12956236901264,27.294778508851394,0,0,0,0,34,34,34,34,34,3.1622776601683795,6.324555320336759,8.366600265340756,10
18,7,0.02345370000693947,p,35.4,Limited Time - 800ms,e,38.82164998310261,39.32559605031225,32.69798339443233,35.41776791758463,38.82164998310261,35.41776791758463,39.32559605031225,32.69798339443233,0,0,0,0,34,34,34,34,34,3.1622776601683795,6.324555320336759,8.366600265340756,10
18,8,0.05801659997086972,o,27.4,Limited Time - 800ms,e,33.1195477788951,32.75616389133093,27.374031384718283,31.55181850974102,33.1195477788951,31.55181850974102,32.75616389133093,27.374031384718283,0,0,0,0,34,34,34,34,34,3.1622776601683795,6.324555320336759,8.366600265340756,10
18,9,0.1476431000046432,q,33.8,Limited Time - 800ms,e,33.75781395807289,45.96593265771322,49.252553099322654,30.354473946032194,33.75781395807289,30.354473946032194,45.96593265771322,49.252553099322654,0,0,0,0,34,34,34,34,34,3.1622776601683795,6.324555320336759,8.366600265340756,10
18,10,0.132285000057891,p,30.0,Limited Time - 800ms,e,37.458644762301326,39.28222888246068,28.990099062706918,30.04677719544539,37.458644762301326,30.04677719544539,39.28222888246068,28.990099062706918,0,0,0,0,34,34,34,34,34,3.1622776601683795,6.324555320336759,8.366600265340756,10
18,11,0.10624489991459996,w,22.8,Limited Time - 800ms,e,29.085656052177384,22.776333652648603,31.593278370958704,40.15471134259412,29.085656052177384,40.15471134259412,22.776333652648603,31.593278370958704,0,0,0,0,34,34,34,34,34,3.1622776601683795,6.324555320336759,8.366600265340756,10
18,12,0.10108560009393841,p,32.0,Limited Time - 800ms,e,33.3665862349811,37.919354217427426,44.1048507437323,31.96854576857165,33.3665862349811,31.96854576857165,37.919354217427426,44.1048507437323,0,0,0,0,34,34,34,34,34,3.1622776601683795,6.324555320336759,8.366600265340756,10
18,13,0.013983999961055815,p,35.1,Limited Time - 800ms,e,35.47713599443858,32.949153566860886,54.61307078195867,35.11890740480107,35.47713599443858,35.11890740480107,32.949153566860886,54.61307078195867,0,0,0,0,34,34,34,34,34,3.1622776601683795,6.324555320336759,8.366600265340756,10
18,14,0.17040770000312477,p,38.3,Limited Time - 800ms,e,33.23215953958968,38.92951046645059,27.866373281054972,38.2865144403009,33.23215953958968,38.2865144403009,38.92951046645059,27.866373281054972,0,0,0,0,34,34,34,34,34,3.1622776601683795,6.324555320336759,8.366600265340756,10
18,15,0.025924800080247223,w,31.3,Limited Time - 800ms,e,34.34047102454521,31.300411879622374,42.697216473583815,41.64908479201113,34.34047102454521,41.64908479201113,31.300411879622374,42.697216473583815,0,0,0,0,34,34,34,34,34,3.1622776601683795,6.324555320336759,8.366600265340756,10
18,16,0.0004932999145239592,w,56.3,Limited Time - 800ms,e,35.605182366314494,56.305686848835194,36.56052930110332,42.69899265842819,35.605182366314494,42.69899265842819,56.305686848835194,36.56052930110332,0,0,0,0,34,34,34,34,34,3.1622776601683795,6.324555320336759,8.366600265340756,10
18,17,0.1751507999142632,o,25.7,Limited Time - 800ms,e,33.00939324486659,31.141343800200723,25.710529255678885,42.536000345600925,33.00939324486659,42.536000345600925,31.141343800200723,25.710529255678885,0,0,0,0,34,34,34,34,34,3.1622776601683795,6.324555320336759,8.366600265340756,10
18,18,0.12055220000911504,q,32.1,Limited Time - 800ms,e,32.140623098019994,47.350705854017725,22.14809473970712,21.075608705267065,32.140623098019994,21.075608705267065,47.350705854017725,22.14809473970712,0,0,0,0,34,34,34,34,34,3.1622776601683795,6.324555320336759,8.366600265340756,10
