Round Number,Trial Number,Reaction Time,Choice,Reward (Health Points),Time Condition,Payoff Condition,Q mapped,W mapped,O mapped,P mapped,One value,Two value,Three value,Four value,One mean,Two mean,Three mean,Four mean,Mean Shift,One shifted mean,Two shifted mean,Three shifted mean,Four shifted mean,One SD,Two SD,Three SD,Four SD
1,1,0.509406899996975,q,54.1,Unlimited Time,e,54.1343972231995,45.43846007768867,50.51252841441959,43.08831665162034,54.1343972231995,50.51252841441959,45.43846007768867,43.08831665162034,0,0,0,0,52,52,52,52,52,3.1622776601683795,6.324555320336759,8.366600265340756,10
1,2,0.9344886999970186,w,54.1,Unlimited Time,e,51.60934845415038,54.099478958027255,56.624323111417894,33.67629654593921,51.60934845415038,56.624323111417894,54.099478958027255,33.67629654593921,0,0,0,0,52,52,52,52,52,3.1622776601683795,6.324555320336759,8.366600265340756,10
1,3,1.309818699999596,w,50.9,Unlimited Time,e,54.70460703051597,50.91253826160287,49.47489714403077,62.77655466091059,54.70460703051597,49.47489714403077,50.91253826160287,62.77655466091059,0,0,0,0,52,52,52,52,52,3.1622776601683795,6.324555320336759,8.366600265340756,10
1,4,0.6440138999969349,q,46.2,Unlimited Time,e,46.177033309454416,52.550380553773145,49.73243400947822,55.00534941238638,46.177033309454416,49.73243400947822,52.550380553773145,55.00534941238638,0,0,0,0,52,52,52,52,52,3.1622776601683795,6.324555320336759,8.366600265340756,10
1,5,0.4914518000005046,o,50.5,Unlimited Time,e,49.06696875227899,55.67721455328497,50.45399367101552,50.9508467864264,49.06696875227899,50.45399367101552,55.67721455328497,50.9508467864264,0,0,0,0,52,52,52,52,52,3.1622776601683795,6.324555320336759,8.366600265340756,10
1,6,0.5708819999927073,p,45.7,Unlimited Time,e,49.35597417142012,46.656791282882466,53.39480495611765,45.73105509840383,49.35597417142012,53.39480495611765,46.656791282882466,45.73105509840383,0,0,0,0,52,52,52,52,52,3.1622776601683795,6.324555320336759,8.366600265340756,10
1,7,0.7094355999943218,o,47.8,Unlimited Time,e,47.62908628181191,55.090503023105946,47.7718410228644,65.83259581330975,47.62908628181191,47.7718410228644,55.090503023105946,65.83259581330975,0,0,0,0,52,52,52,52,52,3.1622776601683795,6.324555320336759,8.366600265340756,10
1,8,0.45950109999103006,w,56.3,Unlimited Time,e,49.38689807961125,56.33862036041965,56.45584398321652,64.91612950493214,49.38689807961125,56.45584398321652,56.33862036041965,64.91612950493214,0,0,0,0,52,52,52,52,52,3.1622776601683795,6.324555320336759,8.366600265340756,10
1,9,0.4893326999954297,q,54.2,Unlimited Time,e,54.19553785741969,46.169192308281126,58.14560538081329,29.937096055141907,54.19553785741969,58.14560538081329,46.169192308281126,29.937096055141907,0,0,0,0,52,52,52,52,52,3.1622776601683795,6.324555320336759,8.366600265340756,10
1,10,0.3533181999955559,w,62.9,Unlimited Time,e,46.91499981459723,62.88109721506649,37.83559568358946,64.55759964844412,46.91499981459723,37.83559568358946,62.88109721506649,64.55759964844412,0,0,0,0,52,52,52,52,52,3.1622776601683795,6.324555320336759,8.366600265340756,10
1,11,0.5719231999973999,w,36.0,Unlimited Time,e,49.33432405686331,35.950317949042486,45.82990639187359,32.83428189335724,49.33432405686331,45.82990639187359,35.950317949042486,32.83428189335724,0,0,0,0,52,52,52,52,52,3.1622776601683795,6.324555320336759,8.366600265340756,10
1,12,0.40667049999319715,q,47.0,Unlimited Time,e,46.984352223381244,61.28485536574577,58.64690748978791,40.23256290069945,46.984352223381244,58.64690748978791,61.28485536574577,40.23256290069945,0,0,0,0,52,52,52,52,52,3.1622776601683795,6.324555320336759,8.366600265340756,10
1,13,0.5157718999980716,p,65.3,Unlimited Time,e,52.17678542431918,54.23174034026164,62.7928277506732,65.3438320081622,52.17678542431918,62.7928277506732,54.23174034026164,65.3438320081622,0,0,0,0,52,52,52,52,52,3.1622776601683795,6.324555320336759,8.366600265340756,10
1,14,0.7915381999991951,o,52.6,Unlimited Time,e,52.51078935859185,50.61096089881966,52.645572172708185,48.00197430757411,52.51078935859185,52.645572172708185,50.61096089881966,48.00197430757411,0,0,0,0,52,52,52,52,52,3.1622776601683795,6.324555320336759,8.366600265340756,10
1,15,0.636291999995592,p,51.0,Unlimited Time,e,57.6642364471647,53.87349118349394,55.33657400628186,51.04470012494899,57.6642364471647,55.33657400628186,53.87349118349394,51.04470012494899,0,0,0,0,52,52,52,52,52,3.1622776601683795,6.324555320336759,8.366600265340756,10
1,16,0.44192040000052657,q,59.1,Unlimited Time,e,59.06286849548244,57.17402670452939,54.98451571016285,67.78424969986227,59.06286849548244,54.98451571016285,57.17402670452939,67.78424969986227,0,0,0,0,52,52,52,52,52,3.1622776601683795,6.324555320336759,8.366600265340756,10
1,17,0.6864341999971657,w,48.9,Unlimited Time,e,51.985528921005596,48.91186418107408,56.842920387016136,67.24611888417554,51.985528921005596,56.842920387016136,48.91186418107408,67.24611888417554,0,0,0,0,52,52,52,52,52,3.1622776601683795,6.324555320336759,8.366600265340756,10
1,18,0.6560652999978629,q,56.4,Unlimited Time,e,56.350705530799,56.4575382729048,57.838484344093985,41.99587406063348,56.350705530799,57.838484344093985,56.4575382729048,41.99587406063348,0,0,0,0,52,52,52,52,52,3.1622776601683795,6.324555320336759,8.366600265340756,10
1,19,0.778113399996073,q,51.4,Unlimited Time,e,51.375761526471216,47.53840000670666,48.076910090221006,45.8739592050787,51.375761526471216,48.076910090221006,47.53840000670666,45.8739592050787,0,0,0,0,52,52,52,52,52,3.1622776601683795,6.324555320336759,8.366600265340756,10
1,20,0.3854514999911771,o,48.5,Unlimited Time,e,55.5608976024095,39.90879468140083,48.45345124196392,53.38765970554975,55.5608976024095,48.45345124196392,39.90879468140083,53.38765970554975,0,0,0,0,52,52,52,52,52,3.1622776601683795,6.324555320336759,8.366600265340756,10
2,1,0.18401230000017677,q,54.1,Limited Time - 400ms,e,54.1343972231995,43.08831665162034,50.51252841441959,45.43846007768867,54.1343972231995,50.51252841441959,45.43846007768867,43.08831665162034,0,0,0,0,52,52,52,52,52,3.1622776601683795,6.324555320336759,8.366600265340756,10
2,2,0.2804188999944017,w,33.7,Limited Time - 400ms,e,51.60934845415038,33.67629654593921,56.624323111417894,54.099478958027255,51.60934845415038,56.624323111417894,54.099478958027255,33.67629654593921,0,0,0,0,52,52,52,52,52,3.1622776601683795,6.324555320336759,8.366600265340756,10
2,3,0.23591989999840735,o,49.5,Limited Time - 400ms,e,54.70460703051597,62.77655466091059,49.47489714403077,50.91253826160287,54.70460703051597,49.47489714403077,50.91253826160287,62.77655466091059,0,0,0,0,52,52,52,52,52,3.1622776601683795,6.324555320336759,8.366600265340756,10
2,4,0.34453499999654014,p,52.6,Limited Time - 400ms,e,46.177033309454416,55.00534941238638,49.73243400947822,52.550380553773145,46.177033309454416,49.73243400947822,52.550380553773145,55.00534941238638,0,0,0,0,52,52,52,52,52,3.1622776601683795,6.324555320336759,8.366600265340756,10
2,5,0.29114129999652505,p,55.7,Limited Time - 400ms,e,49.06696875227899,50.9508467864264,50.45399367101552,55.67721455328497,49.06696875227899,50.45399367101552,55.67721455328497,50.9508467864264,0,0,0,0,52,52,52,52,52,3.1622776601683795,6.324555320336759,8.366600265340756,10
2,6,0.3358901999963564,p,46.7,Limited Time - 400ms,e,49.35597417142012,45.73105509840383,53.39480495611765,46.656791282882466,49.35597417142012,53.39480495611765,46.656791282882466,45.73105509840383,0,0,0,0,52,52,52,52,52,3.1622776601683795,6.324555320336759,8.366600265340756,10
2,7,0.2515025999964564,q,47.6,Limited Time - 400ms,e,47.62908628181191,65.83259581330975,47.7718410228644,55.090503023105946,47.62908628181191,47.7718410228644,55.090503023105946,65.83259581330975,0,0,0,0,52,52,52,52,52,3.1622776601683795,6.324555320336759,8.366600265340756,10
2,8,0.3137579999965965,q,49.4,Limited Time - 400ms,e,49.38689807961125,64.91612950493214,56.45584398321652,56.33862036041965,49.38689807961125,56.45584398321652,56.33862036041965,64.91612950493214,0,0,0,0,52,52,52,52,52,3.1622776601683795,6.324555320336759,8.366600265340756,10
2,9,0.24575589999585645,q,54.2,Limited Time - 400ms,e,54.19553785741969,29.937096055141907,58.14560538081329,46.169192308281126,54.19553785741969,58.14560538081329,46.169192308281126,29.937096055141907,0,0,0,0,52,52,52,52,52,3.1622776601683795,6.324555320336759,8.366600265340756,10
2,10,0.25300039999274304,q,46.9,Limited Time - 400ms,e,46.91499981459723,64.55759964844412,37.83559568358946,62.88109721506649,46.91499981459723,37.83559568358946,62.88109721506649,64.55759964844412,0,0,0,0,52,52,52,52,52,3.1622776601683795,6.324555320336759,8.366600265340756,10
2,11,0.22409740000148304,q,49.3,Limited Time - 400ms,e,49.33432405686331,32.83428189335724,45.82990639187359,35.950317949042486,49.33432405686331,45.82990639187359,35.950317949042486,32.83428189335724,0,0,0,0,52,52,52,52,52,3.1622776601683795,6.324555320336759,8.366600265340756,10
2,12,0.3351644999929704,q,47.0,Limited Time - 400ms,e,46.984352223381244,40.23256290069945,58.64690748978791,61.28485536574577,46.984352223381244,58.64690748978791,61.28485536574577,40.23256290069945,0,0,0,0,52,52,52,52,52,3.1622776601683795,6.324555320336759,8.366600265340756,10
2,13,0.17328669999551494,q,52.2,Limited Time - 400ms,e,52.17678542431918,65.3438320081622,62.7928277506732,54.23174034026164,52.17678542431918,62.7928277506732,54.23174034026164,65.3438320081622,0,0,0,0,52,52,52,52,52,3.1622776601683795,6.324555320336759,8.366600265340756,10
2,14,0.07061479999538278,q,52.5,Limited Time - 400ms,e,52.51078935859185,48.00197430757411,52.645572172708185,50.61096089881966,52.51078935859185,52.645572172708185,50.61096089881966,48.00197430757411,0,0,0,0,52,52,52,52,52,3.1622776601683795,6.324555320336759,8.366600265340756,10
2,15,0.09288309999828925,q,57.7,Limited Time - 400ms,e,57.6642364471647,51.04470012494899,55.33657400628186,53.87349118349394,57.6642364471647,55.33657400628186,53.87349118349394,51.04470012494899,0,0,0,0,52,52,52,52,52,3.1622776601683795,6.324555320336759,8.366600265340756,10
2,16,0.1343362999978126,q,59.1,Limited Time - 400ms,e,59.06286849548244,67.78424969986227,54.98451571016285,57.17402670452939,59.06286849548244,54.98451571016285,57.17402670452939,67.78424969986227,0,0,0,0,52,52,52,52,52,3.1622776601683795,6.324555320336759,8.366600265340756,10
2,17,0.22937119999551214,q,52.0,Limited Time - 400ms,e,51.985528921005596,67.24611888417554,56.842920387016136,48.91186418107408,51.985528921005596,56.842920387016136,48.91186418107408,67.24611888417554,0,0,0,0,52,52,52,52,52,3.1622776601683795,6.324555320336759,8.366600265340756,10
2,18,0.2611463999928674,q,56.4,Limited Time - 400ms,e,56.350705530799,41.99587406063348,57.838484344093985,56.4575382729048,56.350705530799,57.838484344093985,56.4575382729048,41.99587406063348,0,0,0,0,52,52,52,52,52,3.1622776601683795,6.324555320336759,8.366600265340756,10
2,19,0.17867529999057297,q,51.4,Limited Time - 400ms,e,51.375761526471216,45.8739592050787,48.076910090221006,47.53840000670666,51.375761526471216,48.076910090221006,47.53840000670666,45.8739592050787,0,0,0,0,52,52,52,52,52,3.1622776601683795,6.324555320336759,8.366600265340756,10
2,20,0.251750199990056,q,55.6,Limited Time - 400ms,e,55.5608976024095,53.38765970554975,48.45345124196392,39.90879468140083,55.5608976024095,48.45345124196392,39.90879468140083,53.38765970554975,0,0,0,0,52,52,52,52,52,3.1622776601683795,6.324555320336759,8.366600265340756,10
3,1,0.2616775999922538,q,81.9,Limited Time - 800ms,i,81.93904844296904,33.53026180695767,67.428095506601,46.24000870364833,46.24000870364833,33.53026180695767,67.428095506601,81.93904844296904,-10,-10,10,10,52,42,42,62,62,3.1622776601683795,10,3.1622776601683795,10
3,2,0.5269299999927171,w,59.3,Limited Time - 800ms,i,52.9971598938352,59.3263724291417,61.78731428114943,39.3772930079502,39.3772930079502,59.3263724291417,61.78731428114943,52.9971598938352,-10,-10,10,10,52,42,42,62,62,3.1622776601683795,10,3.1622776601683795,10
3,3,0.199750399995537,q,53.2,Limited Time - 800ms,i,53.21129490108673,24.21756282410698,62.00060007269795,43.63906004599892,43.63906004599892,24.21756282410698,62.00060007269795,53.21129490108673,-10,-10,10,10,52,42,42,62,62,3.1622776601683795,10,3.1622776601683795,10
3,4,0.37611569999717176,w,20.7,Limited Time - 800ms,i,61.8754792687449,20.690462812401098,60.835349165737135,42.23179487651187,42.23179487651187,20.690462812401098,60.835349165737135,61.8754792687449,-10,-10,10,10,52,42,42,62,62,3.1622776601683795,10,3.1622776601683795,10
3,5,0.1495271999956458,q,59.1,Limited Time - 800ms,i,59.05619682520897,43.23359065836114,59.81325574947053,43.43217963248254,43.43217963248254,43.23359065836114,59.81325574947053,59.05619682520897,-10,-10,10,10,52,42,42,62,62,3.1622776601683795,10,3.1622776601683795,10
3,6,0.28092069999547675,q,57.4,Limited Time - 800ms,i,57.437686397402715,42.18736304731201,60.61817541228709,45.644450133304055,45.644450133304055,42.18736304731201,60.61817541228709,57.437686397402715,-10,-10,10,10,52,42,42,62,62,3.1622776601683795,10,3.1622776601683795,10
3,7,0.20482889999402687,q,55.5,Limited Time - 800ms,i,55.469710167872904,34.73726060798685,64.42937556290234,39.162273468116425,39.162273468116425,34.73726060798685,64.42937556290234,55.469710167872904,-10,-10,10,10,52,42,42,62,62,3.1622776601683795,10,3.1622776601683795,10
3,8,0.18020689999684691,q,58.4,Limited Time - 800ms,i,58.44491418998577,39.72958034603236,60.30318807241632,41.17028959941318,41.17028959941318,39.72958034603236,60.30318807241632,58.44491418998577,-10,-10,10,10,52,42,42,62,62,3.1622776601683795,10,3.1622776601683795,10
3,9,0.1621400999938487,q,66.7,Limited Time - 800ms,i,66.73464520324646,36.84045429630448,65.68062454095156,43.3033902810813,43.3033902810813,36.84045429630448,65.68062454095156,66.73464520324646,-10,-10,10,10,52,42,42,62,62,3.1622776601683795,10,3.1622776601683795,10
3,10,0.22035779998986982,q,64.9,Limited Time - 800ms,i,64.89629260275136,57.28053815804052,62.18583198137072,44.89604087649755,44.89604087649755,57.28053815804052,62.18583198137072,64.89629260275136,-10,-10,10,10,52,42,42,62,62,3.1622776601683795,10,3.1622776601683795,10
3,11,0.08490829999936977,o,59.7,Limited Time - 800ms,i,63.447272578789125,38.07010123609625,59.72958827999807,36.87437747804242,36.87437747804242,38.07010123609625,59.72958827999807,63.447272578789125,-10,-10,10,10,52,42,42,62,62,3.1622776601683795,10,3.1622776601683795,10
3,12,0.14794540000002598,q,55.1,Limited Time - 800ms,i,55.08022259850461,31.12878784539803,65.49767633109137,43.43763216858749,43.43763216858749,31.12878784539803,65.49767633109137,55.08022259850461,-10,-10,10,10,52,42,42,62,62,3.1622776601683795,10,3.1622776601683795,10
3,13,0.28876089999539545,q,62.4,Limited Time - 800ms,i,62.44739965645775,11.287309913064629,57.046632129525726,43.4060772761843,43.4060772761843,11.287309913064629,57.046632129525726,62.44739965645775,-10,-10,10,10,52,42,42,62,62,3.1622776601683795,10,3.1622776601683795,10
3,14,0.22164399999019224,q,51.1,Limited Time - 800ms,i,51.102274824616984,45.25371652831221,67.00707186037111,41.952475557137944,41.952475557137944,45.25371652831221,67.00707186037111,51.102274824616984,-10,-10,10,10,52,42,42,62,62,3.1622776601683795,10,3.1622776601683795,10
3,15,0.2533862999989651,p,38.5,Limited Time - 800ms,i,48.855231231772606,31.09597068061745,59.33674851357878,38.535063852369845,38.535063852369845,31.09597068061745,59.33674851357878,48.855231231772606,-10,-10,10,10,52,42,42,62,62,3.1622776601683795,10,3.1622776601683795,10
3,16,0.04215419999673031,q,49.6,Limited Time - 800ms,i,49.63282457156982,32.70740803323231,62.928766527591314,48.12343365474859,48.12343365474859,32.70740803323231,62.928766527591314,49.63282457156982,-10,-10,10,10,52,42,42,62,62,3.1622776601683795,10,3.1622776601683795,10
3,17,0.1811630999945919,q,68.4,Limited Time - 800ms,i,68.37308420797882,43.1545698325296,60.367816717989456,41.138549457704634,41.138549457704634,43.1545698325296,60.367816717989456,68.37308420797882,-10,-10,10,10,52,42,42,62,62,3.1622776601683795,10,3.1622776601683795,10
3,18,0.17809069999930216,q,60.7,Limited Time - 800ms,i,60.65785414733253,50.511271651914385,60.931253230937834,38.878557997343854,38.878557997343854,50.511271651914385,60.931253230937834,60.65785414733253,-10,-10,10,10,52,42,42,62,62,3.1622776601683795,10,3.1622776601683795,10
3,19,0.16843439998774556,q,69.9,Limited Time - 800ms,i,69.9047774976002,39.61561146156885,59.05161672890195,36.584282845490385,36.584282845490385,39.61561146156885,59.05161672890195,69.9047774976002,-10,-10,10,10,52,42,42,62,62,3.1622776601683795,10,3.1622776601683795,10
3,20,0.20729029999347404,q,65.1,Limited Time - 800ms,i,65.07456574624376,47.23962491586674,57.39807162725711,44.321388267233175,44.321388267233175,47.23962491586674,57.39807162725711,65.07456574624376,-10,-10,10,10,52,42,42,62,62,3.1622776601683795,10,3.1622776601683795,10
4,1,2.785696899991308,p,53.0,Unlimited Time,l,45.15983945474699,53.41854476727985,59.397685817564614,53.01296862522911,45.15983945474699,53.01296862522911,53.41854476727985,59.397685817564614,-10,-0.33,0.33,10,52,42,51.67,52.33,62,3.1622776601683795,3.1622776601683795,3.1622776601683795,3.1622776601683795
4,2,1.7101241999989725,w,51.7,Unlimited Time,l,38.64077255877407,51.72528479807903,64.54120144064693,50.64892242130594,38.64077255877407,50.64892242130594,51.72528479807903,64.54120144064693,-10,-0.33,0.33,10,52,42,51.67,52.33,62,3.1622776601683795,3.1622776601683795,3.1622776601683795,3.1622776601683795
4,3,3.2513857999947504,p,48.2,Unlimited Time,l,43.29258197169048,54.24588189848324,63.50646997505991,48.186186466630346,43.29258197169048,48.186186466630346,54.24588189848324,63.50646997505991,-10,-0.33,0.33,10,52,42,51.67,52.33,62,3.1622776601683795,3.1622776601683795,3.1622776601683795,3.1622776601683795
4,4,1.3320171999948798,o,62.1,Unlimited Time,l,46.45247173783505,55.0792041395236,62.06524295106545,52.89689786181482,46.45247173783505,52.89689786181482,55.0792041395236,62.06524295106545,-10,-0.33,0.33,10,52,42,51.67,52.33,62,3.1622776601683795,3.1622776601683795,3.1622776601683795,3.1622776601683795
4,5,0.7317242999997688,o,60.8,Unlimited Time,l,38.95755384810533,48.99056797530746,60.75018942709718,50.02219855462224,38.95755384810533,50.02219855462224,48.99056797530746,60.75018942709718,-10,-0.33,0.33,10,52,42,51.67,52.33,62,3.1622776601683795,3.1622776601683795,3.1622776601683795,3.1622776601683795
4,6,0.6048319999972591,o,58.7,Unlimited Time,l,44.28633770984384,53.18301459114065,58.67727005124679,48.789745612238285,44.28633770984384,48.789745612238285,53.18301459114065,58.67727005124679,-10,-0.33,0.33,10,52,42,51.67,52.33,62,3.1622776601683795,3.1622776601683795,3.1622776601683795,3.1622776601683795
4,7,0.6770012999913888,o,62.4,Unlimited Time,l,42.22167862962772,51.74813128379828,62.38638757765874,50.43520149089232,42.22167862962772,50.43520149089232,51.74813128379828,62.38638757765874,-10,-0.33,0.33,10,52,42,51.67,52.33,62,3.1622776601683795,3.1622776601683795,3.1622776601683795,3.1622776601683795
4,8,0.9566028999906848,o,68.2,Unlimited Time,l,37.877280305262396,47.67103853296675,68.15430360620772,51.29404370596447,37.877280305262396,51.29404370596447,47.67103853296675,68.15430360620772,-10,-0.33,0.33,10,52,42,51.67,52.33,62,3.1622776601683795,3.1622776601683795,3.1622776601683795,3.1622776601683795
4,9,0.5784010999996099,w,51.6,Unlimited Time,l,42.01124188925233,51.620810551496746,57.34462829478828,53.69983342960937,42.01124188925233,53.69983342960937,51.620810551496746,57.34462829478828,-10,-0.33,0.33,10,52,42,51.67,52.33,62,3.1622776601683795,3.1622776601683795,3.1622776601683795,3.1622776601683795
4,10,0.76993969999603,q,40.9,Unlimited Time,l,40.899496108787496,54.55307701299701,61.703384560553324,46.48794897020764,40.899496108787496,46.48794897020764,54.55307701299701,61.703384560553324,-10,-0.33,0.33,10,52,42,51.67,52.33,62,3.1622776601683795,3.1622776601683795,3.1622776601683795,3.1622776601683795
4,11,1.3845757999952184,p,51.3,Unlimited Time,l,43.816964132674734,51.66183577792853,61.07654070076246,51.2938306974111,43.816964132674734,51.2938306974111,51.66183577792853,61.07654070076246,-10,-0.33,0.33,10,52,42,51.67,52.33,62,3.1622776601683795,3.1622776601683795,3.1622776601683795,3.1622776601683795
4,12,2.2885891999976593,o,63.1,Unlimited Time,l,42.35566131570642,52.265138400903226,63.117309083230126,56.295226666355646,42.35566131570642,56.295226666355646,52.265138400903226,63.117309083230126,-10,-0.33,0.33,10,52,42,51.67,52.33,62,3.1622776601683795,3.1622776601683795,3.1622776601683795,3.1622776601683795
4,13,24.704129899997497,o,62.1,Unlimited Time,l,40.36782142214849,53.514365017580275,62.07585094664576,53.40224884002603,40.36782142214849,53.40224884002603,53.514365017580275,62.07585094664576,-10,-0.33,0.33,10,52,42,51.67,52.33,62,3.1622776601683795,3.1622776601683795,3.1622776601683795,3.1622776601683795
4,14,1.5090275999900769,o,59.1,Unlimited Time,l,36.30728964182959,55.369974824814115,59.14709043647007,54.028350499439654,36.30728964182959,54.028350499439654,55.369974824814115,59.14709043647007,-10,-0.33,0.33,10,52,42,51.67,52.33,62,3.1622776601683795,3.1622776601683795,3.1622776601683795,3.1622776601683795
4,15,0.8185824999964098,w,54.5,Unlimited Time,l,38.49361721932735,54.50265786218463,64.89235864926998,49.98047922731524,38.49361721932735,49.98047922731524,54.50265786218463,64.89235864926998,-10,-0.33,0.33,10,52,42,51.67,52.33,62,3.1622776601683795,3.1622776601683795,3.1622776601683795,3.1622776601683795
4,16,1.0748761999930139,q,32.2,Unlimited Time,l,32.240392066374575,53.40470058370584,53.75597549733657,50.332045219911485,32.240392066374575,50.332045219911485,53.40470058370584,53.75597549733657,-10,-0.33,0.33,10,52,42,51.67,52.33,62,3.1622776601683795,3.1622776601683795,3.1622776601683795,3.1622776601683795
4,17,0.76358629999595,p,48.1,Unlimited Time,l,39.39465551427587,52.099974492261396,66.26880699777406,48.080479055936514,39.39465551427587,48.080479055936514,52.099974492261396,66.26880699777406,-10,-0.33,0.33,10,52,42,51.67,52.33,62,3.1622776601683795,3.1622776601683795,3.1622776601683795,3.1622776601683795
4,18,0.9697924999927636,p,46.7,Unlimited Time,l,43.5688697945178,54.02130801224784,61.67379879596722,46.746175770042626,43.5688697945178,46.746175770042626,54.02130801224784,61.67379879596722,-10,-0.33,0.33,10,52,42,51.67,52.33,62,3.1622776601683795,3.1622776601683795,3.1622776601683795,3.1622776601683795
4,19,0.5893393999940599,o,62.5,Unlimited Time,l,46.00216024707157,49.09023887855755,62.47334820039176,55.27496490122297,46.00216024707157,55.27496490122297,49.09023887855755,62.47334820039176,-10,-0.33,0.33,10,52,42,51.67,52.33,62,3.1622776601683795,3.1622776601683795,3.1622776601683795,3.1622776601683795
4,20,1.0329881999932695,o,64.6,Unlimited Time,l,44.10551119450935,51.20621956477666,64.63148869861807,52.53411040756318,44.10551119450935,52.53411040756318,51.20621956477666,64.63148869861807,-10,-0.33,0.33,10,52,42,51.67,52.33,62,3.1622776601683795,3.1622776601683795,3.1622776601683795,3.1622776601683795
5,1,0.22510429999238113,q,69.3,Limited Time - 400ms,h,69.31079965091112,43.04129532023708,44.30784501345437,48.39003971387718,43.04129532023708,48.39003971387718,44.30784501345437,69.31079965091112,-10,-0.33,0.33,10,52,42,51.67,52.33,62,10,10,10,10
5,2,0.2054286999918986,w,29.6,Limited Time - 400ms,h,62.7796147016989,29.596733407757178,58.8671870703494,67.30914701912188,29.596733407757178,67.30914701912188,58.8671870703494,62.7796147016989,-10,-0.33,0.33,10,52,42,51.67,52.33,62,10,10,10,10
5,3,0.12046589999226853,q,56.7,Limited Time - 400ms,h,56.672430108687806,50.467801436092515,52.53640150530613,50.1629223756733,50.467801436092515,50.1629223756733,52.53640150530613,56.672430108687806,-10,-0.33,0.33,10,52,42,51.67,52.33,62,10,10,10,10
5,4,0.12996149999526097,q,52.6,Limited Time - 400ms,h,52.5580271677072,52.038651566092405,42.99134952366035,50.538709022055265,52.038651566092405,50.538709022055265,42.99134952366035,52.5580271677072,-10,-0.33,0.33,10,52,42,51.67,52.33,62,10,10,10,10
5,5,0.10340069999801926,q,65.4,Limited Time - 400ms,h,65.40312406714803,47.695385868818676,50.001562964560705,49.29595250707821,47.695385868818676,49.29595250707821,50.001562964560705,65.40312406714803,-10,-0.33,0.33,10,52,42,51.67,52.33,62,10,10,10,10
5,6,0.11460409999563126,q,56.9,Limited Time - 400ms,h,56.9463654245112,40.161492893940846,47.07825711625872,44.32212041376222,40.161492893940846,44.32212041376222,47.07825711625872,56.9463654245112,-10,-0.33,0.33,10,52,42,51.67,52.33,62,10,10,10,10
5,7,0.07236159999592928,q,72.4,Limited Time - 400ms,h,72.35639604272716,41.62956030543107,59.31583945249327,48.84936988994603,41.62956030543107,48.84936988994603,59.31583945249327,72.35639604272716,-10,-0.33,0.33,10,52,42,51.67,52.33,62,10,10,10,10
5,8,0.1295408999940264,q,43.8,Limited Time - 400ms,h,43.76552367338636,41.64108259877111,78.142486330157,54.14781763086509,41.64108259877111,54.14781763086509,78.142486330157,43.76552367338636,-10,-0.33,0.33,10,52,42,51.67,52.33,62,10,10,10,10
5,9,0.05238959999405779,q,39.9,Limited Time - 400ms,h,39.91141035374017,48.2674750891531,53.382156110495714,47.94656937768172,48.2674750891531,47.94656937768172,53.382156110495714,39.91141035374017,-10,-0.33,0.33,10,52,42,51.67,52.33,62,10,10,10,10
5,10,0.03751619999820832,q,68.3,Limited Time - 400ms,h,68.33772584757693,41.68976999722421,47.56980346844587,74.28273059128861,41.68976999722421,74.28273059128861,47.56980346844587,68.33772584757693,-10,-0.33,0.33,10,52,42,51.67,52.33,62,10,10,10,10
5,11,,,0.0,Limited Time - 400ms,h,80.55234116522087,54.892024149580195,40.703205396206016,47.21074857692442,54.892024149580195,47.21074857692442,40.703205396206016,80.55234116522087,-10,-0.33,0.33,10,52,42,51.67,52.33,62,10,10,10,10
5,12,0.11281849999795668,o,46.2,Limited Time - 400ms,h,77.67342796750887,41.84105400338236,46.214544557537565,51.4571984046295,41.84105400338236,51.4571984046295,46.214544557537565,77.67342796750887,-10,-0.33,0.33,10,52,42,51.67,52.33,62,10,10,10,10
5,13,0.193904299994756,o,62.1,Limited Time - 400ms,h,53.32796722243322,44.16539366869328,62.12080255574051,53.01594392146162,44.16539366869328,53.01594392146162,62.12080255574051,53.32796722243322,-10,-0.33,0.33,10,52,42,51.67,52.33,62,10,10,10,10
5,14,,,0.0,Limited Time - 400ms,h,71.20887159306706,60.83658915611834,48.06534973659409,47.948246614240055,60.83658915611834,47.948246614240055,48.06534973659409,71.20887159306706,-10,-0.33,0.33,10,52,42,51.67,52.33,62,10,10,10,10
5,15,0.1436868000018876,q,68.5,Limited Time - 400ms,h,68.48745893804904,54.98037361507123,43.4268251614808,55.784789084902194,54.98037361507123,55.784789084902194,43.4268251614808,68.48745893804904,-10,-0.33,0.33,10,52,42,51.67,52.33,62,10,10,10,10
5,16,0.0452958999958355,q,61.3,Limited Time - 400ms,h,61.312682240621726,30.039408024778776,56.46141355798846,54.90687449298239,30.039408024778776,54.90687449298239,56.46141355798846,61.312682240621726,-10,-0.33,0.33,10,52,42,51.67,52.33,62,10,10,10,10
5,17,0.06283469999470981,q,59.3,Limited Time - 400ms,h,59.26289002159923,42.21040153640721,33.78184904421043,52.310914967136235,42.21040153640721,52.310914967136235,33.78184904421043,59.26289002159923,-10,-0.33,0.33,10,52,42,51.67,52.33,62,10,10,10,10
5,18,0.0684255000014673,q,65.3,Limited Time - 400ms,h,65.27513823132165,38.524399429797384,57.43045501423769,69.03592168041496,38.524399429797384,69.03592168041496,57.43045501423769,65.27513823132165,-10,-0.33,0.33,10,52,42,51.67,52.33,62,10,10,10,10
5,19,0.12001339999551419,q,59.1,Limited Time - 400ms,h,59.114714221840615,51.01798338583039,48.39100439339076,66.14478028128913,51.01798338583039,66.14478028128913,48.39100439339076,59.114714221840615,-10,-0.33,0.33,10,52,42,51.67,52.33,62,10,10,10,10
5,20,0.0804576000009547,q,64.4,Limited Time - 400ms,h,64.39697229573389,42.935321637272104,51.09221349521894,38.90905268370349,42.935321637272104,38.90905268370349,51.09221349521894,64.39697229573389,-10,-0.33,0.33,10,52,42,51.67,52.33,62,10,10,10,10
6,1,0.25569089999771677,q,45.2,Limited Time - 800ms,l,45.15983945474699,53.41854476727985,59.397685817564614,53.01296862522911,45.15983945474699,53.01296862522911,53.41854476727985,59.397685817564614,-10,-0.33,0.33,10,52,42,51.67,52.33,62,3.1622776601683795,3.1622776601683795,3.1622776601683795,3.1622776601683795
6,2,0.3585435999921174,w,51.7,Limited Time - 800ms,l,38.64077255877407,51.72528479807903,64.54120144064693,50.64892242130594,38.64077255877407,50.64892242130594,51.72528479807903,64.54120144064693,-10,-0.33,0.33,10,52,42,51.67,52.33,62,3.1622776601683795,3.1622776601683795,3.1622776601683795,3.1622776601683795
6,3,0.23421479999524308,o,63.5,Limited Time - 800ms,l,43.29258197169048,54.24588189848324,63.50646997505991,48.186186466630346,43.29258197169048,48.186186466630346,54.24588189848324,63.50646997505991,-10,-0.33,0.33,10,52,42,51.67,52.33,62,3.1622776601683795,3.1622776601683795,3.1622776601683795,3.1622776601683795
6,4,0.3436328999887337,p,52.9,Limited Time - 800ms,l,46.45247173783505,55.0792041395236,62.06524295106545,52.89689786181482,46.45247173783505,52.89689786181482,55.0792041395236,62.06524295106545,-10,-0.33,0.33,10,52,42,51.67,52.33,62,3.1622776601683795,3.1622776601683795,3.1622776601683795,3.1622776601683795
6,5,0.33776469999429537,o,60.8,Limited Time - 800ms,l,38.95755384810533,48.99056797530746,60.75018942709718,50.02219855462224,38.95755384810533,50.02219855462224,48.99056797530746,60.75018942709718,-10,-0.33,0.33,10,52,42,51.67,52.33,62,3.1622776601683795,3.1622776601683795,3.1622776601683795,3.1622776601683795
6,6,0.29106509999837726,o,58.7,Limited Time - 800ms,l,44.28633770984384,53.18301459114065,58.67727005124679,48.789745612238285,44.28633770984384,48.789745612238285,53.18301459114065,58.67727005124679,-10,-0.33,0.33,10,52,42,51.67,52.33,62,3.1622776601683795,3.1622776601683795,3.1622776601683795,3.1622776601683795
6,7,0.2856626999928267,q,42.2,Limited Time - 800ms,l,42.22167862962772,51.74813128379828,62.38638757765874,50.43520149089232,42.22167862962772,50.43520149089232,51.74813128379828,62.38638757765874,-10,-0.33,0.33,10,52,42,51.67,52.33,62,3.1622776601683795,3.1622776601683795,3.1622776601683795,3.1622776601683795
6,8,0.22960909999528667,w,47.7,Limited Time - 800ms,l,37.877280305262396,47.67103853296675,68.15430360620772,51.29404370596447,37.877280305262396,51.29404370596447,47.67103853296675,68.15430360620772,-10,-0.33,0.33,10,52,42,51.67,52.33,62,3.1622776601683795,3.1622776601683795,3.1622776601683795,3.1622776601683795
6,9,0.2422887999928207,o,57.3,Limited Time - 800ms,l,42.01124188925233,51.620810551496746,57.34462829478828,53.69983342960937,42.01124188925233,53.69983342960937,51.620810551496746,57.34462829478828,-10,-0.33,0.33,10,52,42,51.67,52.33,62,3.1622776601683795,3.1622776601683795,3.1622776601683795,3.1622776601683795
6,10,0.1634046999970451,o,61.7,Limited Time - 800ms,l,40.899496108787496,54.55307701299701,61.703384560553324,46.48794897020764,40.899496108787496,46.48794897020764,54.55307701299701,61.703384560553324,-10,-0.33,0.33,10,52,42,51.67,52.33,62,3.1622776601683795,3.1622776601683795,3.1622776601683795,3.1622776601683795
6,11,0.18413459999283077,o,61.1,Limited Time - 800ms,l,43.816964132674734,51.66183577792853,61.07654070076246,51.2938306974111,43.816964132674734,51.2938306974111,51.66183577792853,61.07654070076246,-10,-0.33,0.33,10,52,42,51.67,52.33,62,3.1622776601683795,3.1622776601683795,3.1622776601683795,3.1622776601683795
6,12,0.13933899999392452,o,63.1,Limited Time - 800ms,l,42.35566131570642,52.265138400903226,63.117309083230126,56.295226666355646,42.35566131570642,56.295226666355646,52.265138400903226,63.117309083230126,-10,-0.33,0.33,10,52,42,51.67,52.33,62,3.1622776601683795,3.1622776601683795,3.1622776601683795,3.1622776601683795
6,13,0.1949698999960674,o,62.1,Limited Time - 800ms,l,40.36782142214849,53.514365017580275,62.07585094664576,53.40224884002603,40.36782142214849,53.40224884002603,53.514365017580275,62.07585094664576,-10,-0.33,0.33,10,52,42,51.67,52.33,62,3.1622776601683795,3.1622776601683795,3.1622776601683795,3.1622776601683795
6,14,0.11109629999555182,o,59.1,Limited Time - 800ms,l,36.30728964182959,55.369974824814115,59.14709043647007,54.028350499439654,36.30728964182959,54.028350499439654,55.369974824814115,59.14709043647007,-10,-0.33,0.33,10,52,42,51.67,52.33,62,3.1622776601683795,3.1622776601683795,3.1622776601683795,3.1622776601683795
6,15,0.1459538999988581,o,64.9,Limited Time - 800ms,l,38.49361721932735,54.50265786218463,64.89235864926998,49.98047922731524,38.49361721932735,49.98047922731524,54.50265786218463,64.89235864926998,-10,-0.33,0.33,10,52,42,51.67,52.33,62,3.1622776601683795,3.1622776601683795,3.1622776601683795,3.1622776601683795
6,16,0.45848939999268623,o,53.8,Limited Time - 800ms,l,32.240392066374575,53.40470058370584,53.75597549733657,50.332045219911485,32.240392066374575,50.332045219911485,53.40470058370584,53.75597549733657,-10,-0.33,0.33,10,52,42,51.67,52.33,62,3.1622776601683795,3.1622776601683795,3.1622776601683795,3.1622776601683795
6,17,0.18608759999187896,o,66.3,Limited Time - 800ms,l,39.39465551427587,52.099974492261396,66.26880699777406,48.080479055936514,39.39465551427587,48.080479055936514,52.099974492261396,66.26880699777406,-10,-0.33,0.33,10,52,42,51.67,52.33,62,3.1622776601683795,3.1622776601683795,3.1622776601683795,3.1622776601683795
6,18,0.031340599998657126,o,61.7,Limited Time - 800ms,l,43.5688697945178,54.02130801224784,61.67379879596722,46.746175770042626,43.5688697945178,46.746175770042626,54.02130801224784,61.67379879596722,-10,-0.33,0.33,10,52,42,51.67,52.33,62,3.1622776601683795,3.1622776601683795,3.1622776601683795,3.1622776601683795
6,19,0.021811299993714783,o,62.5,Limited Time - 800ms,l,46.00216024707157,49.09023887855755,62.47334820039176,55.27496490122297,46.00216024707157,55.27496490122297,49.09023887855755,62.47334820039176,-10,-0.33,0.33,10,52,42,51.67,52.33,62,3.1622776601683795,3.1622776601683795,3.1622776601683795,3.1622776601683795
6,20,0.4982114999947953,o,64.6,Limited Time - 800ms,l,44.10551119450935,51.20621956477666,64.63148869861807,52.53411040756318,44.10551119450935,52.53411040756318,51.20621956477666,64.63148869861807,-10,-0.33,0.33,10,52,42,51.67,52.33,62,3.1622776601683795,3.1622776601683795,3.1622776601683795,3.1622776601683795
7,1,0.18213969999487745,q,48.4,Unlimited Time,h,48.39003971387718,43.04129532023708,44.30784501345437,69.31079965091112,43.04129532023708,48.39003971387718,44.30784501345437,69.31079965091112,-10,-0.33,0.33,10,52,42,51.67,52.33,62,10,10,10,10
7,2,0.8786210999969626,w,29.6,Unlimited Time,h,67.30914701912188,29.596733407757178,58.8671870703494,62.7796147016989,29.596733407757178,67.30914701912188,58.8671870703494,62.7796147016989,-10,-0.33,0.33,10,52,42,51.67,52.33,62,10,10,10,10
7,3,0.4004086999993888,o,52.5,Unlimited Time,h,50.1629223756733,50.467801436092515,52.53640150530613,56.672430108687806,50.467801436092515,50.1629223756733,52.53640150530613,56.672430108687806,-10,-0.33,0.33,10,52,42,51.67,52.33,62,10,10,10,10
7,4,0.15206549999857089,p,52.6,Unlimited Time,h,50.538709022055265,52.038651566092405,42.99134952366035,52.5580271677072,52.038651566092405,50.538709022055265,42.99134952366035,52.5580271677072,-10,-0.33,0.33,10,52,42,51.67,52.33,62,10,10,10,10
7,5,0.48208639999938896,o,50.0,Unlimited Time,h,49.29595250707821,47.695385868818676,50.001562964560705,65.40312406714803,47.695385868818676,49.29595250707821,50.001562964560705,65.40312406714803,-10,-0.33,0.33,10,52,42,51.67,52.33,62,10,10,10,10
7,6,0.21249279999756254,p,56.9,Unlimited Time,h,44.32212041376222,40.161492893940846,47.07825711625872,56.9463654245112,40.161492893940846,44.32212041376222,47.07825711625872,56.9463654245112,-10,-0.33,0.33,10,52,42,51.67,52.33,62,10,10,10,10
7,7,0.23682139999436913,p,72.4,Unlimited Time,h,48.84936988994603,41.62956030543107,59.31583945249327,72.35639604272716,41.62956030543107,48.84936988994603,59.31583945249327,72.35639604272716,-10,-0.33,0.33,10,52,42,51.67,52.33,62,10,10,10,10
7,8,0.13028769999800716,p,43.8,Unlimited Time,h,54.14781763086509,41.64108259877111,78.142486330157,43.76552367338636,41.64108259877111,54.14781763086509,78.142486330157,43.76552367338636,-10,-0.33,0.33,10,52,42,51.67,52.33,62,10,10,10,10
7,9,0.39785940000001574,w,48.3,Unlimited Time,h,47.94656937768172,48.2674750891531,53.382156110495714,39.91141035374017,48.2674750891531,47.94656937768172,53.382156110495714,39.91141035374017,-10,-0.33,0.33,10,52,42,51.67,52.33,62,10,10,10,10
7,10,0.7316378999967128,p,68.3,Unlimited Time,h,74.28273059128861,41.68976999722421,47.56980346844587,68.33772584757693,41.68976999722421,74.28273059128861,47.56980346844587,68.33772584757693,-10,-0.33,0.33,10,52,42,51.67,52.33,62,10,10,10,10
7,11,0.5559252999883029,p,80.6,Unlimited Time,h,47.21074857692442,54.892024149580195,40.703205396206016,80.55234116522087,54.892024149580195,47.21074857692442,40.703205396206016,80.55234116522087,-10,-0.33,0.33,10,52,42,51.67,52.33,62,10,10,10,10
7,12,0.28257299999677343,p,77.7,Unlimited Time,h,51.4571984046295,41.84105400338236,46.214544557537565,77.67342796750887,41.84105400338236,51.4571984046295,46.214544557537565,77.67342796750887,-10,-0.33,0.33,10,52,42,51.67,52.33,62,10,10,10,10
7,13,0.336669799995434,p,53.3,Unlimited Time,h,53.01594392146162,44.16539366869328,62.12080255574051,53.32796722243322,44.16539366869328,53.01594392146162,62.12080255574051,53.32796722243322,-10,-0.33,0.33,10,52,42,51.67,52.33,62,10,10,10,10
7,14,0.4737723999933223,w,60.8,Unlimited Time,h,47.948246614240055,60.83658915611834,48.06534973659409,71.20887159306706,60.83658915611834,47.948246614240055,48.06534973659409,71.20887159306706,-10,-0.33,0.33,10,52,42,51.67,52.33,62,10,10,10,10
7,15,0.6646629999959259,q,55.8,Unlimited Time,h,55.784789084902194,54.98037361507123,43.4268251614808,68.48745893804904,54.98037361507123,55.784789084902194,43.4268251614808,68.48745893804904,-10,-0.33,0.33,10,52,42,51.67,52.33,62,10,10,10,10
7,16,0.6709855999943102,q,54.9,Unlimited Time,h,54.90687449298239,30.039408024778776,56.46141355798846,61.312682240621726,30.039408024778776,54.90687449298239,56.46141355798846,61.312682240621726,-10,-0.33,0.33,10,52,42,51.67,52.33,62,10,10,10,10
7,17,0.368216199996823,w,42.2,Unlimited Time,h,52.310914967136235,42.21040153640721,33.78184904421043,59.26289002159923,42.21040153640721,52.310914967136235,33.78184904421043,59.26289002159923,-10,-0.33,0.33,10,52,42,51.67,52.33,62,10,10,10,10
7,18,0.27668189999531023,q,69.0,Unlimited Time,h,69.03592168041496,38.524399429797384,57.43045501423769,65.27513823132165,38.524399429797384,69.03592168041496,57.43045501423769,65.27513823132165,-10,-0.33,0.33,10,52,42,51.67,52.33,62,10,10,10,10
7,19,0.26087019999249605,p,59.1,Unlimited Time,h,66.14478028128913,51.01798338583039,48.39100439339076,59.114714221840615,51.01798338583039,66.14478028128913,48.39100439339076,59.114714221840615,-10,-0.33,0.33,10,52,42,51.67,52.33,62,10,10,10,10
7,20,0.393186399989645,o,51.1,Unlimited Time,h,38.90905268370349,42.935321637272104,51.09221349521894,64.39697229573389,42.935321637272104,38.90905268370349,51.09221349521894,64.39697229573389,-10,-0.33,0.33,10,52,42,51.67,52.33,62,10,10,10,10
8,1,0.19202299999597017,q,67.4,Limited Time - 400ms,i,67.428095506601,33.53026180695767,46.24000870364833,81.93904844296904,46.24000870364833,33.53026180695767,67.428095506601,81.93904844296904,-10,-10,10,10,52,42,42,62,62,3.1622776601683795,10,3.1622776601683795,10
8,2,0.17138339999655727,w,59.3,Limited Time - 400ms,i,61.78731428114943,59.3263724291417,39.3772930079502,52.9971598938352,39.3772930079502,59.3263724291417,61.78731428114943,52.9971598938352,-10,-10,10,10,52,42,42,62,62,3.1622776601683795,10,3.1622776601683795,10
8,3,0.10396689999470254,o,43.6,Limited Time - 400ms,i,62.00060007269795,24.21756282410698,43.63906004599892,53.21129490108673,43.63906004599892,24.21756282410698,62.00060007269795,53.21129490108673,-10,-10,10,10,52,42,42,62,62,3.1622776601683795,10,3.1622776601683795,10
8,4,0.1233997999879648,p,61.9,Limited Time - 400ms,i,60.835349165737135,20.690462812401098,42.23179487651187,61.8754792687449,42.23179487651187,20.690462812401098,60.835349165737135,61.8754792687449,-10,-10,10,10,52,42,42,62,62,3.1622776601683795,10,3.1622776601683795,10
8,5,0.15283619999536313,p,59.1,Limited Time - 400ms,i,59.81325574947053,43.23359065836114,43.43217963248254,59.05619682520897,43.43217963248254,43.23359065836114,59.81325574947053,59.05619682520897,-10,-10,10,10,52,42,42,62,62,3.1622776601683795,10,3.1622776601683795,10
8,6,0.1616502999968361,p,57.4,Limited Time - 400ms,i,60.61817541228709,42.18736304731201,45.644450133304055,57.437686397402715,45.644450133304055,42.18736304731201,60.61817541228709,57.437686397402715,-10,-10,10,10,52,42,42,62,62,3.1622776601683795,10,3.1622776601683795,10
8,7,0.10893179999402491,p,55.5,Limited Time - 400ms,i,64.42937556290234,34.73726060798685,39.162273468116425,55.469710167872904,39.162273468116425,34.73726060798685,64.42937556290234,55.469710167872904,-10,-10,10,10,52,42,42,62,62,3.1622776601683795,10,3.1622776601683795,10
8,8,0.09983539999666391,p,58.4,Limited Time - 400ms,i,60.30318807241632,39.72958034603236,41.17028959941318,58.44491418998577,41.17028959941318,39.72958034603236,60.30318807241632,58.44491418998577,-10,-10,10,10,52,42,42,62,62,3.1622776601683795,10,3.1622776601683795,10
8,9,0.076846599993587,p,66.7,Limited Time - 400ms,i,65.68062454095156,36.84045429630448,43.3033902810813,66.73464520324646,43.3033902810813,36.84045429630448,65.68062454095156,66.73464520324646,-10,-10,10,10,52,42,42,62,62,3.1622776601683795,10,3.1622776601683795,10
8,10,0.06970629999705125,p,64.9,Limited Time - 400ms,i,62.18583198137072,57.28053815804052,44.89604087649755,64.89629260275136,44.89604087649755,57.28053815804052,62.18583198137072,64.89629260275136,-10,-10,10,10,52,42,42,62,62,3.1622776601683795,10,3.1622776601683795,10
8,11,0.04553349999332568,p,63.4,Limited Time - 400ms,i,59.72958827999807,38.07010123609625,36.87437747804242,63.447272578789125,36.87437747804242,38.07010123609625,59.72958827999807,63.447272578789125,-10,-10,10,10,52,42,42,62,62,3.1622776601683795,10,3.1622776601683795,10
8,12,0.03726549999555573,p,55.1,Limited Time - 400ms,i,65.49767633109137,31.12878784539803,43.43763216858749,55.08022259850461,43.43763216858749,31.12878784539803,65.49767633109137,55.08022259850461,-10,-10,10,10,52,42,42,62,62,3.1622776601683795,10,3.1622776601683795,10
8,13,0.06854179999209009,p,62.4,Limited Time - 400ms,i,57.046632129525726,11.287309913064629,43.4060772761843,62.44739965645775,43.4060772761843,11.287309913064629,57.046632129525726,62.44739965645775,-10,-10,10,10,52,42,42,62,62,3.1622776601683795,10,3.1622776601683795,10
8,14,0.04451379999227356,p,51.1,Limited Time - 400ms,i,67.00707186037111,45.25371652831221,41.952475557137944,51.102274824616984,41.952475557137944,45.25371652831221,67.00707186037111,51.102274824616984,-10,-10,10,10,52,42,42,62,62,3.1622776601683795,10,3.1622776601683795,10
8,15,,,0.0,Limited Time - 400ms,i,59.33674851357878,31.09597068061745,38.535063852369845,48.855231231772606,38.535063852369845,31.09597068061745,59.33674851357878,48.855231231772606,-10,-10,10,10,52,42,42,62,62,3.1622776601683795,10,3.1622776601683795,10
8,16,0.3478594999978668,p,49.6,Limited Time - 400ms,i,62.928766527591314,32.70740803323231,48.12343365474859,49.63282457156982,48.12343365474859,32.70740803323231,62.928766527591314,49.63282457156982,-10,-10,10,10,52,42,42,62,62,3.1622776601683795,10,3.1622776601683795,10
8,17,,,0.0,Limited Time - 400ms,i,60.367816717989456,43.1545698325296,41.138549457704634,68.37308420797882,41.138549457704634,43.1545698325296,60.367816717989456,68.37308420797882,-10,-10,10,10,52,42,42,62,62,3.1622776601683795,10,3.1622776601683795,10
8,18,0.05936759999895003,p,60.7,Limited Time - 400ms,i,60.931253230937834,50.511271651914385,38.878557997343854,60.65785414733253,38.878557997343854,50.511271651914385,60.931253230937834,60.65785414733253,-10,-10,10,10,52,42,42,62,62,3.1622776601683795,10,3.1622776601683795,10
8,19,0.04776769999443786,p,69.9,Limited Time - 400ms,i,59.05161672890195,39.61561146156885,36.584282845490385,69.9047774976002,36.584282845490385,39.61561146156885,59.05161672890195,69.9047774976002,-10,-10,10,10,52,42,42,62,62,3.1622776601683795,10,3.1622776601683795,10
8,20,,,0.0,Limited Time - 400ms,i,57.39807162725711,47.23962491586674,44.321388267233175,65.07456574624376,44.321388267233175,47.23962491586674,57.39807162725711,65.07456574624376,-10,-10,10,10,52,42,42,62,62,3.1622776601683795,10,3.1622776601683795,10
9,1,,,0.0,Limited Time - 800ms,e,43.08831665162034,54.1343972231995,50.51252841441959,45.43846007768867,54.1343972231995,50.51252841441959,45.43846007768867,43.08831665162034,0,0,0,0,52,52,52,52,52,3.1622776601683795,6.324555320336759,8.366600265340756,10
9,2,0.5772933999905945,w,51.6,Limited Time - 800ms,e,33.67629654593921,51.60934845415038,56.624323111417894,54.099478958027255,51.60934845415038,56.624323111417894,54.099478958027255,33.67629654593921,0,0,0,0,52,52,52,52,52,3.1622776601683795,6.324555320336759,8.366600265340756,10
9,3,0.27925539999705506,w,54.7,Limited Time - 800ms,e,62.77655466091059,54.70460703051597,49.47489714403077,50.91253826160287,54.70460703051597,49.47489714403077,50.91253826160287,62.77655466091059,0,0,0,0,52,52,52,52,52,3.1622776601683795,6.324555320336759,8.366600265340756,10
9,4,0.3441899999961606,o,49.7,Limited Time - 800ms,e,55.00534941238638,46.177033309454416,49.73243400947822,52.550380553773145,46.177033309454416,49.73243400947822,52.550380553773145,55.00534941238638,0,0,0,0,52,52,52,52,52,3.1622776601683795,6.324555320336759,8.366600265340756,10
9,5,0.13737799999216804,p,55.7,Limited Time - 800ms,e,50.9508467864264,49.06696875227899,50.45399367101552,55.67721455328497,49.06696875227899,50.45399367101552,55.67721455328497,50.9508467864264,0,0,0,0,52,52,52,52,52,3.1622776601683795,6.324555320336759,8.366600265340756,10
9,6,0.14915109999856213,p,46.7,Limited Time - 800ms,e,45.73105509840383,49.35597417142012,53.39480495611765,46.656791282882466,49.35597417142012,53.39480495611765,46.656791282882466,45.73105509840383,0,0,0,0,52,52,52,52,52,3.1622776601683795,6.324555320336759,8.366600265340756,10
9,7,0.3530280999984825,o,47.8,Limited Time - 800ms,e,65.83259581330975,47.62908628181191,47.7718410228644,55.090503023105946,47.62908628181191,47.7718410228644,55.090503023105946,65.83259581330975,0,0,0,0,52,52,52,52,52,3.1622776601683795,6.324555320336759,8.366600265340756,10
9,8,0.10530769999604672,w,49.4,Limited Time - 800ms,e,64.91612950493214,49.38689807961125,56.45584398321652,56.33862036041965,49.38689807961125,56.45584398321652,56.33862036041965,64.91612950493214,0,0,0,0,52,52,52,52,52,3.1622776601683795,6.324555320336759,8.366600265340756,10
9,9,0.17687440000008792,q,29.9,Limited Time - 800ms,e,29.937096055141907,54.19553785741969,58.14560538081329,46.169192308281126,54.19553785741969,58.14560538081329,46.169192308281126,29.937096055141907,0,0,0,0,52,52,52,52,52,3.1622776601683795,6.324555320336759,8.366600265340756,10
9,10,0.10512629999720957,w,46.9,Limited Time - 800ms,e,64.55759964844412,46.91499981459723,37.83559568358946,62.88109721506649,46.91499981459723,37.83559568358946,62.88109721506649,64.55759964844412,0,0,0,0,52,52,52,52,52,3.1622776601683795,6.324555320336759,8.366600265340756,10
9,11,0.11018250000051921,w,49.3,Limited Time - 800ms,e,32.83428189335724,49.33432405686331,45.82990639187359,35.950317949042486,49.33432405686331,45.82990639187359,35.950317949042486,32.83428189335724,0,0,0,0,52,52,52,52,52,3.1622776601683795,6.324555320336759,8.366600265340756,10
9,12,0.09643659999710508,w,47.0,Limited Time - 800ms,e,40.23256290069945,46.984352223381244,58.64690748978791,61.28485536574577,46.984352223381244,58.64690748978791,61.28485536574577,40.23256290069945,0,0,0,0,52,52,52,52,52,3.1622776601683795,6.324555320336759,8.366600265340756,10
9,13,,,0.0,Limited Time - 800ms,e,65.3438320081622,52.17678542431918,62.7928277506732,54.23174034026164,52.17678542431918,62.7928277506732,54.23174034026164,65.3438320081622,0,0,0,0,52,52,52,52,52,3.1622776601683795,6.324555320336759,8.366600265340756,10
9,14,0.20114509999984875,w,52.5,Limited Time - 800ms,e,48.00197430757411,52.51078935859185,52.645572172708185,50.61096089881966,52.51078935859185,52.645572172708185,50.61096089881966,48.00197430757411,0,0,0,0,52,52,52,52,52,3.1622776601683795,6.324555320336759,8.366600265340756,10
9,15,0.08394920000137063,o,55.3,Limited Time - 800ms,e,51.04470012494899,57.6642364471647,55.33657400628186,53.87349118349394,57.6642364471647,55.33657400628186,53.87349118349394,51.04470012494899,0,0,0,0,52,52,52,52,52,3.1622776601683795,6.324555320336759,8.366600265340756,10
9,16,0.02566879999358207,o,55.0,Limited Time - 800ms,e,67.78424969986227,59.06286849548244,54.98451571016285,57.17402670452939,59.06286849548244,54.98451571016285,57.17402670452939,67.78424969986227,0,0,0,0,52,52,52,52,52,3.1622776601683795,6.324555320336759,8.366600265340756,10
9,17,0.09410519999801181,o,56.8,Limited Time - 800ms,e,67.24611888417554,51.985528921005596,56.842920387016136,48.91186418107408,51.985528921005596,56.842920387016136,48.91186418107408,67.24611888417554,0,0,0,0,52,52,52,52,52,3.1622776601683795,6.324555320336759,8.366600265340756,10
9,18,0.15184269999008393,o,57.8,Limited Time - 800ms,e,41.99587406063348,56.350705530799,57.838484344093985,56.4575382729048,56.350705530799,57.838484344093985,56.4575382729048,41.99587406063348,0,0,0,0,52,52,52,52,52,3.1622776601683795,6.324555320336759,8.366600265340756,10
9,19,0.03954669999075122,o,48.1,Limited Time - 800ms,e,45.8739592050787,51.375761526471216,48.076910090221006,47.53840000670666,51.375761526471216,48.076910090221006,47.53840000670666,45.8739592050787,0,0,0,0,52,52,52,52,52,3.1622776601683795,6.324555320336759,8.366600265340756,10
9,20,0.5031722999920021,o,48.5,Limited Time - 800ms,e,53.38765970554975,55.5608976024095,48.45345124196392,39.90879468140083,55.5608976024095,48.45345124196392,39.90879468140083,53.38765970554975,0,0,0,0,52,52,52,52,52,3.1622776601683795,6.324555320336759,8.366600265340756,10
10,1,1.428664099999878,w,46.2,Unlimited Time,i,33.53026180695767,46.24000870364833,81.93904844296904,67.428095506601,46.24000870364833,33.53026180695767,67.428095506601,81.93904844296904,-10,-10,10,10,52,42,42,62,62,3.1622776601683795,10,3.1622776601683795,10
10,2,0.5998473999934504,q,59.3,Unlimited Time,i,59.3263724291417,39.3772930079502,52.9971598938352,61.78731428114943,39.3772930079502,59.3263724291417,61.78731428114943,52.9971598938352,-10,-10,10,10,52,42,42,62,62,3.1622776601683795,10,3.1622776601683795,10
10,3,0.7244622999933199,p,62.0,Unlimited Time,i,24.21756282410698,43.63906004599892,53.21129490108673,62.00060007269795,43.63906004599892,24.21756282410698,62.00060007269795,53.21129490108673,-10,-10,10,10,52,42,42,62,62,3.1622776601683795,10,3.1622776601683795,10
10,4,0.7095134999908623,o,61.9,Unlimited Time,i,20.690462812401098,42.23179487651187,61.8754792687449,60.835349165737135,42.23179487651187,20.690462812401098,60.835349165737135,61.8754792687449,-10,-10,10,10,52,42,42,62,62,3.1622776601683795,10,3.1622776601683795,10
10,5,0.6415341999963857,p,59.8,Unlimited Time,i,43.23359065836114,43.43217963248254,59.05619682520897,59.81325574947053,43.43217963248254,43.23359065836114,59.81325574947053,59.05619682520897,-10,-10,10,10,52,42,42,62,62,3.1622776601683795,10,3.1622776601683795,10
10,6,0.4239696999939042,q,42.2,Unlimited Time,i,42.18736304731201,45.644450133304055,57.437686397402715,60.61817541228709,45.644450133304055,42.18736304731201,60.61817541228709,57.437686397402715,-10,-10,10,10,52,42,42,62,62,3.1622776601683795,10,3.1622776601683795,10
10,7,0.33029420000093523,w,39.2,Unlimited Time,i,34.73726060798685,39.162273468116425,55.469710167872904,64.42937556290234,39.162273468116425,34.73726060798685,64.42937556290234,55.469710167872904,-10,-10,10,10,52,42,42,62,62,3.1622776601683795,10,3.1622776601683795,10
10,8,0.31472209998901235,o,58.4,Unlimited Time,i,39.72958034603236,41.17028959941318,58.44491418998577,60.30318807241632,41.17028959941318,39.72958034603236,60.30318807241632,58.44491418998577,-10,-10,10,10,52,42,42,62,62,3.1622776601683795,10,3.1622776601683795,10
10,9,0.3638500999950338,p,65.7,Unlimited Time,i,36.84045429630448,43.3033902810813,66.73464520324646,65.68062454095156,43.3033902810813,36.84045429630448,65.68062454095156,66.73464520324646,-10,-10,10,10,52,42,42,62,62,3.1622776601683795,10,3.1622776601683795,10
10,10,0.40280709999933606,p,62.2,Unlimited Time,i,57.28053815804052,44.89604087649755,64.89629260275136,62.18583198137072,44.89604087649755,57.28053815804052,62.18583198137072,64.89629260275136,-10,-10,10,10,52,42,42,62,62,3.1622776601683795,10,3.1622776601683795,10
10,11,0.2614798999929917,p,59.7,Unlimited Time,i,38.07010123609625,36.87437747804242,63.447272578789125,59.72958827999807,36.87437747804242,38.07010123609625,59.72958827999807,63.447272578789125,-10,-10,10,10,52,42,42,62,62,3.1622776601683795,10,3.1622776601683795,10
10,12,0.28115129999787314,p,65.5,Unlimited Time,i,31.12878784539803,43.43763216858749,55.08022259850461,65.49767633109137,43.43763216858749,31.12878784539803,65.49767633109137,55.08022259850461,-10,-10,10,10,52,42,42,62,62,3.1622776601683795,10,3.1622776601683795,10
10,13,0.6958529999974417,p,57.0,Unlimited Time,i,11.287309913064629,43.4060772761843,62.44739965645775,57.046632129525726,43.4060772761843,11.287309913064629,57.046632129525726,62.44739965645775,-10,-10,10,10,52,42,42,62,62,3.1622776601683795,10,3.1622776601683795,10
10,14,0.5268125999937183,p,67.0,Unlimited Time,i,45.25371652831221,41.952475557137944,51.102274824616984,67.00707186037111,41.952475557137944,45.25371652831221,67.00707186037111,51.102274824616984,-10,-10,10,10,52,42,42,62,62,3.1622776601683795,10,3.1622776601683795,10
10,15,0.7649286999949254,p,59.3,Unlimited Time,i,31.09597068061745,38.535063852369845,48.855231231772606,59.33674851357878,38.535063852369845,31.09597068061745,59.33674851357878,48.855231231772606,-10,-10,10,10,52,42,42,62,62,3.1622776601683795,10,3.1622776601683795,10
10,16,0.44205389999842737,o,49.6,Unlimited Time,i,32.70740803323231,48.12343365474859,49.63282457156982,62.928766527591314,48.12343365474859,32.70740803323231,62.928766527591314,49.63282457156982,-10,-10,10,10,52,42,42,62,62,3.1622776601683795,10,3.1622776601683795,10
10,17,0.5429413999954704,w,41.1,Unlimited Time,i,43.1545698325296,41.138549457704634,68.37308420797882,60.367816717989456,41.138549457704634,43.1545698325296,60.367816717989456,68.37308420797882,-10,-10,10,10,52,42,42,62,62,3.1622776601683795,10,3.1622776601683795,10
10,18,0.4710714999891934,q,50.5,Unlimited Time,i,50.511271651914385,38.878557997343854,60.65785414733253,60.931253230937834,38.878557997343854,50.511271651914385,60.931253230937834,60.65785414733253,-10,-10,10,10,52,42,42,62,62,3.1622776601683795,10,3.1622776601683795,10
10,19,1.0602599999911035,w,36.6,Unlimited Time,i,39.61561146156885,36.584282845490385,69.9047774976002,59.05161672890195,36.584282845490385,39.61561146156885,59.05161672890195,69.9047774976002,-10,-10,10,10,52,42,42,62,62,3.1622776601683795,10,3.1622776601683795,10
10,20,0.3406907999960822,p,57.4,Unlimited Time,i,47.23962491586674,44.321388267233175,65.07456574624376,57.39807162725711,44.321388267233175,47.23962491586674,57.39807162725711,65.07456574624376,-10,-10,10,10,52,42,42,62,62,3.1622776601683795,10,3.1622776601683795,10
11,1,0.196150799994939,q,43.0,Limited Time - 400ms,h,43.04129532023708,44.30784501345437,48.39003971387718,69.31079965091112,43.04129532023708,48.39003971387718,44.30784501345437,69.31079965091112,-10,-0.33,0.33,10,52,42,51.67,52.33,62,10,10,10,10
11,2,0.2088654999897699,w,58.9,Limited Time - 400ms,h,29.596733407757178,58.8671870703494,67.30914701912188,62.7796147016989,29.596733407757178,67.30914701912188,58.8671870703494,62.7796147016989,-10,-0.33,0.33,10,52,42,51.67,52.33,62,10,10,10,10
11,3,0.2108438999930513,o,50.2,Limited Time - 400ms,h,50.467801436092515,52.53640150530613,50.1629223756733,56.672430108687806,50.467801436092515,50.1629223756733,52.53640150530613,56.672430108687806,-10,-0.33,0.33,10,52,42,51.67,52.33,62,10,10,10,10
11,4,0.306175899990194,o,50.5,Limited Time - 400ms,h,52.038651566092405,42.99134952366035,50.538709022055265,52.5580271677072,52.038651566092405,50.538709022055265,42.99134952366035,52.5580271677072,-10,-0.33,0.33,10,52,42,51.67,52.33,62,10,10,10,10
11,5,0.2323256999879959,o,49.3,Limited Time - 400ms,h,47.695385868818676,50.001562964560705,49.29595250707821,65.40312406714803,47.695385868818676,49.29595250707821,50.001562964560705,65.40312406714803,-10,-0.33,0.33,10,52,42,51.67,52.33,62,10,10,10,10
11,6,0.04754859999229666,o,44.3,Limited Time - 400ms,h,40.161492893940846,47.07825711625872,44.32212041376222,56.9463654245112,40.161492893940846,44.32212041376222,47.07825711625872,56.9463654245112,-10,-0.33,0.33,10,52,42,51.67,52.33,62,10,10,10,10
11,7,0.05757679999078391,w,59.3,Limited Time - 400ms,h,41.62956030543107,59.31583945249327,48.84936988994603,72.35639604272716,41.62956030543107,48.84936988994603,59.31583945249327,72.35639604272716,-10,-0.33,0.33,10,52,42,51.67,52.33,62,10,10,10,10
11,8,0.1732856999951764,w,78.1,Limited Time - 400ms,h,41.64108259877111,78.142486330157,54.14781763086509,43.76552367338636,41.64108259877111,54.14781763086509,78.142486330157,43.76552367338636,-10,-0.33,0.33,10,52,42,51.67,52.33,62,10,10,10,10
11,9,0.14613469999312656,w,53.4,Limited Time - 400ms,h,48.2674750891531,53.382156110495714,47.94656937768172,39.91141035374017,48.2674750891531,47.94656937768172,53.382156110495714,39.91141035374017,-10,-0.33,0.33,10,52,42,51.67,52.33,62,10,10,10,10
11,10,0.18342269999266136,w,47.6,Limited Time - 400ms,h,41.68976999722421,47.56980346844587,74.28273059128861,68.33772584757693,41.68976999722421,74.28273059128861,47.56980346844587,68.33772584757693,-10,-0.33,0.33,10,52,42,51.67,52.33,62,10,10,10,10
11,11,0.16774129999248544,w,40.7,Limited Time - 400ms,h,54.892024149580195,40.703205396206016,47.21074857692442,80.55234116522087,54.892024149580195,47.21074857692442,40.703205396206016,80.55234116522087,-10,-0.33,0.33,10,52,42,51.67,52.33,62,10,10,10,10
11,12,0.20143919999100035,w,46.2,Limited Time - 400ms,h,41.84105400338236,46.214544557537565,51.4571984046295,77.67342796750887,41.84105400338236,51.4571984046295,46.214544557537565,77.67342796750887,-10,-0.33,0.33,10,52,42,51.67,52.33,62,10,10,10,10
11,13,0.12732139998843195,w,62.1,Limited Time - 400ms,h,44.16539366869328,62.12080255574051,53.01594392146162,53.32796722243322,44.16539366869328,53.01594392146162,62.12080255574051,53.32796722243322,-10,-0.33,0.33,10,52,42,51.67,52.33,62,10,10,10,10
11,14,0.14549339999939548,w,48.1,Limited Time - 400ms,h,60.83658915611834,48.06534973659409,47.948246614240055,71.20887159306706,60.83658915611834,47.948246614240055,48.06534973659409,71.20887159306706,-10,-0.33,0.33,10,52,42,51.67,52.33,62,10,10,10,10
11,15,0.07497609999700217,w,43.4,Limited Time - 400ms,h,54.98037361507123,43.4268251614808,55.784789084902194,68.48745893804904,54.98037361507123,55.784789084902194,43.4268251614808,68.48745893804904,-10,-0.33,0.33,10,52,42,51.67,52.33,62,10,10,10,10
11,16,0.06163909999304451,w,56.5,Limited Time - 400ms,h,30.039408024778776,56.46141355798846,54.90687449298239,61.312682240621726,30.039408024778776,54.90687449298239,56.46141355798846,61.312682240621726,-10,-0.33,0.33,10,52,42,51.67,52.33,62,10,10,10,10
11,17,0.15129499999602558,w,33.8,Limited Time - 400ms,h,42.21040153640721,33.78184904421043,52.310914967136235,59.26289002159923,42.21040153640721,52.310914967136235,33.78184904421043,59.26289002159923,-10,-0.33,0.33,10,52,42,51.67,52.33,62,10,10,10,10
11,18,0.024135299994668458,w,57.4,Limited Time - 400ms,h,38.524399429797384,57.43045501423769,69.03592168041496,65.27513823132165,38.524399429797384,69.03592168041496,57.43045501423769,65.27513823132165,-10,-0.33,0.33,10,52,42,51.67,52.33,62,10,10,10,10
11,19,0.05930109999462729,w,48.4,Limited Time - 400ms,h,51.01798338583039,48.39100439339076,66.14478028128913,59.114714221840615,51.01798338583039,66.14478028128913,48.39100439339076,59.114714221840615,-10,-0.33,0.33,10,52,42,51.67,52.33,62,10,10,10,10
11,20,0.04383719999168534,w,51.1,Limited Time - 400ms,h,42.935321637272104,51.09221349521894,38.90905268370349,64.39697229573389,42.935321637272104,38.90905268370349,51.09221349521894,64.39697229573389,-10,-0.33,0.33,10,52,42,51.67,52.33,62,10,10,10,10
12,1,0.49746229999436764,q,44.3,Limited Time - 800ms,h,44.30784501345437,43.04129532023708,69.31079965091112,48.39003971387718,43.04129532023708,48.39003971387718,44.30784501345437,69.31079965091112,-10,-0.33,0.33,10,52,42,51.67,52.33,62,10,10,10,10
12,2,0.19707119998929556,w,29.6,Limited Time - 800ms,h,58.8671870703494,29.596733407757178,62.7796147016989,67.30914701912188,29.596733407757178,67.30914701912188,58.8671870703494,62.7796147016989,-10,-0.33,0.33,10,52,42,51.67,52.33,62,10,10,10,10
12,3,0.2531479999961448,p,50.2,Limited Time - 800ms,h,52.53640150530613,50.467801436092515,56.672430108687806,50.1629223756733,50.467801436092515,50.1629223756733,52.53640150530613,56.672430108687806,-10,-0.33,0.33,10,52,42,51.67,52.33,62,10,10,10,10
12,4,0.21875429999636253,o,52.6,Limited Time - 800ms,h,42.99134952366035,52.038651566092405,52.5580271677072,50.538709022055265,52.038651566092405,50.538709022055265,42.99134952366035,52.5580271677072,-10,-0.33,0.33,10,52,42,51.67,52.33,62,10,10,10,10
12,5,0.3047266999928979,o,65.4,Limited Time - 800ms,h,50.001562964560705,47.695385868818676,65.40312406714803,49.29595250707821,47.695385868818676,49.29595250707821,50.001562964560705,65.40312406714803,-10,-0.33,0.33,10,52,42,51.67,52.33,62,10,10,10,10
12,6,0.1289373999898089,o,56.9,Limited Time - 800ms,h,47.07825711625872,40.161492893940846,56.9463654245112,44.32212041376222,40.161492893940846,44.32212041376222,47.07825711625872,56.9463654245112,-10,-0.33,0.33,10,52,42,51.67,52.33,62,10,10,10,10
12,7,0.09433749999880092,o,72.4,Limited Time - 800ms,h,59.31583945249327,41.62956030543107,72.35639604272716,48.84936988994603,41.62956030543107,48.84936988994603,59.31583945249327,72.35639604272716,-10,-0.33,0.33,10,52,42,51.67,52.33,62,10,10,10,10
12,8,0.2597038999956567,o,43.8,Limited Time - 800ms,h,78.142486330157,41.64108259877111,43.76552367338636,54.14781763086509,41.64108259877111,54.14781763086509,78.142486330157,43.76552367338636,-10,-0.33,0.33,10,52,42,51.67,52.33,62,10,10,10,10
12,9,0.06849769999098498,o,39.9,Limited Time - 800ms,h,53.382156110495714,48.2674750891531,39.91141035374017,47.94656937768172,48.2674750891531,47.94656937768172,53.382156110495714,39.91141035374017,-10,-0.33,0.33,10,52,42,51.67,52.33,62,10,10,10,10
12,10,0.585469199992076,o,68.3,Limited Time - 800ms,h,47.56980346844587,41.68976999722421,68.33772584757693,74.28273059128861,41.68976999722421,74.28273059128861,47.56980346844587,68.33772584757693,-10,-0.33,0.33,10,52,42,51.67,52.33,62,10,10,10,10
12,11,0.026215199992293492,o,80.6,Limited Time - 800ms,h,40.703205396206016,54.892024149580195,80.55234116522087,47.21074857692442,54.892024149580195,47.21074857692442,40.703205396206016,80.55234116522087,-10,-0.33,0.33,10,52,42,51.67,52.33,62,10,10,10,10
12,12,0.03249069999583298,o,77.7,Limited Time - 800ms,h,46.214544557537565,41.84105400338236,77.67342796750887,51.4571984046295,41.84105400338236,51.4571984046295,46.214544557537565,77.67342796750887,-10,-0.33,0.33,10,52,42,51.67,52.33,62,10,10,10,10
12,13,0.0317289999948116,o,53.3,Limited Time - 800ms,h,62.12080255574051,44.16539366869328,53.32796722243322,53.01594392146162,44.16539366869328,53.01594392146162,62.12080255574051,53.32796722243322,-10,-0.33,0.33,10,52,42,51.67,52.33,62,10,10,10,10
12,14,0.5812545000007958,o,71.2,Limited Time - 800ms,h,48.06534973659409,60.83658915611834,71.20887159306706,47.948246614240055,60.83658915611834,47.948246614240055,48.06534973659409,71.20887159306706,-10,-0.33,0.33,10,52,42,51.67,52.33,62,10,10,10,10
12,15,0.10533059999579564,o,68.5,Limited Time - 800ms,h,43.4268251614808,54.98037361507123,68.48745893804904,55.784789084902194,54.98037361507123,55.784789084902194,43.4268251614808,68.48745893804904,-10,-0.33,0.33,10,52,42,51.67,52.33,62,10,10,10,10
12,16,0.07326619999366812,o,61.3,Limited Time - 800ms,h,56.46141355798846,30.039408024778776,61.312682240621726,54.90687449298239,30.039408024778776,54.90687449298239,56.46141355798846,61.312682240621726,-10,-0.33,0.33,10,52,42,51.67,52.33,62,10,10,10,10
12,17,0.06562869999470422,o,59.3,Limited Time - 800ms,h,33.78184904421043,42.21040153640721,59.26289002159923,52.310914967136235,42.21040153640721,52.310914967136235,33.78184904421043,59.26289002159923,-10,-0.33,0.33,10,52,42,51.67,52.33,62,10,10,10,10
12,18,0.056188999995356426,o,65.3,Limited Time - 800ms,h,57.43045501423769,38.524399429797384,65.27513823132165,69.03592168041496,38.524399429797384,69.03592168041496,57.43045501423769,65.27513823132165,-10,-0.33,0.33,10,52,42,51.67,52.33,62,10,10,10,10
12,19,0.5041765999922063,o,59.1,Limited Time - 800ms,h,48.39100439339076,51.01798338583039,59.114714221840615,66.14478028128913,51.01798338583039,66.14478028128913,48.39100439339076,59.114714221840615,-10,-0.33,0.33,10,52,42,51.67,52.33,62,10,10,10,10
12,20,0.5064328000007663,o,64.4,Limited Time - 800ms,h,51.09221349521894,42.935321637272104,64.39697229573389,38.90905268370349,42.935321637272104,38.90905268370349,51.09221349521894,64.39697229573389,-10,-0.33,0.33,10,52,42,51.67,52.33,62,10,10,10,10
13,1,1.1442508999971324,q,33.5,Unlimited Time,i,33.53026180695767,46.24000870364833,81.93904844296904,67.428095506601,46.24000870364833,33.53026180695767,67.428095506601,81.93904844296904,-10,-10,10,10,52,42,42,62,62,3.1622776601683795,10,3.1622776601683795,10
13,2,0.3016453999953228,o,53.0,Unlimited Time,i,59.3263724291417,39.3772930079502,52.9971598938352,61.78731428114943,39.3772930079502,59.3263724291417,61.78731428114943,52.9971598938352,-10,-10,10,10,52,42,42,62,62,3.1622776601683795,10,3.1622776601683795,10
13,3,0.38712390000000596,w,43.6,Unlimited Time,i,24.21756282410698,43.63906004599892,53.21129490108673,62.00060007269795,43.63906004599892,24.21756282410698,62.00060007269795,53.21129490108673,-10,-10,10,10,52,42,42,62,62,3.1622776601683795,10,3.1622776601683795,10
13,4,0.2045589999979711,p,60.8,Unlimited Time,i,20.690462812401098,42.23179487651187,61.8754792687449,60.835349165737135,42.23179487651187,20.690462812401098,60.835349165737135,61.8754792687449,-10,-10,10,10,52,42,42,62,62,3.1622776601683795,10,3.1622776601683795,10
13,5,0.351246699996409,p,59.8,Unlimited Time,i,43.23359065836114,43.43217963248254,59.05619682520897,59.81325574947053,43.43217963248254,43.23359065836114,59.81325574947053,59.05619682520897,-10,-10,10,10,52,42,42,62,62,3.1622776601683795,10,3.1622776601683795,10
13,6,0.23884989999351092,p,60.6,Unlimited Time,i,42.18736304731201,45.644450133304055,57.437686397402715,60.61817541228709,45.644450133304055,42.18736304731201,60.61817541228709,57.437686397402715,-10,-10,10,10,52,42,42,62,62,3.1622776601683795,10,3.1622776601683795,10
13,7,0.09399879999546101,p,64.4,Unlimited Time,i,34.73726060798685,39.162273468116425,55.469710167872904,64.42937556290234,39.162273468116425,34.73726060798685,64.42937556290234,55.469710167872904,-10,-10,10,10,52,42,42,62,62,3.1622776601683795,10,3.1622776601683795,10
13,8,0.027247599995462224,p,60.3,Unlimited Time,i,39.72958034603236,41.17028959941318,58.44491418998577,60.30318807241632,41.17028959941318,39.72958034603236,60.30318807241632,58.44491418998577,-10,-10,10,10,52,42,42,62,62,3.1622776601683795,10,3.1622776601683795,10
13,9,0.58876269999746,p,65.7,Unlimited Time,i,36.84045429630448,43.3033902810813,66.73464520324646,65.68062454095156,43.3033902810813,36.84045429630448,65.68062454095156,66.73464520324646,-10,-10,10,10,52,42,42,62,62,3.1622776601683795,10,3.1622776601683795,10
13,10,0.2064650999964215,p,62.2,Unlimited Time,i,57.28053815804052,44.89604087649755,64.89629260275136,62.18583198137072,44.89604087649755,57.28053815804052,62.18583198137072,64.89629260275136,-10,-10,10,10,52,42,42,62,62,3.1622776601683795,10,3.1622776601683795,10
13,11,0.10908029999700375,p,59.7,Unlimited Time,i,38.07010123609625,36.87437747804242,63.447272578789125,59.72958827999807,36.87437747804242,38.07010123609625,59.72958827999807,63.447272578789125,-10,-10,10,10,52,42,42,62,62,3.1622776601683795,10,3.1622776601683795,10
13,12,0.04219689999445109,p,65.5,Unlimited Time,i,31.12878784539803,43.43763216858749,55.08022259850461,65.49767633109137,43.43763216858749,31.12878784539803,65.49767633109137,55.08022259850461,-10,-10,10,10,52,42,42,62,62,3.1622776601683795,10,3.1622776601683795,10
13,13,0.04951329999312293,p,57.0,Unlimited Time,i,11.287309913064629,43.4060772761843,62.44739965645775,57.046632129525726,43.4060772761843,11.287309913064629,57.046632129525726,62.44739965645775,-10,-10,10,10,52,42,42,62,62,3.1622776601683795,10,3.1622776601683795,10
13,14,0.46264539998810505,p,67.0,Unlimited Time,i,45.25371652831221,41.952475557137944,51.102274824616984,67.00707186037111,41.952475557137944,45.25371652831221,67.00707186037111,51.102274824616984,-10,-10,10,10,52,42,42,62,62,3.1622776601683795,10,3.1622776601683795,10
13,15,0.01775679999991553,p,59.3,Unlimited Time,i,31.09597068061745,38.535063852369845,48.855231231772606,59.33674851357878,38.535063852369845,31.09597068061745,59.33674851357878,48.855231231772606,-10,-10,10,10,52,42,42,62,62,3.1622776601683795,10,3.1622776601683795,10
13,16,0.11494259999744827,p,62.9,Unlimited Time,i,32.70740803323231,48.12343365474859,49.63282457156982,62.928766527591314,48.12343365474859,32.70740803323231,62.928766527591314,49.63282457156982,-10,-10,10,10,52,42,42,62,62,3.1622776601683795,10,3.1622776601683795,10
13,17,0.5502665999956662,p,60.4,Unlimited Time,i,43.1545698325296,41.138549457704634,68.37308420797882,60.367816717989456,41.138549457704634,43.1545698325296,60.367816717989456,68.37308420797882,-10,-10,10,10,52,42,42,62,62,3.1622776601683795,10,3.1622776601683795,10
13,18,0.08828139999968698,p,60.9,Unlimited Time,i,50.511271651914385,38.878557997343854,60.65785414733253,60.931253230937834,38.878557997343854,50.511271651914385,60.931253230937834,60.65785414733253,-10,-10,10,10,52,42,42,62,62,3.1622776601683795,10,3.1622776601683795,10
13,19,0.49879309999232646,p,59.1,Unlimited Time,i,39.61561146156885,36.584282845490385,69.9047774976002,59.05161672890195,36.584282845490385,39.61561146156885,59.05161672890195,69.9047774976002,-10,-10,10,10,52,42,42,62,62,3.1622776601683795,10,3.1622776601683795,10
13,20,0.17788179999479325,p,57.4,Unlimited Time,i,47.23962491586674,44.321388267233175,65.07456574624376,57.39807162725711,44.321388267233175,47.23962491586674,57.39807162725711,65.07456574624376,-10,-10,10,10,52,42,42,62,62,3.1622776601683795,10,3.1622776601683795,10
14,1,0.2890190999969491,q,53.0,Limited Time - 400ms,l,53.01296862522911,59.397685817564614,45.15983945474699,53.41854476727985,45.15983945474699,53.01296862522911,53.41854476727985,59.397685817564614,-10,-0.33,0.33,10,52,42,51.67,52.33,62,3.1622776601683795,3.1622776601683795,3.1622776601683795,3.1622776601683795
14,2,0.09089539999695262,w,64.5,Limited Time - 400ms,l,50.64892242130594,64.54120144064693,38.64077255877407,51.72528479807903,38.64077255877407,50.64892242130594,51.72528479807903,64.54120144064693,-10,-0.33,0.33,10,52,42,51.67,52.33,62,3.1622776601683795,3.1622776601683795,3.1622776601683795,3.1622776601683795
14,3,0.10739179998927284,w,63.5,Limited Time - 400ms,l,48.186186466630346,63.50646997505991,43.29258197169048,54.24588189848324,43.29258197169048,48.186186466630346,54.24588189848324,63.50646997505991,-10,-0.33,0.33,10,52,42,51.67,52.33,62,3.1622776601683795,3.1622776601683795,3.1622776601683795,3.1622776601683795
14,4,0.017136099995695986,w,62.1,Limited Time - 400ms,l,52.89689786181482,62.06524295106545,46.45247173783505,55.0792041395236,46.45247173783505,52.89689786181482,55.0792041395236,62.06524295106545,-10,-0.33,0.33,10,52,42,51.67,52.33,62,3.1622776601683795,3.1622776601683795,3.1622776601683795,3.1622776601683795
14,5,0.017616999997699168,w,60.8,Limited Time - 400ms,l,50.02219855462224,60.75018942709718,38.95755384810533,48.99056797530746,38.95755384810533,50.02219855462224,48.99056797530746,60.75018942709718,-10,-0.33,0.33,10,52,42,51.67,52.33,62,3.1622776601683795,3.1622776601683795,3.1622776601683795,3.1622776601683795
14,6,0.013365399994654581,w,58.7,Limited Time - 400ms,l,48.789745612238285,58.67727005124679,44.28633770984384,53.18301459114065,44.28633770984384,48.789745612238285,53.18301459114065,58.67727005124679,-10,-0.33,0.33,10,52,42,51.67,52.33,62,3.1622776601683795,3.1622776601683795,3.1622776601683795,3.1622776601683795
14,7,0.04299549999268493,w,62.4,Limited Time - 400ms,l,50.43520149089232,62.38638757765874,42.22167862962772,51.74813128379828,42.22167862962772,50.43520149089232,51.74813128379828,62.38638757765874,-10,-0.33,0.33,10,52,42,51.67,52.33,62,3.1622776601683795,3.1622776601683795,3.1622776601683795,3.1622776601683795
14,8,,,0.0,Limited Time - 400ms,l,51.29404370596447,68.15430360620772,37.877280305262396,47.67103853296675,37.877280305262396,51.29404370596447,47.67103853296675,68.15430360620772,-10,-0.33,0.33,10,52,42,51.67,52.33,62,3.1622776601683795,3.1622776601683795,3.1622776601683795,3.1622776601683795
14,9,0.20156589999533026,w,57.3,Limited Time - 400ms,l,53.69983342960937,57.34462829478828,42.01124188925233,51.620810551496746,42.01124188925233,53.69983342960937,51.620810551496746,57.34462829478828,-10,-0.33,0.33,10,52,42,51.67,52.33,62,3.1622776601683795,3.1622776601683795,3.1622776601683795,3.1622776601683795
14,10,0.20279719999234658,w,61.7,Limited Time - 400ms,l,46.48794897020764,61.703384560553324,40.899496108787496,54.55307701299701,40.899496108787496,46.48794897020764,54.55307701299701,61.703384560553324,-10,-0.33,0.33,10,52,42,51.67,52.33,62,3.1622776601683795,3.1622776601683795,3.1622776601683795,3.1622776601683795
14,11,0.02986169999348931,w,61.1,Limited Time - 400ms,l,51.2938306974111,61.07654070076246,43.816964132674734,51.66183577792853,43.816964132674734,51.2938306974111,51.66183577792853,61.07654070076246,-10,-0.33,0.33,10,52,42,51.67,52.33,62,3.1622776601683795,3.1622776601683795,3.1622776601683795,3.1622776601683795
14,12,0.047737899993080646,w,63.1,Limited Time - 400ms,l,56.295226666355646,63.117309083230126,42.35566131570642,52.265138400903226,42.35566131570642,56.295226666355646,52.265138400903226,63.117309083230126,-10,-0.33,0.33,10,52,42,51.67,52.33,62,3.1622776601683795,3.1622776601683795,3.1622776601683795,3.1622776601683795
14,13,,,0.0,Limited Time - 400ms,l,53.40224884002603,62.07585094664576,40.36782142214849,53.514365017580275,40.36782142214849,53.40224884002603,53.514365017580275,62.07585094664576,-10,-0.33,0.33,10,52,42,51.67,52.33,62,3.1622776601683795,3.1622776601683795,3.1622776601683795,3.1622776601683795
14,14,0.18466959999932442,w,59.1,Limited Time - 400ms,l,54.028350499439654,59.14709043647007,36.30728964182959,55.369974824814115,36.30728964182959,54.028350499439654,55.369974824814115,59.14709043647007,-10,-0.33,0.33,10,52,42,51.67,52.33,62,3.1622776601683795,3.1622776601683795,3.1622776601683795,3.1622776601683795
14,15,0.017494200001237914,w,64.9,Limited Time - 400ms,l,49.98047922731524,64.89235864926998,38.49361721932735,54.50265786218463,38.49361721932735,49.98047922731524,54.50265786218463,64.89235864926998,-10,-0.33,0.33,10,52,42,51.67,52.33,62,3.1622776601683795,3.1622776601683795,3.1622776601683795,3.1622776601683795
14,16,0.033272199994826224,w,53.8,Limited Time - 400ms,l,50.332045219911485,53.75597549733657,32.240392066374575,53.40470058370584,32.240392066374575,50.332045219911485,53.40470058370584,53.75597549733657,-10,-0.33,0.33,10,52,42,51.67,52.33,62,3.1622776601683795,3.1622776601683795,3.1622776601683795,3.1622776601683795
14,17,0.036211499995260965,w,66.3,Limited Time - 400ms,l,48.080479055936514,66.26880699777406,39.39465551427587,52.099974492261396,39.39465551427587,48.080479055936514,52.099974492261396,66.26880699777406,-10,-0.33,0.33,10,52,42,51.67,52.33,62,3.1622776601683795,3.1622776601683795,3.1622776601683795,3.1622776601683795
14,18,,,0.0,Limited Time - 400ms,l,46.746175770042626,61.67379879596722,43.5688697945178,54.02130801224784,43.5688697945178,46.746175770042626,54.02130801224784,61.67379879596722,-10,-0.33,0.33,10,52,42,51.67,52.33,62,3.1622776601683795,3.1622776601683795,3.1622776601683795,3.1622776601683795
14,19,0.12894109999615466,w,62.5,Limited Time - 400ms,l,55.27496490122297,62.47334820039176,46.00216024707157,49.09023887855755,46.00216024707157,55.27496490122297,49.09023887855755,62.47334820039176,-10,-0.33,0.33,10,52,42,51.67,52.33,62,3.1622776601683795,3.1622776601683795,3.1622776601683795,3.1622776601683795
14,20,0.08667919999425067,w,64.6,Limited Time - 400ms,l,52.53411040756318,64.63148869861807,44.10551119450935,51.20621956477666,44.10551119450935,52.53411040756318,51.20621956477666,64.63148869861807,-10,-0.33,0.33,10,52,42,51.67,52.33,62,3.1622776601683795,3.1622776601683795,3.1622776601683795,3.1622776601683795
15,1,0.3129251999926055,q,54.1,Limited Time - 800ms,e,54.1343972231995,50.51252841441959,45.43846007768867,43.08831665162034,54.1343972231995,50.51252841441959,45.43846007768867,43.08831665162034,0,0,0,0,52,52,52,52,52,3.1622776601683795,6.324555320336759,8.366600265340756,10
15,2,0.20572039999387925,w,56.6,Limited Time - 800ms,e,51.60934845415038,56.624323111417894,54.099478958027255,33.67629654593921,51.60934845415038,56.624323111417894,54.099478958027255,33.67629654593921,0,0,0,0,52,52,52,52,52,3.1622776601683795,6.324555320336759,8.366600265340756,10
15,3,0.08890599999722326,o,50.9,Limited Time - 800ms,e,54.70460703051597,49.47489714403077,50.91253826160287,62.77655466091059,54.70460703051597,49.47489714403077,50.91253826160287,62.77655466091059,0,0,0,0,52,52,52,52,52,3.1622776601683795,6.324555320336759,8.366600265340756,10
15,4,0.1187348999956157,p,55.0,Limited Time - 800ms,e,46.177033309454416,49.73243400947822,52.550380553773145,55.00534941238638,46.177033309454416,49.73243400947822,52.550380553773145,55.00534941238638,0,0,0,0,52,52,52,52,52,3.1622776601683795,6.324555320336759,8.366600265340756,10
15,5,0.44498380000004545,o,55.7,Limited Time - 800ms,e,49.06696875227899,50.45399367101552,55.67721455328497,50.9508467864264,49.06696875227899,50.45399367101552,55.67721455328497,50.9508467864264,0,0,0,0,52,52,52,52,52,3.1622776601683795,6.324555320336759,8.366600265340756,10
15,6,0.03455549999489449,w,53.4,Limited Time - 800ms,e,49.35597417142012,53.39480495611765,46.656791282882466,45.73105509840383,49.35597417142012,53.39480495611765,46.656791282882466,45.73105509840383,0,0,0,0,52,52,52,52,52,3.1622776601683795,6.324555320336759,8.366600265340756,10
15,7,0.04867779999767663,w,47.8,Limited Time - 800ms,e,47.62908628181191,47.7718410228644,55.090503023105946,65.83259581330975,47.62908628181191,47.7718410228644,55.090503023105946,65.83259581330975,0,0,0,0,52,52,52,52,52,3.1622776601683795,6.324555320336759,8.366600265340756,10
15,8,0.11169609999342356,w,56.5,Limited Time - 800ms,e,49.38689807961125,56.45584398321652,56.33862036041965,64.91612950493214,49.38689807961125,56.45584398321652,56.33862036041965,64.91612950493214,0,0,0,0,52,52,52,52,52,3.1622776601683795,6.324555320336759,8.366600265340756,10
15,9,0.5421449999921606,q,54.2,Limited Time - 800ms,e,54.19553785741969,58.14560538081329,46.169192308281126,29.937096055141907,54.19553785741969,58.14560538081329,46.169192308281126,29.937096055141907,0,0,0,0,52,52,52,52,52,3.1622776601683795,6.324555320336759,8.366600265340756,10
15,10,0.2048292999897967,q,46.9,Limited Time - 800ms,e,46.91499981459723,37.83559568358946,62.88109721506649,64.55759964844412,46.91499981459723,37.83559568358946,62.88109721506649,64.55759964844412,0,0,0,0,52,52,52,52,52,3.1622776601683795,6.324555320336759,8.366600265340756,10
15,11,0.1330627999996068,q,49.3,Limited Time - 800ms,e,49.33432405686331,45.82990639187359,35.950317949042486,32.83428189335724,49.33432405686331,45.82990639187359,35.950317949042486,32.83428189335724,0,0,0,0,52,52,52,52,52,3.1622776601683795,6.324555320336759,8.366600265340756,10
15,12,0.30795239999861224,w,58.6,Limited Time - 800ms,e,46.984352223381244,58.64690748978791,61.28485536574577,40.23256290069945,46.984352223381244,58.64690748978791,61.28485536574577,40.23256290069945,0,0,0,0,52,52,52,52,52,3.1622776601683795,6.324555320336759,8.366600265340756,10
15,13,0.14821889999439009,w,62.8,Limited Time - 800ms,e,52.17678542431918,62.7928277506732,54.23174034026164,65.3438320081622,52.17678542431918,62.7928277506732,54.23174034026164,65.3438320081622,0,0,0,0,52,52,52,52,52,3.1622776601683795,6.324555320336759,8.366600265340756,10
15,14,0.08701719999226043,w,52.6,Limited Time - 800ms,e,52.51078935859185,52.645572172708185,50.61096089881966,48.00197430757411,52.51078935859185,52.645572172708185,50.61096089881966,48.00197430757411,0,0,0,0,52,52,52,52,52,3.1622776601683795,6.324555320336759,8.366600265340756,10
15,15,0.142242099995201,w,55.3,Limited Time - 800ms,e,57.6642364471647,55.33657400628186,53.87349118349394,51.04470012494899,57.6642364471647,55.33657400628186,53.87349118349394,51.04470012494899,0,0,0,0,52,52,52,52,52,3.1622776601683795,6.324555320336759,8.366600265340756,10
15,16,0.1611482000007527,w,55.0,Limited Time - 800ms,e,59.06286849548244,54.98451571016285,57.17402670452939,67.78424969986227,59.06286849548244,54.98451571016285,57.17402670452939,67.78424969986227,0,0,0,0,52,52,52,52,52,3.1622776601683795,6.324555320336759,8.366600265340756,10
15,17,0.11585839999315795,w,56.8,Limited Time - 800ms,e,51.985528921005596,56.842920387016136,48.91186418107408,67.24611888417554,51.985528921005596,56.842920387016136,48.91186418107408,67.24611888417554,0,0,0,0,52,52,52,52,52,3.1622776601683795,6.324555320336759,8.366600265340756,10
15,18,0.08981839999614749,w,57.8,Limited Time - 800ms,e,56.350705530799,57.838484344093985,56.4575382729048,41.99587406063348,56.350705530799,57.838484344093985,56.4575382729048,41.99587406063348,0,0,0,0,52,52,52,52,52,3.1622776601683795,6.324555320336759,8.366600265340756,10
15,19,0.486119699991832,w,48.1,Limited Time - 800ms,e,51.375761526471216,48.076910090221006,47.53840000670666,45.8739592050787,51.375761526471216,48.076910090221006,47.53840000670666,45.8739592050787,0,0,0,0,52,52,52,52,52,3.1622776601683795,6.324555320336759,8.366600265340756,10
15,20,0.44977909999579424,w,48.5,Limited Time - 800ms,e,55.5608976024095,48.45345124196392,39.90879468140083,53.38765970554975,55.5608976024095,48.45345124196392,39.90879468140083,53.38765970554975,0,0,0,0,52,52,52,52,52,3.1622776601683795,6.324555320336759,8.366600265340756,10
16,1,0.7604781999980332,q,43.1,Unlimited Time,e,43.08831665162034,45.43846007768867,50.51252841441959,54.1343972231995,54.1343972231995,50.51252841441959,45.43846007768867,43.08831665162034,0,0,0,0,52,52,52,52,52,3.1622776601683795,6.324555320336759,8.366600265340756,10
16,2,1.5311374999946565,w,54.1,Unlimited Time,e,33.67629654593921,54.099478958027255,56.624323111417894,51.60934845415038,51.60934845415038,56.624323111417894,54.099478958027255,33.67629654593921,0,0,0,0,52,52,52,52,52,3.1622776601683795,6.324555320336759,8.366600265340756,10
16,3,0.36903269999311306,o,49.5,Unlimited Time,e,62.77655466091059,50.91253826160287,49.47489714403077,54.70460703051597,54.70460703051597,49.47489714403077,50.91253826160287,62.77655466091059,0,0,0,0,52,52,52,52,52,3.1622776601683795,6.324555320336759,8.366600265340756,10
16,4,0.26941829999123,p,46.2,Unlimited Time,e,55.00534941238638,52.550380553773145,49.73243400947822,46.177033309454416,46.177033309454416,49.73243400947822,52.550380553773145,55.00534941238638,0,0,0,0,52,52,52,52,52,3.1622776601683795,6.324555320336759,8.366600265340756,10
16,5,0.2994593999974313,w,55.7,Unlimited Time,e,50.9508467864264,55.67721455328497,50.45399367101552,49.06696875227899,49.06696875227899,50.45399367101552,55.67721455328497,50.9508467864264,0,0,0,0,52,52,52,52,52,3.1622776601683795,6.324555320336759,8.366600265340756,10
16,6,0.2961189999987255,q,45.7,Unlimited Time,e,45.73105509840383,46.656791282882466,53.39480495611765,49.35597417142012,49.35597417142012,53.39480495611765,46.656791282882466,45.73105509840383,0,0,0,0,52,52,52,52,52,3.1622776601683795,6.324555320336759,8.366600265340756,10
16,7,0.19485619999613846,w,55.1,Unlimited Time,e,65.83259581330975,55.090503023105946,47.7718410228644,47.62908628181191,47.62908628181191,47.7718410228644,55.090503023105946,65.83259581330975,0,0,0,0,52,52,52,52,52,3.1622776601683795,6.324555320336759,8.366600265340756,10
16,8,0.23851379999541678,w,56.3,Unlimited Time,e,64.91612950493214,56.33862036041965,56.45584398321652,49.38689807961125,49.38689807961125,56.45584398321652,56.33862036041965,64.91612950493214,0,0,0,0,52,52,52,52,52,3.1622776601683795,6.324555320336759,8.366600265340756,10
16,9,0.03155919999699108,w,46.2,Unlimited Time,e,29.937096055141907,46.169192308281126,58.14560538081329,54.19553785741969,54.19553785741969,58.14560538081329,46.169192308281126,29.937096055141907,0,0,0,0,52,52,52,52,52,3.1622776601683795,6.324555320336759,8.366600265340756,10
16,10,0.23030959999596234,o,37.8,Unlimited Time,e,64.55759964844412,62.88109721506649,37.83559568358946,46.91499981459723,46.91499981459723,37.83559568358946,62.88109721506649,64.55759964844412,0,0,0,0,52,52,52,52,52,3.1622776601683795,6.324555320336759,8.366600265340756,10
16,11,0.05945849999261554,p,49.3,Unlimited Time,e,32.83428189335724,35.950317949042486,45.82990639187359,49.33432405686331,49.33432405686331,45.82990639187359,35.950317949042486,32.83428189335724,0,0,0,0,52,52,52,52,52,3.1622776601683795,6.324555320336759,8.366600265340756,10
16,12,0.02790909999021096,p,47.0,Unlimited Time,e,40.23256290069945,61.28485536574577,58.64690748978791,46.984352223381244,46.984352223381244,58.64690748978791,61.28485536574577,40.23256290069945,0,0,0,0,52,52,52,52,52,3.1622776601683795,6.324555320336759,8.366600265340756,10
16,13,0.06482099999993807,p,52.2,Unlimited Time,e,65.3438320081622,54.23174034026164,62.7928277506732,52.17678542431918,52.17678542431918,62.7928277506732,54.23174034026164,65.3438320081622,0,0,0,0,52,52,52,52,52,3.1622776601683795,6.324555320336759,8.366600265340756,10
16,14,0.10477289999835193,w,50.6,Unlimited Time,e,48.00197430757411,50.61096089881966,52.645572172708185,52.51078935859185,52.51078935859185,52.645572172708185,50.61096089881966,48.00197430757411,0,0,0,0,52,52,52,52,52,3.1622776601683795,6.324555320336759,8.366600265340756,10
16,15,0.11750559999927646,p,57.7,Unlimited Time,e,51.04470012494899,53.87349118349394,55.33657400628186,57.6642364471647,57.6642364471647,55.33657400628186,53.87349118349394,51.04470012494899,0,0,0,0,52,52,52,52,52,3.1622776601683795,6.324555320336759,8.366600265340756,10
16,16,0.44647769998846343,w,57.2,Unlimited Time,e,67.78424969986227,57.17402670452939,54.98451571016285,59.06286849548244,59.06286849548244,54.98451571016285,57.17402670452939,67.78424969986227,0,0,0,0,52,52,52,52,52,3.1622776601683795,6.324555320336759,8.366600265340756,10
16,17,0.23460979999799747,q,67.2,Unlimited Time,e,67.24611888417554,48.91186418107408,56.842920387016136,51.985528921005596,51.985528921005596,56.842920387016136,48.91186418107408,67.24611888417554,0,0,0,0,52,52,52,52,52,3.1622776601683795,6.324555320336759,8.366600265340756,10
16,18,0.45160569999279687,q,42.0,Unlimited Time,e,41.99587406063348,56.4575382729048,57.838484344093985,56.350705530799,56.350705530799,57.838484344093985,56.4575382729048,41.99587406063348,0,0,0,0,52,52,52,52,52,3.1622776601683795,6.324555320336759,8.366600265340756,10
16,19,0.2926201999944169,q,45.9,Unlimited Time,e,45.8739592050787,47.53840000670666,48.076910090221006,51.375761526471216,51.375761526471216,48.076910090221006,47.53840000670666,45.8739592050787,0,0,0,0,52,52,52,52,52,3.1622776601683795,6.324555320336759,8.366600265340756,10
16,20,0.6223417999935918,w,39.9,Unlimited Time,e,53.38765970554975,39.90879468140083,48.45345124196392,55.5608976024095,55.5608976024095,48.45345124196392,39.90879468140083,53.38765970554975,0,0,0,0,52,52,52,52,52,3.1622776601683795,6.324555320336759,8.366600265340756,10
17,1,0.28999219999241177,q,53.0,Limited Time - 400ms,l,53.01296862522911,59.397685817564614,45.15983945474699,53.41854476727985,45.15983945474699,53.01296862522911,53.41854476727985,59.397685817564614,-10,-0.33,0.33,10,52,42,51.67,52.33,62,3.1622776601683795,3.1622776601683795,3.1622776601683795,3.1622776601683795
17,2,0.14190799999050796,w,64.5,Limited Time - 400ms,l,50.64892242130594,64.54120144064693,38.64077255877407,51.72528479807903,38.64077255877407,50.64892242130594,51.72528479807903,64.54120144064693,-10,-0.33,0.33,10,52,42,51.67,52.33,62,3.1622776601683795,3.1622776601683795,3.1622776601683795,3.1622776601683795
17,3,0.1634049999920535,o,43.3,Limited Time - 400ms,l,48.186186466630346,63.50646997505991,43.29258197169048,54.24588189848324,43.29258197169048,48.186186466630346,54.24588189848324,63.50646997505991,-10,-0.33,0.33,10,52,42,51.67,52.33,62,3.1622776601683795,3.1622776601683795,3.1622776601683795,3.1622776601683795
17,4,0.14337999999406748,w,62.1,Limited Time - 400ms,l,52.89689786181482,62.06524295106545,46.45247173783505,55.0792041395236,46.45247173783505,52.89689786181482,55.0792041395236,62.06524295106545,-10,-0.33,0.33,10,52,42,51.67,52.33,62,3.1622776601683795,3.1622776601683795,3.1622776601683795,3.1622776601683795
17,5,0.14716760000010254,w,60.8,Limited Time - 400ms,l,50.02219855462224,60.75018942709718,38.95755384810533,48.99056797530746,38.95755384810533,50.02219855462224,48.99056797530746,60.75018942709718,-10,-0.33,0.33,10,52,42,51.67,52.33,62,3.1622776601683795,3.1622776601683795,3.1622776601683795,3.1622776601683795
17,6,0.17718029999377904,w,58.7,Limited Time - 400ms,l,48.789745612238285,58.67727005124679,44.28633770984384,53.18301459114065,44.28633770984384,48.789745612238285,53.18301459114065,58.67727005124679,-10,-0.33,0.33,10,52,42,51.67,52.33,62,3.1622776601683795,3.1622776601683795,3.1622776601683795,3.1622776601683795
17,7,0.0620161999904667,w,62.4,Limited Time - 400ms,l,50.43520149089232,62.38638757765874,42.22167862962772,51.74813128379828,42.22167862962772,50.43520149089232,51.74813128379828,62.38638757765874,-10,-0.33,0.33,10,52,42,51.67,52.33,62,3.1622776601683795,3.1622776601683795,3.1622776601683795,3.1622776601683795
17,8,0.055325299996184185,w,68.2,Limited Time - 400ms,l,51.29404370596447,68.15430360620772,37.877280305262396,47.67103853296675,37.877280305262396,51.29404370596447,47.67103853296675,68.15430360620772,-10,-0.33,0.33,10,52,42,51.67,52.33,62,3.1622776601683795,3.1622776601683795,3.1622776601683795,3.1622776601683795
17,9,0.0858135999951628,w,57.3,Limited Time - 400ms,l,53.69983342960937,57.34462829478828,42.01124188925233,51.620810551496746,42.01124188925233,53.69983342960937,51.620810551496746,57.34462829478828,-10,-0.33,0.33,10,52,42,51.67,52.33,62,3.1622776601683795,3.1622776601683795,3.1622776601683795,3.1622776601683795
17,10,0.01973409999482101,w,61.7,Limited Time - 400ms,l,46.48794897020764,61.703384560553324,40.899496108787496,54.55307701299701,40.899496108787496,46.48794897020764,54.55307701299701,61.703384560553324,-10,-0.33,0.33,10,52,42,51.67,52.33,62,3.1622776601683795,3.1622776601683795,3.1622776601683795,3.1622776601683795
17,11,0.053893399992375635,w,61.1,Limited Time - 400ms,l,51.2938306974111,61.07654070076246,43.816964132674734,51.66183577792853,43.816964132674734,51.2938306974111,51.66183577792853,61.07654070076246,-10,-0.33,0.33,10,52,42,51.67,52.33,62,3.1622776601683795,3.1622776601683795,3.1622776601683795,3.1622776601683795
17,12,0.016969399992376566,w,63.1,Limited Time - 400ms,l,56.295226666355646,63.117309083230126,42.35566131570642,52.265138400903226,42.35566131570642,56.295226666355646,52.265138400903226,63.117309083230126,-10,-0.33,0.33,10,52,42,51.67,52.33,62,3.1622776601683795,3.1622776601683795,3.1622776601683795,3.1622776601683795
17,13,,,0.0,Limited Time - 400ms,l,53.40224884002603,62.07585094664576,40.36782142214849,53.514365017580275,40.36782142214849,53.40224884002603,53.514365017580275,62.07585094664576,-10,-0.33,0.33,10,52,42,51.67,52.33,62,3.1622776601683795,3.1622776601683795,3.1622776601683795,3.1622776601683795
17,14,0.03242869999667164,w,59.1,Limited Time - 400ms,l,54.028350499439654,59.14709043647007,36.30728964182959,55.369974824814115,36.30728964182959,54.028350499439654,55.369974824814115,59.14709043647007,-10,-0.33,0.33,10,52,42,51.67,52.33,62,3.1622776601683795,3.1622776601683795,3.1622776601683795,3.1622776601683795
17,15,0.16253999999753432,w,64.9,Limited Time - 400ms,l,49.98047922731524,64.89235864926998,38.49361721932735,54.50265786218463,38.49361721932735,49.98047922731524,54.50265786218463,64.89235864926998,-10,-0.33,0.33,10,52,42,51.67,52.33,62,3.1622776601683795,3.1622776601683795,3.1622776601683795,3.1622776601683795
17,16,0.28717469998809975,w,53.8,Limited Time - 400ms,l,50.332045219911485,53.75597549733657,32.240392066374575,53.40470058370584,32.240392066374575,50.332045219911485,53.40470058370584,53.75597549733657,-10,-0.33,0.33,10,52,42,51.67,52.33,62,3.1622776601683795,3.1622776601683795,3.1622776601683795,3.1622776601683795
17,17,0.09150769999541808,w,66.3,Limited Time - 400ms,l,48.080479055936514,66.26880699777406,39.39465551427587,52.099974492261396,39.39465551427587,48.080479055936514,52.099974492261396,66.26880699777406,-10,-0.33,0.33,10,52,42,51.67,52.33,62,3.1622776601683795,3.1622776601683795,3.1622776601683795,3.1622776601683795
17,18,0.0930478999944171,w,61.7,Limited Time - 400ms,l,46.746175770042626,61.67379879596722,43.5688697945178,54.02130801224784,43.5688697945178,46.746175770042626,54.02130801224784,61.67379879596722,-10,-0.33,0.33,10,52,42,51.67,52.33,62,3.1622776601683795,3.1622776601683795,3.1622776601683795,3.1622776601683795
17,19,,,0.0,Limited Time - 400ms,l,55.27496490122297,62.47334820039176,46.00216024707157,49.09023887855755,46.00216024707157,55.27496490122297,49.09023887855755,62.47334820039176,-10,-0.33,0.33,10,52,42,51.67,52.33,62,3.1622776601683795,3.1622776601683795,3.1622776601683795,3.1622776601683795
17,20,0.1397891999949934,w,64.6,Limited Time - 400ms,l,52.53411040756318,64.63148869861807,44.10551119450935,51.20621956477666,44.10551119450935,52.53411040756318,51.20621956477666,64.63148869861807,-10,-0.33,0.33,10,52,42,51.67,52.33,62,3.1622776601683795,3.1622776601683795,3.1622776601683795,3.1622776601683795
18,1,0.3510102999935043,q,44.3,Limited Time - 800ms,h,44.30784501345437,69.31079965091112,48.39003971387718,43.04129532023708,43.04129532023708,48.39003971387718,44.30784501345437,69.31079965091112,-10,-0.33,0.33,10,52,42,51.67,52.33,62,10,10,10,10
18,2,0.23637559999042423,w,62.8,Limited Time - 800ms,h,58.8671870703494,62.7796147016989,67.30914701912188,29.596733407757178,29.596733407757178,67.30914701912188,58.8671870703494,62.7796147016989,-10,-0.33,0.33,10,52,42,51.67,52.33,62,10,10,10,10
18,3,0.21250429999054177,o,50.2,Limited Time - 800ms,h,52.53640150530613,56.672430108687806,50.1629223756733,50.467801436092515,50.467801436092515,50.1629223756733,52.53640150530613,56.672430108687806,-10,-0.33,0.33,10,52,42,51.67,52.33,62,10,10,10,10
18,4,0.10771559999557212,p,52.0,Limited Time - 800ms,h,42.99134952366035,52.5580271677072,50.538709022055265,52.038651566092405,52.038651566092405,50.538709022055265,42.99134952366035,52.5580271677072,-10,-0.33,0.33,10,52,42,51.67,52.33,62,10,10,10,10
18,5,0.18180919999576872,w,65.4,Limited Time - 800ms,h,50.001562964560705,65.40312406714803,49.29595250707821,47.695385868818676,47.695385868818676,49.29595250707821,50.001562964560705,65.40312406714803,-10,-0.33,0.33,10,52,42,51.67,52.33,62,10,10,10,10
18,6,0.17837959999451414,w,56.9,Limited Time - 800ms,h,47.07825711625872,56.9463654245112,44.32212041376222,40.161492893940846,40.161492893940846,44.32212041376222,47.07825711625872,56.9463654245112,-10,-0.33,0.33,10,52,42,51.67,52.33,62,10,10,10,10
18,7,0.04780909998953575,w,72.4,Limited Time - 800ms,h,59.31583945249327,72.35639604272716,48.84936988994603,41.62956030543107,41.62956030543107,48.84936988994603,59.31583945249327,72.35639604272716,-10,-0.33,0.33,10,52,42,51.67,52.33,62,10,10,10,10
18,8,0.15482659998815507,w,43.8,Limited Time - 800ms,h,78.142486330157,43.76552367338636,54.14781763086509,41.64108259877111,41.64108259877111,54.14781763086509,78.142486330157,43.76552367338636,-10,-0.33,0.33,10,52,42,51.67,52.33,62,10,10,10,10
18,9,0.2065085999929579,w,39.9,Limited Time - 800ms,h,53.382156110495714,39.91141035374017,47.94656937768172,48.2674750891531,48.2674750891531,47.94656937768172,53.382156110495714,39.91141035374017,-10,-0.33,0.33,10,52,42,51.67,52.33,62,10,10,10,10
18,10,0.024435299994365778,q,47.6,Limited Time - 800ms,h,47.56980346844587,68.33772584757693,74.28273059128861,41.68976999722421,41.68976999722421,74.28273059128861,47.56980346844587,68.33772584757693,-10,-0.33,0.33,10,52,42,51.67,52.33,62,10,10,10,10
18,11,0.16000959999655606,w,80.6,Limited Time - 800ms,h,40.703205396206016,80.55234116522087,47.21074857692442,54.892024149580195,54.892024149580195,47.21074857692442,40.703205396206016,80.55234116522087,-10,-0.33,0.33,10,52,42,51.67,52.33,62,10,10,10,10
18,12,0.06062049999309238,w,77.7,Limited Time - 800ms,h,46.214544557537565,77.67342796750887,51.4571984046295,41.84105400338236,41.84105400338236,51.4571984046295,46.214544557537565,77.67342796750887,-10,-0.33,0.33,10,52,42,51.67,52.33,62,10,10,10,10
18,13,0.09661539999069646,w,53.3,Limited Time - 800ms,h,62.12080255574051,53.32796722243322,53.01594392146162,44.16539366869328,44.16539366869328,53.01594392146162,62.12080255574051,53.32796722243322,-10,-0.33,0.33,10,52,42,51.67,52.33,62,10,10,10,10
18,14,0.08443229999829782,w,71.2,Limited Time - 800ms,h,48.06534973659409,71.20887159306706,47.948246614240055,60.83658915611834,60.83658915611834,47.948246614240055,48.06534973659409,71.20887159306706,-10,-0.33,0.33,10,52,42,51.67,52.33,62,10,10,10,10
18,15,0.02755109999270644,w,68.5,Limited Time - 800ms,h,43.4268251614808,68.48745893804904,55.784789084902194,54.98037361507123,54.98037361507123,55.784789084902194,43.4268251614808,68.48745893804904,-10,-0.33,0.33,10,52,42,51.67,52.33,62,10,10,10,10
18,16,0.0384626999948523,w,61.3,Limited Time - 800ms,h,56.46141355798846,61.312682240621726,54.90687449298239,30.039408024778776,30.039408024778776,54.90687449298239,56.46141355798846,61.312682240621726,-10,-0.33,0.33,10,52,42,51.67,52.33,62,10,10,10,10
18,17,0.11164119999739341,w,59.3,Limited Time - 800ms,h,33.78184904421043,59.26289002159923,52.310914967136235,42.21040153640721,42.21040153640721,52.310914967136235,33.78184904421043,59.26289002159923,-10,-0.33,0.33,10,52,42,51.67,52.33,62,10,10,10,10
18,18,0.016790499998023733,w,65.3,Limited Time - 800ms,h,57.43045501423769,65.27513823132165,69.03592168041496,38.524399429797384,38.524399429797384,69.03592168041496,57.43045501423769,65.27513823132165,-10,-0.33,0.33,10,52,42,51.67,52.33,62,10,10,10,10
18,19,0.005602399993222207,w,59.1,Limited Time - 800ms,h,48.39100439339076,59.114714221840615,66.14478028128913,51.01798338583039,51.01798338583039,66.14478028128913,48.39100439339076,59.114714221840615,-10,-0.33,0.33,10,52,42,51.67,52.33,62,10,10,10,10
