Round Number,Trial Number,Reaction Time,Choice,Reward (Health Points),Time Condition,Payoff Condition,Q mapped,W mapped,O mapped,P mapped,One value,Two value,Three value,Four value,One mean,Two mean,Three mean,Four mean,Mean Shift,One shifted mean,Two shifted mean,Three shifted mean,Four shifted mean,One SD,Two SD,Three SD,Four SD
1,1,1.0602321999613196,w,41.0,Unlimited Time,i,17.817346588458676,41.02641729435145,29.5920985716663,34.471189378372515,17.817346588458676,34.471189378372515,41.02641729435145,29.5920985716663,-10,-10,10,10,32,22,22,42,42,3.1622776601683795,10,3.1622776601683795,10
1,2,0.1345069999806583,q,25.6,Unlimited Time,i,25.55844827478419,41.503893561649356,54.32682525450585,14.310323813548727,25.55844827478419,14.310323813548727,41.503893561649356,54.32682525450585,-10,-10,10,10,32,22,22,42,42,3.1622776601683795,10,3.1622776601683795,10
1,3,0.6499453000142239,o,39.4,Unlimited Time,i,24.698802181651025,40.30808229806566,39.4471954930433,23.197490657669267,24.698802181651025,23.197490657669267,40.30808229806566,39.4471954930433,-10,-10,10,10,32,22,22,42,42,3.1622776601683795,10,3.1622776601683795,10
1,4,0.5945722999749705,p,23.6,Unlimited Time,i,18.51663809558327,43.45432068871973,40.81469425110917,23.61236516829439,18.51663809558327,23.61236516829439,43.45432068871973,40.81469425110917,-10,-10,10,10,32,22,22,42,42,3.1622776601683795,10,3.1622776601683795,10
1,5,0.30046559998299927,w,41.6,Unlimited Time,i,21.40201414416905,41.63390748606029,62.889227444438376,11.922085589912745,21.40201414416905,11.922085589912745,41.63390748606029,62.889227444438376,-10,-10,10,10,32,22,22,42,42,3.1622776601683795,10,3.1622776601683795,10
1,6,0.3061175999464467,w,42.7,Unlimited Time,i,18.125708366738998,42.72053234125234,44.080453385314804,29.308894617008335,18.125708366738998,29.308894617008335,42.72053234125234,44.080453385314804,-10,-10,10,10,32,22,22,42,42,3.1622776601683795,10,3.1622776601683795,10
1,7,0.06550239998614416,w,42.0,Unlimited Time,i,21.715706195350055,42.04996846246175,45.40196925116571,15.998581451750661,21.715706195350055,15.998581451750661,42.04996846246175,45.40196925116571,-10,-10,10,10,32,22,22,42,42,3.1622776601683795,10,3.1622776601683795,10
1,8,0.20385950000490993,w,43.8,Unlimited Time,i,25.818918119881594,43.750822368799405,49.432556721776436,24.270336945380222,25.818918119881594,24.270336945380222,43.750822368799405,49.432556721776436,-10,-10,10,10,32,22,22,42,42,3.1622776601683795,10,3.1622776601683795,10
1,9,0.07277209998574108,w,37.7,Unlimited Time,i,21.57696932767378,37.65370812132039,48.361862858737,0.7168664896652643,21.57696932767378,0.7168664896652643,37.65370812132039,48.361862858737,-10,-10,10,10,32,22,22,42,42,3.1622776601683795,10,3.1622776601683795,10
1,10,0.16848460002802312,q,17.4,Unlimited Time,i,17.406587102646387,40.41931996122432,55.49393683762548,15.857436264797887,17.406587102646387,15.857436264797887,40.41931996122432,55.49393683762548,-10,-10,10,10,32,22,22,42,42,3.1622776601683795,10,3.1622776601683795,10
1,11,0.06975249998504296,w,43.5,Unlimited Time,i,26.325669532553555,43.514674892619496,45.694443926491594,2.5835061191968656,26.325669532553555,2.5835061191968656,43.514674892619496,45.694443926491594,-10,-10,10,10,32,22,22,42,42,3.1622776601683795,10,3.1622776601683795,10
1,12,0.1516659000189975,w,39.3,Unlimited Time,i,26.07354004726632,39.259840359773584,43.19203392591505,26.691030060506126,26.07354004726632,26.691030060506126,39.259840359773584,43.19203392591505,-10,-10,10,10,32,22,22,42,42,3.1622776601683795,10,3.1622776601683795,10
1,13,0.2267299999948591,w,47.5,Unlimited Time,i,23.737374982399878,47.51490098230233,40.9815198662818,8.600980703846355,23.737374982399878,8.600980703846355,47.51490098230233,40.9815198662818,-10,-10,10,10,32,22,22,42,42,3.1622776601683795,10,3.1622776601683795,10
1,14,0.2437525999848731,w,42.9,Unlimited Time,i,23.495850843997474,42.87964912381242,37.393250932260884,17.072157437942053,23.495850843997474,17.072157437942053,42.87964912381242,37.393250932260884,-10,-10,10,10,32,22,22,42,42,3.1622776601683795,10,3.1622776601683795,10
1,15,0.22745730000315234,w,41.9,Unlimited Time,i,20.008756105774243,41.853015801014934,43.63491493140083,13.425480245083497,20.008756105774243,13.425480245083497,41.853015801014934,43.63491493140083,-10,-10,10,10,32,22,22,42,42,3.1622776601683795,10,3.1622776601683795,10
1,16,0.3364014000399038,o,45.5,Unlimited Time,i,24.458310976133312,42.23134941188396,45.4507506836843,12.55114577478902,24.458310976133312,12.55114577478902,42.23134941188396,45.4507506836843,-10,-10,10,10,32,22,22,42,42,3.1622776601683795,10,3.1622776601683795,10
1,17,0.3605460000107996,p,12.9,Unlimited Time,i,25.5488899357904,43.59765917513742,38.55595612757844,12.876966707928679,25.5488899357904,12.876966707928679,43.59765917513742,38.55595612757844,-10,-10,10,10,32,22,22,42,42,3.1622776601683795,10,3.1622776601683795,10
1,18,0.1223249000031501,w,37.4,Unlimited Time,i,23.429604601437347,37.41930917807444,37.783919309016134,24.069344455120348,23.429604601437347,24.069344455120348,37.41930917807444,37.783919309016134,-10,-10,10,10,32,22,22,42,42,3.1622776601683795,10,3.1622776601683795,10
1,19,0.041209899995010346,o,50.6,Unlimited Time,i,28.198649351979924,45.69151422549697,50.57233554022292,23.078219274601047,28.198649351979924,23.078219274601047,45.69151422549697,50.57233554022292,-10,-10,10,10,32,22,22,42,42,3.1622776601683795,10,3.1622776601683795,10
1,20,0.10118190001230687,o,26.3,Unlimited Time,i,13.163979894085935,41.4892559621125,26.284385189690326,20.093652641155177,13.163979894085935,20.093652641155177,41.4892559621125,26.284385189690326,-10,-10,10,10,32,22,22,42,42,3.1622776601683795,10,3.1622776601683795,10
2,1,0.17683349997969344,w,34.5,Limited Time - 400ms,i,41.02641729435145,34.471189378372515,29.5920985716663,17.817346588458676,17.817346588458676,34.471189378372515,41.02641729435145,29.5920985716663,-10,-10,10,10,32,22,22,42,42,3.1622776601683795,10,3.1622776601683795,10
2,2,0.2686185000347905,w,14.3,Limited Time - 400ms,i,41.503893561649356,14.310323813548727,54.32682525450585,25.55844827478419,25.55844827478419,14.310323813548727,41.503893561649356,54.32682525450585,-10,-10,10,10,32,22,22,42,42,3.1622776601683795,10,3.1622776601683795,10
2,3,0.09846799995284528,w,23.2,Limited Time - 400ms,i,40.30808229806566,23.197490657669267,39.4471954930433,24.698802181651025,24.698802181651025,23.197490657669267,40.30808229806566,39.4471954930433,-10,-10,10,10,32,22,22,42,42,3.1622776601683795,10,3.1622776601683795,10
2,4,0.2646758999908343,p,18.5,Limited Time - 400ms,i,43.45432068871973,23.61236516829439,40.81469425110917,18.51663809558327,18.51663809558327,23.61236516829439,43.45432068871973,40.81469425110917,-10,-10,10,10,32,22,22,42,42,3.1622776601683795,10,3.1622776601683795,10
2,5,0.081636399962008,p,21.4,Limited Time - 400ms,i,41.63390748606029,11.922085589912745,62.889227444438376,21.40201414416905,21.40201414416905,11.922085589912745,41.63390748606029,62.889227444438376,-10,-10,10,10,32,22,22,42,42,3.1622776601683795,10,3.1622776601683795,10
2,6,0.1191158999572508,p,18.1,Limited Time - 400ms,i,42.72053234125234,29.308894617008335,44.080453385314804,18.125708366738998,18.125708366738998,29.308894617008335,42.72053234125234,44.080453385314804,-10,-10,10,10,32,22,22,42,42,3.1622776601683795,10,3.1622776601683795,10
2,7,0.12784249999094754,o,45.4,Limited Time - 400ms,i,42.04996846246175,15.998581451750661,45.40196925116571,21.715706195350055,21.715706195350055,15.998581451750661,42.04996846246175,45.40196925116571,-10,-10,10,10,32,22,22,42,42,3.1622776601683795,10,3.1622776601683795,10
2,8,0.011487699986901134,w,24.3,Limited Time - 400ms,i,43.750822368799405,24.270336945380222,49.432556721776436,25.818918119881594,25.818918119881594,24.270336945380222,43.750822368799405,49.432556721776436,-10,-10,10,10,32,22,22,42,42,3.1622776601683795,10,3.1622776601683795,10
2,9,0.07723409996833652,w,0.7,Limited Time - 400ms,i,37.65370812132039,0.7168664896652643,48.361862858737,21.57696932767378,21.57696932767378,0.7168664896652643,37.65370812132039,48.361862858737,-10,-10,10,10,32,22,22,42,42,3.1622776601683795,10,3.1622776601683795,10
2,10,0.05521819996647537,w,15.9,Limited Time - 400ms,i,40.41931996122432,15.857436264797887,55.49393683762548,17.406587102646387,17.406587102646387,15.857436264797887,40.41931996122432,55.49393683762548,-10,-10,10,10,32,22,22,42,42,3.1622776601683795,10,3.1622776601683795,10
2,11,0.21951679995981976,q,43.5,Limited Time - 400ms,i,43.514674892619496,2.5835061191968656,45.694443926491594,26.325669532553555,26.325669532553555,2.5835061191968656,43.514674892619496,45.694443926491594,-10,-10,10,10,32,22,22,42,42,3.1622776601683795,10,3.1622776601683795,10
2,12,0.10497889999533072,w,26.7,Limited Time - 400ms,i,39.259840359773584,26.691030060506126,43.19203392591505,26.07354004726632,26.07354004726632,26.691030060506126,39.259840359773584,43.19203392591505,-10,-10,10,10,32,22,22,42,42,3.1622776601683795,10,3.1622776601683795,10
2,13,0.06843129999469966,w,8.6,Limited Time - 400ms,i,47.51490098230233,8.600980703846355,40.9815198662818,23.737374982399878,23.737374982399878,8.600980703846355,47.51490098230233,40.9815198662818,-10,-10,10,10,32,22,22,42,42,3.1622776601683795,10,3.1622776601683795,10
2,14,0.10415309999370947,o,37.4,Limited Time - 400ms,i,42.87964912381242,17.072157437942053,37.393250932260884,23.495850843997474,23.495850843997474,17.072157437942053,42.87964912381242,37.393250932260884,-10,-10,10,10,32,22,22,42,42,3.1622776601683795,10,3.1622776601683795,10
2,15,0.14917180000338703,p,20.0,Limited Time - 400ms,i,41.853015801014934,13.425480245083497,43.63491493140083,20.008756105774243,20.008756105774243,13.425480245083497,41.853015801014934,43.63491493140083,-10,-10,10,10,32,22,22,42,42,3.1622776601683795,10,3.1622776601683795,10
2,16,0.03519349999260157,p,24.5,Limited Time - 400ms,i,42.23134941188396,12.55114577478902,45.4507506836843,24.458310976133312,24.458310976133312,12.55114577478902,42.23134941188396,45.4507506836843,-10,-10,10,10,32,22,22,42,42,3.1622776601683795,10,3.1622776601683795,10
2,17,0.04546779999509454,o,38.6,Limited Time - 400ms,i,43.59765917513742,12.876966707928679,38.55595612757844,25.5488899357904,25.5488899357904,12.876966707928679,43.59765917513742,38.55595612757844,-10,-10,10,10,32,22,22,42,42,3.1622776601683795,10,3.1622776601683795,10
2,18,0.07974180002929643,q,37.4,Limited Time - 400ms,i,37.41930917807444,24.069344455120348,37.783919309016134,23.429604601437347,23.429604601437347,24.069344455120348,37.41930917807444,37.783919309016134,-10,-10,10,10,32,22,22,42,42,3.1622776601683795,10,3.1622776601683795,10
2,19,0.10568539996165782,w,23.1,Limited Time - 400ms,i,45.69151422549697,23.078219274601047,50.57233554022292,28.198649351979924,28.198649351979924,23.078219274601047,45.69151422549697,50.57233554022292,-10,-10,10,10,32,22,22,42,42,3.1622776601683795,10,3.1622776601683795,10
2,20,0.11856299999635667,w,20.1,Limited Time - 400ms,i,41.4892559621125,20.093652641155177,26.284385189690326,13.163979894085935,13.163979894085935,20.093652641155177,41.4892559621125,26.284385189690326,-10,-10,10,10,32,22,22,42,42,3.1622776601683795,10,3.1622776601683795,10
3,1,0.27880079997703433,w,27.2,Limited Time - 800ms,l,40.96926314559595,27.15167253464084,31.842078936014165,20.12936946897718,20.12936946897718,27.15167253464084,31.842078936014165,40.96926314559595,-10,-0.33,0.33,10,32,22,31.67,32.33,42,3.1622776601683795,3.1622776601683795,3.1622776601683795,3.1622776601683795
3,2,0.48282239999389276,q,47.1,Limited Time - 800ms,l,47.06175827428266,31.442143486869636,30.642297624450794,19.692654424116395,19.692654424116395,31.442143486869636,30.642297624450794,47.06175827428266,-10,-0.33,0.33,10,32,22,31.67,32.33,42,3.1622776601683795,3.1622776601683795,3.1622776601683795,3.1622776601683795
3,3,0.3330339000094682,w,31.8,Limited Time - 800ms,l,42.14933122576187,31.81792474784392,37.19139733900977,25.808722081966696,25.808722081966696,31.81792474784392,37.19139733900977,42.14933122576187,-10,-0.33,0.33,10,32,22,31.67,32.33,42,3.1622776601683795,3.1622776601683795,3.1622776601683795,3.1622776601683795
3,4,0.15879640000639483,q,38.6,Limited Time - 800ms,l,38.62998865062274,31.367287018829543,39.437983992402344,19.110313650835277,19.110313650835277,31.367287018829543,39.437983992402344,38.62998865062274,-10,-0.33,0.33,10,32,22,31.67,32.33,42,3.1622776601683795,3.1622776601683795,3.1622776601683795,3.1622776601683795
3,5,0.18613859999459237,w,31.2,Limited Time - 800ms,l,43.55148767021989,31.242502566221322,30.977043421797916,23.239362074927875,23.239362074927875,31.242502566221322,30.977043421797916,43.55148767021989,-10,-0.33,0.33,10,32,22,31.67,32.33,42,3.1622776601683795,3.1622776601683795,3.1622776601683795,3.1622776601683795
3,6,0.33316659997217357,o,30.7,Limited Time - 800ms,l,48.73972771895741,28.55986454261333,30.686585673733813,19.572046041855266,19.572046041855266,28.55986454261333,30.686585673733813,48.73972771895741,-10,-0.33,0.33,10,32,22,31.67,32.33,42,3.1622776601683795,3.1622776601683795,3.1622776601683795,3.1622776601683795
3,7,0.04274840001016855,p,30.3,Limited Time - 800ms,l,39.63628320031411,36.13479593310244,30.177850187241525,30.31894814966416,30.31894814966416,36.13479593310244,30.177850187241525,39.63628320031411,-10,-0.33,0.33,10,32,22,31.67,32.33,42,3.1622776601683795,3.1622776601683795,3.1622776601683795,3.1622776601683795
3,8,0.14995039999485016,o,27.6,Limited Time - 800ms,l,46.35626800358972,36.107994056453016,27.575318894753316,19.31993996025526,19.31993996025526,36.107994056453016,27.575318894753316,46.35626800358972,-10,-0.33,0.33,10,32,22,31.67,32.33,42,3.1622776601683795,3.1622776601683795,3.1622776601683795,3.1622776601683795
3,9,0.07995870005106553,o,36.6,Limited Time - 800ms,l,43.58975379375641,31.533790469135287,36.58922144079768,21.0505239506921,21.0505239506921,31.533790469135287,36.58922144079768,43.58975379375641,-10,-0.33,0.33,10,32,22,31.67,32.33,42,3.1622776601683795,3.1622776601683795,3.1622776601683795,3.1622776601683795
3,10,0.18896360002690926,w,35.8,Limited Time - 800ms,l,40.96618970422933,35.78761299668815,30.616181445385685,21.107653514224875,21.107653514224875,35.78761299668815,30.616181445385685,40.96618970422933,-10,-0.33,0.33,10,32,22,31.67,32.33,42,3.1622776601683795,3.1622776601683795,3.1622776601683795,3.1622776601683795
3,11,0.21084109996445477,q,38.5,Limited Time - 800ms,l,38.455031289550284,33.51089612248001,27.32370586053133,21.437793484872024,21.437793484872024,33.51089612248001,27.32370586053133,38.455031289550284,-10,-0.33,0.33,10,32,22,31.67,32.33,42,3.1622776601683795,3.1622776601683795,3.1622776601683795,3.1622776601683795
3,12,0.029262900003232062,w,30.0,Limited Time - 800ms,l,38.32369091736818,30.00593343682619,33.19936500083936,19.38771226393914,19.38771226393914,30.00593343682619,33.19936500083936,38.32369091736818,-10,-0.33,0.33,10,32,22,31.67,32.33,42,3.1622776601683795,3.1622776601683795,3.1622776601683795,3.1622776601683795
3,13,0.05207869998412207,w,33.0,Limited Time - 800ms,l,41.54584977983197,32.993189639615444,33.509029839628454,20.385655718783934,20.385655718783934,32.993189639615444,33.509029839628454,41.54584977983197,-10,-0.33,0.33,10,32,22,31.67,32.33,42,3.1622776601683795,3.1622776601683795,3.1622776601683795,3.1622776601683795
3,14,0.15022419998422265,q,42.6,Limited Time - 800ms,l,42.57700299519398,29.897879010304734,33.76992930677969,26.300280528724606,26.300280528724606,29.897879010304734,33.76992930677969,42.57700299519398,-10,-0.33,0.33,10,32,22,31.67,32.33,42,3.1622776601683795,3.1622776601683795,3.1622776601683795,3.1622776601683795
3,15,0.3001325999503024,q,44.9,Limited Time - 800ms,l,44.90596306187662,24.80556901847678,34.70027861785811,15.073871977915292,15.073871977915292,24.80556901847678,34.70027861785811,44.90596306187662,-10,-0.33,0.33,10,32,22,31.67,32.33,42,3.1622776601683795,3.1622776601683795,3.1622776601683795,3.1622776601683795
3,16,0.48915540002053604,q,42.2,Limited Time - 800ms,l,42.19743700589659,32.58420627082747,36.101646032821215,23.79042922001977,23.79042922001977,32.58420627082747,36.101646032821215,42.19743700589659,-10,-0.33,0.33,10,32,22,31.67,32.33,42,3.1622776601683795,3.1622776601683795,3.1622776601683795,3.1622776601683795
3,17,0.044727600004989654,q,40.8,Limited Time - 800ms,l,40.83783726287945,35.40262744921186,30.047147076304473,21.705921148748946,21.705921148748946,35.40262744921186,30.047147076304473,40.83783726287945,-10,-0.33,0.33,10,32,22,31.67,32.33,42,3.1622776601683795,3.1622776601683795,3.1622776601683795,3.1622776601683795
3,18,0.3043240999686532,o,30.2,Limited Time - 800ms,l,42.11490793803244,34.41048890585922,30.203546828572012,20.079013108243085,20.079013108243085,34.41048890585922,30.203546828572012,42.11490793803244,-10,-0.33,0.33,10,32,22,31.67,32.33,42,3.1622776601683795,3.1622776601683795,3.1622776601683795,3.1622776601683795
3,19,0.32665350002935156,q,36.9,Limited Time - 800ms,l,36.89406247032996,34.42050929586463,34.59500418670153,21.739579938456515,21.739579938456515,34.42050929586463,34.59500418670153,36.89406247032996,-10,-0.33,0.33,10,32,22,31.67,32.33,42,3.1622776601683795,3.1622776601683795,3.1622776601683795,3.1622776601683795
3,20,0.20655399997485802,p,18.8,Limited Time - 800ms,l,43.729477680356474,30.787654549169627,34.8079211761969,18.791321038793633,18.791321038793633,30.787654549169627,34.8079211761969,43.729477680356474,-10,-0.33,0.33,10,32,22,31.67,32.33,42,3.1622776601683795,3.1622776601683795,3.1622776601683795,3.1622776601683795
4,1,0.17574790003709495,w,29.6,Unlimited Time,i,34.471189378372515,29.5920985716663,41.02641729435145,17.817346588458676,17.817346588458676,34.471189378372515,41.02641729435145,29.5920985716663,-10,-10,10,10,32,22,22,42,42,3.1622776601683795,10,3.1622776601683795,10
4,2,0.010562600044067949,q,14.3,Unlimited Time,i,14.310323813548727,54.32682525450585,41.503893561649356,25.55844827478419,25.55844827478419,14.310323813548727,41.503893561649356,54.32682525450585,-10,-10,10,10,32,22,22,42,42,3.1622776601683795,10,3.1622776601683795,10
4,3,0.1756601999513805,q,23.2,Unlimited Time,i,23.197490657669267,39.4471954930433,40.30808229806566,24.698802181651025,24.698802181651025,23.197490657669267,40.30808229806566,39.4471954930433,-10,-10,10,10,32,22,22,42,42,3.1622776601683795,10,3.1622776601683795,10
4,4,0.23124280001502484,w,40.8,Unlimited Time,i,23.61236516829439,40.81469425110917,43.45432068871973,18.51663809558327,18.51663809558327,23.61236516829439,43.45432068871973,40.81469425110917,-10,-10,10,10,32,22,22,42,42,3.1622776601683795,10,3.1622776601683795,10
4,5,0.028041600016877055,o,41.6,Unlimited Time,i,11.922085589912745,62.889227444438376,41.63390748606029,21.40201414416905,21.40201414416905,11.922085589912745,41.63390748606029,62.889227444438376,-10,-10,10,10,32,22,22,42,42,3.1622776601683795,10,3.1622776601683795,10
4,6,0.10456919996067882,p,18.1,Unlimited Time,i,29.308894617008335,44.080453385314804,42.72053234125234,18.125708366738998,18.125708366738998,29.308894617008335,42.72053234125234,44.080453385314804,-10,-10,10,10,32,22,22,42,42,3.1622776601683795,10,3.1622776601683795,10
4,7,0.005360600014682859,p,21.7,Unlimited Time,i,15.998581451750661,45.40196925116571,42.04996846246175,21.715706195350055,21.715706195350055,15.998581451750661,42.04996846246175,45.40196925116571,-10,-10,10,10,32,22,22,42,42,3.1622776601683795,10,3.1622776601683795,10
4,8,0.11442419997183606,w,49.4,Unlimited Time,i,24.270336945380222,49.432556721776436,43.750822368799405,25.818918119881594,25.818918119881594,24.270336945380222,43.750822368799405,49.432556721776436,-10,-10,10,10,32,22,22,42,42,3.1622776601683795,10,3.1622776601683795,10
4,9,0.08814220002386719,w,48.4,Unlimited Time,i,0.7168664896652643,48.361862858737,37.65370812132039,21.57696932767378,21.57696932767378,0.7168664896652643,37.65370812132039,48.361862858737,-10,-10,10,10,32,22,22,42,42,3.1622776601683795,10,3.1622776601683795,10
4,10,0.004548800003249198,w,55.5,Unlimited Time,i,15.857436264797887,55.49393683762548,40.41931996122432,17.406587102646387,17.406587102646387,15.857436264797887,40.41931996122432,55.49393683762548,-10,-10,10,10,32,22,22,42,42,3.1622776601683795,10,3.1622776601683795,10
4,11,0.10462959995493293,o,43.5,Unlimited Time,i,2.5835061191968656,45.694443926491594,43.514674892619496,26.325669532553555,26.325669532553555,2.5835061191968656,43.514674892619496,45.694443926491594,-10,-10,10,10,32,22,22,42,42,3.1622776601683795,10,3.1622776601683795,10
4,12,0.13232860004063696,w,43.2,Unlimited Time,i,26.691030060506126,43.19203392591505,39.259840359773584,26.07354004726632,26.07354004726632,26.691030060506126,39.259840359773584,43.19203392591505,-10,-10,10,10,32,22,22,42,42,3.1622776601683795,10,3.1622776601683795,10
4,13,0.007976200024131685,w,41.0,Unlimited Time,i,8.600980703846355,40.9815198662818,47.51490098230233,23.737374982399878,23.737374982399878,8.600980703846355,47.51490098230233,40.9815198662818,-10,-10,10,10,32,22,22,42,42,3.1622776601683795,10,3.1622776601683795,10
4,14,0.09465689997887239,o,42.9,Unlimited Time,i,17.072157437942053,37.393250932260884,42.87964912381242,23.495850843997474,23.495850843997474,17.072157437942053,42.87964912381242,37.393250932260884,-10,-10,10,10,32,22,22,42,42,3.1622776601683795,10,3.1622776601683795,10
4,15,0.13876110001001507,o,41.9,Unlimited Time,i,13.425480245083497,43.63491493140083,41.853015801014934,20.008756105774243,20.008756105774243,13.425480245083497,41.853015801014934,43.63491493140083,-10,-10,10,10,32,22,22,42,42,3.1622776601683795,10,3.1622776601683795,10
4,16,0.08339179999893531,o,42.2,Unlimited Time,i,12.55114577478902,45.4507506836843,42.23134941188396,24.458310976133312,24.458310976133312,12.55114577478902,42.23134941188396,45.4507506836843,-10,-10,10,10,32,22,22,42,42,3.1622776601683795,10,3.1622776601683795,10
4,17,0.036166500009130687,o,43.6,Unlimited Time,i,12.876966707928679,38.55595612757844,43.59765917513742,25.5488899357904,25.5488899357904,12.876966707928679,43.59765917513742,38.55595612757844,-10,-10,10,10,32,22,22,42,42,3.1622776601683795,10,3.1622776601683795,10
4,18,0.05313499999465421,o,37.4,Unlimited Time,i,24.069344455120348,37.783919309016134,37.41930917807444,23.429604601437347,23.429604601437347,24.069344455120348,37.41930917807444,37.783919309016134,-10,-10,10,10,32,22,22,42,42,3.1622776601683795,10,3.1622776601683795,10
4,19,0.0940048000193201,o,45.7,Unlimited Time,i,23.078219274601047,50.57233554022292,45.69151422549697,28.198649351979924,28.198649351979924,23.078219274601047,45.69151422549697,50.57233554022292,-10,-10,10,10,32,22,22,42,42,3.1622776601683795,10,3.1622776601683795,10
4,20,0.029308500001206994,w,26.3,Unlimited Time,i,20.093652641155177,26.284385189690326,41.4892559621125,13.163979894085935,13.163979894085935,20.093652641155177,41.4892559621125,26.284385189690326,-10,-10,10,10,32,22,22,42,42,3.1622776601683795,10,3.1622776601683795,10
5,1,0.2685802000341937,o,54.5,Limited Time - 400ms,h,46.41183456329426,32.71750757525165,54.503833447335204,23.358018799787764,23.358018799787764,32.71750757525165,46.41183456329426,54.503833447335204,-10,-0.33,0.33,10,32,22,31.67,32.33,42,10,10,10,10
5,2,0.005011700035538524,p,31.3,Limited Time - 400ms,h,9.964622335272331,46.50234893174693,37.0565385247423,31.287900251530274,31.287900251530274,46.50234893174693,9.964622335272331,37.0565385247423,-10,-0.33,0.33,10,32,22,31.67,32.33,42,10,10,10,10
5,3,0.15580449998378754,o,50.2,Limited Time - 400ms,h,27.626110941085365,29.519496855565738,50.201768810551485,23.378529090522985,23.378529090522985,29.519496855565738,27.626110941085365,50.201768810551485,-10,-0.33,0.33,10,32,22,31.67,32.33,42,10,10,10,10
5,4,0.052550200023688376,o,43.7,Limited Time - 400ms,h,24.005474594677608,50.557698609871224,43.6756152481333,16.027147535751226,16.027147535751226,50.557698609871224,24.005474594677608,43.6756152481333,-10,-0.33,0.33,10,32,22,31.67,32.33,42,10,10,10,10
5,5,0.05675699998391792,o,44.4,Limited Time - 400ms,h,32.77102680382256,38.137011346208055,44.359199370487836,19.621799198128613,19.621799198128613,38.137011346208055,32.77102680382256,44.359199370487836,-10,-0.33,0.33,10,32,22,31.67,32.33,42,10,10,10,10
5,6,0.18139799998607486,o,38.7,Limited Time - 400ms,h,51.36222371934206,33.59127630468143,38.71959595174971,24.798529101660357,24.798529101660357,33.59127630468143,51.36222371934206,38.71959595174971,-10,-0.33,0.33,10,32,22,31.67,32.33,42,10,10,10,10
5,7,0.0039047999889589846,w,36.0,Limited Time - 400ms,h,29.30830672427526,36.040819537799635,46.32336802526352,21.252809479525364,21.252809479525364,36.040819537799635,29.30830672427526,46.32336802526352,-10,-0.33,0.33,10,32,22,31.67,32.33,42,10,10,10,10
5,8,0.07243759999983013,q,50.3,Limited Time - 400ms,h,50.26786927784119,37.77085782656086,33.441279398871046,22.857591267544915,22.857591267544915,37.77085782656086,50.26786927784119,33.441279398871046,-10,-0.33,0.33,10,32,22,31.67,32.33,42,10,10,10,10
5,9,0.04400100000202656,o,21.9,Limited Time - 400ms,h,31.051457773320184,27.562291892577996,21.888967381462077,28.437490758013702,28.437490758013702,27.562291892577996,31.051457773320184,21.888967381462077,-10,-0.33,0.33,10,32,22,31.67,32.33,42,10,10,10,10
5,10,0.029583900002762675,q,2.7,Limited Time - 400ms,h,2.720501154232565,30.478377589872995,34.981095352293195,19.556347317480856,19.556347317480856,30.478377589872995,2.720501154232565,34.981095352293195,-10,-0.33,0.33,10,32,22,31.67,32.33,42,10,10,10,10
5,11,0.0161388999549672,o,42.9,Limited Time - 400ms,h,27.637331982713654,24.995685303806724,42.94451844364766,18.50827209433327,18.50827209433327,24.995685303806724,27.637331982713654,42.94451844364766,-10,-0.33,0.33,10,32,22,31.67,32.33,42,10,10,10,10
5,12,0.06477119994815439,p,21.4,Limited Time - 400ms,h,16.02612464972662,45.312738970657605,49.4601182862052,21.444557612937764,21.444557612937764,45.312738970657605,16.02612464972662,49.4601182862052,-10,-0.33,0.33,10,32,22,31.67,32.33,42,10,10,10,10
5,13,0.1704710999620147,o,36.7,Limited Time - 400ms,h,27.313226132840782,32.86457684792816,36.71414500878775,26.837464010592512,26.837464010592512,32.86457684792816,27.313226132840782,36.71414500878775,-10,-0.33,0.33,10,32,22,31.67,32.33,42,10,10,10,10
5,14,0.05890740000177175,p,10.0,Limited Time - 400ms,h,19.63045334284252,32.796282271618445,38.93969084170767,10.031581518954248,10.031581518954248,32.796282271618445,19.63045334284252,38.93969084170767,-10,-0.33,0.33,10,32,22,31.67,32.33,42,10,10,10,10
5,15,0.1581488000229001,p,16.8,Limited Time - 400ms,h,15.613799906746966,56.605547213788206,24.500227438536957,16.824350551767324,16.824350551767324,56.605547213788206,15.613799906746966,24.500227438536957,-10,-0.33,0.33,10,32,22,31.67,32.33,42,10,10,10,10
5,16,0.2855886000324972,q,36.5,Limited Time - 400ms,h,36.47415589691221,18.059221260019513,35.21384378708714,31.752228403763844,31.752228403763844,18.059221260019513,36.47415589691221,35.21384378708714,-10,-0.33,0.33,10,32,22,31.67,32.33,42,10,10,10,10
5,17,0.1990597000112757,w,26.1,Limited Time - 400ms,h,17.9668489660816,26.05477205441344,34.04216320520159,25.029881874106763,25.029881874106763,26.05477205441344,17.9668489660816,34.04216320520159,-10,-0.33,0.33,10,32,22,31.67,32.33,42,10,10,10,10
5,18,0.09776969999074936,o,47.8,Limited Time - 400ms,h,25.65603749993749,33.32352114587328,47.79082543106972,33.400337764206256,33.400337764206256,33.32352114587328,25.65603749993749,47.79082543106972,-10,-0.33,0.33,10,32,22,31.67,32.33,42,10,10,10,10
5,19,0.08455379999941215,o,58.9,Limited Time - 400ms,h,36.28956320447571,41.39895826370935,58.941070229148586,23.875353357005405,23.875353357005405,41.39895826370935,36.28956320447571,58.941070229148586,-10,-0.33,0.33,10,32,22,31.67,32.33,42,10,10,10,10
5,20,0.030927699990570545,o,33.1,Limited Time - 400ms,h,22.329099048306084,18.985804635578496,33.050912115276425,23.87331680824241,23.87331680824241,18.985804635578496,22.329099048306084,33.050912115276425,-10,-0.33,0.33,10,32,22,31.67,32.33,42,10,10,10,10
6,1,0.21673109999392182,o,41.0,Limited Time - 800ms,i,17.817346588458676,34.471189378372515,41.02641729435145,29.5920985716663,17.817346588458676,34.471189378372515,41.02641729435145,29.5920985716663,-10,-10,10,10,32,22,22,42,42,3.1622776601683795,10,3.1622776601683795,10
6,2,0.10680190002312884,w,14.3,Limited Time - 800ms,i,25.55844827478419,14.310323813548727,41.503893561649356,54.32682525450585,25.55844827478419,14.310323813548727,41.503893561649356,54.32682525450585,-10,-10,10,10,32,22,22,42,42,3.1622776601683795,10,3.1622776601683795,10
6,3,0.043100599956233054,w,23.2,Limited Time - 800ms,i,24.698802181651025,23.197490657669267,40.30808229806566,39.4471954930433,24.698802181651025,23.197490657669267,40.30808229806566,39.4471954930433,-10,-10,10,10,32,22,22,42,42,3.1622776601683795,10,3.1622776601683795,10
6,4,0.04519470001105219,p,40.8,Limited Time - 800ms,i,18.51663809558327,23.61236516829439,43.45432068871973,40.81469425110917,18.51663809558327,23.61236516829439,43.45432068871973,40.81469425110917,-10,-10,10,10,32,22,22,42,42,3.1622776601683795,10,3.1622776601683795,10
6,5,0.1011341999983415,p,62.9,Limited Time - 800ms,i,21.40201414416905,11.922085589912745,41.63390748606029,62.889227444438376,21.40201414416905,11.922085589912745,41.63390748606029,62.889227444438376,-10,-10,10,10,32,22,22,42,42,3.1622776601683795,10,3.1622776601683795,10
6,6,0.12695310002891347,p,44.1,Limited Time - 800ms,i,18.125708366738998,29.308894617008335,42.72053234125234,44.080453385314804,18.125708366738998,29.308894617008335,42.72053234125234,44.080453385314804,-10,-10,10,10,32,22,22,42,42,3.1622776601683795,10,3.1622776601683795,10
6,7,0.11948140000458807,p,45.4,Limited Time - 800ms,i,21.715706195350055,15.998581451750661,42.04996846246175,45.40196925116571,21.715706195350055,15.998581451750661,42.04996846246175,45.40196925116571,-10,-10,10,10,32,22,22,42,42,3.1622776601683795,10,3.1622776601683795,10
6,8,0.09255469997879118,p,49.4,Limited Time - 800ms,i,25.818918119881594,24.270336945380222,43.750822368799405,49.432556721776436,25.818918119881594,24.270336945380222,43.750822368799405,49.432556721776436,-10,-10,10,10,32,22,22,42,42,3.1622776601683795,10,3.1622776601683795,10
6,9,0.02644510002573952,w,0.7,Limited Time - 800ms,i,21.57696932767378,0.7168664896652643,37.65370812132039,48.361862858737,21.57696932767378,0.7168664896652643,37.65370812132039,48.361862858737,-10,-10,10,10,32,22,22,42,42,3.1622776601683795,10,3.1622776601683795,10
6,10,0.054110299970488995,p,55.5,Limited Time - 800ms,i,17.406587102646387,15.857436264797887,40.41931996122432,55.49393683762548,17.406587102646387,15.857436264797887,40.41931996122432,55.49393683762548,-10,-10,10,10,32,22,22,42,42,3.1622776601683795,10,3.1622776601683795,10
6,11,0.040307799994479865,p,45.7,Limited Time - 800ms,i,26.325669532553555,2.5835061191968656,43.514674892619496,45.694443926491594,26.325669532553555,2.5835061191968656,43.514674892619496,45.694443926491594,-10,-10,10,10,32,22,22,42,42,3.1622776601683795,10,3.1622776601683795,10
6,12,0.14116370002739131,p,43.2,Limited Time - 800ms,i,26.07354004726632,26.691030060506126,39.259840359773584,43.19203392591505,26.07354004726632,26.691030060506126,39.259840359773584,43.19203392591505,-10,-10,10,10,32,22,22,42,42,3.1622776601683795,10,3.1622776601683795,10
6,13,0.028838199970778078,p,41.0,Limited Time - 800ms,i,23.737374982399878,8.600980703846355,47.51490098230233,40.9815198662818,23.737374982399878,8.600980703846355,47.51490098230233,40.9815198662818,-10,-10,10,10,32,22,22,42,42,3.1622776601683795,10,3.1622776601683795,10
6,14,0.11349189997417852,q,23.5,Limited Time - 800ms,i,23.495850843997474,17.072157437942053,42.87964912381242,37.393250932260884,23.495850843997474,17.072157437942053,42.87964912381242,37.393250932260884,-10,-10,10,10,32,22,22,42,42,3.1622776601683795,10,3.1622776601683795,10
6,15,0.17682870000135154,p,43.6,Limited Time - 800ms,i,20.008756105774243,13.425480245083497,41.853015801014934,43.63491493140083,20.008756105774243,13.425480245083497,41.853015801014934,43.63491493140083,-10,-10,10,10,32,22,22,42,42,3.1622776601683795,10,3.1622776601683795,10
6,16,0.001873200002592057,p,45.5,Limited Time - 800ms,i,24.458310976133312,12.55114577478902,42.23134941188396,45.4507506836843,24.458310976133312,12.55114577478902,42.23134941188396,45.4507506836843,-10,-10,10,10,32,22,22,42,42,3.1622776601683795,10,3.1622776601683795,10
6,17,0.22041509998962283,p,38.6,Limited Time - 800ms,i,25.5488899357904,12.876966707928679,43.59765917513742,38.55595612757844,25.5488899357904,12.876966707928679,43.59765917513742,38.55595612757844,-10,-10,10,10,32,22,22,42,42,3.1622776601683795,10,3.1622776601683795,10
6,18,0.014705699984915555,q,23.4,Limited Time - 800ms,i,23.429604601437347,24.069344455120348,37.41930917807444,37.783919309016134,23.429604601437347,24.069344455120348,37.41930917807444,37.783919309016134,-10,-10,10,10,32,22,22,42,42,3.1622776601683795,10,3.1622776601683795,10
6,19,0.015419600007589906,o,45.7,Limited Time - 800ms,i,28.198649351979924,23.078219274601047,45.69151422549697,50.57233554022292,28.198649351979924,23.078219274601047,45.69151422549697,50.57233554022292,-10,-10,10,10,32,22,22,42,42,3.1622776601683795,10,3.1622776601683795,10
6,20,0.1049324999912642,p,26.3,Limited Time - 800ms,i,13.163979894085935,20.093652641155177,41.4892559621125,26.284385189690326,13.163979894085935,20.093652641155177,41.4892559621125,26.284385189690326,-10,-10,10,10,32,22,22,42,42,3.1622776601683795,10,3.1622776601683795,10
7,1,0.24039329995866865,w,23.4,Unlimited Time,h,46.41183456329426,23.358018799787764,54.503833447335204,32.71750757525165,23.358018799787764,32.71750757525165,46.41183456329426,54.503833447335204,-10,-0.33,0.33,10,32,22,31.67,32.33,42,10,10,10,10
7,2,0.05799030000343919,p,46.5,Unlimited Time,h,9.964622335272331,31.287900251530274,37.0565385247423,46.50234893174693,31.287900251530274,46.50234893174693,9.964622335272331,37.0565385247423,-10,-0.33,0.33,10,32,22,31.67,32.33,42,10,10,10,10
7,3,0.06467100000008941,p,29.5,Unlimited Time,h,27.626110941085365,23.378529090522985,50.201768810551485,29.519496855565738,23.378529090522985,29.519496855565738,27.626110941085365,50.201768810551485,-10,-0.33,0.33,10,32,22,31.67,32.33,42,10,10,10,10
7,4,0.22016399999847636,o,43.7,Unlimited Time,h,24.005474594677608,16.027147535751226,43.6756152481333,50.557698609871224,16.027147535751226,50.557698609871224,24.005474594677608,43.6756152481333,-10,-0.33,0.33,10,32,22,31.67,32.33,42,10,10,10,10
7,5,0.04953779996139929,q,32.8,Unlimited Time,h,32.77102680382256,19.621799198128613,44.359199370487836,38.137011346208055,19.621799198128613,38.137011346208055,32.77102680382256,44.359199370487836,-10,-0.33,0.33,10,32,22,31.67,32.33,42,10,10,10,10
7,6,0.028580499987583607,o,38.7,Unlimited Time,h,51.36222371934206,24.798529101660357,38.71959595174971,33.59127630468143,24.798529101660357,33.59127630468143,51.36222371934206,38.71959595174971,-10,-0.33,0.33,10,32,22,31.67,32.33,42,10,10,10,10
7,7,0.13287580001633614,o,46.3,Unlimited Time,h,29.30830672427526,21.252809479525364,46.32336802526352,36.040819537799635,21.252809479525364,36.040819537799635,29.30830672427526,46.32336802526352,-10,-0.33,0.33,10,32,22,31.67,32.33,42,10,10,10,10
7,8,0.028824100038036704,w,22.9,Unlimited Time,h,50.26786927784119,22.857591267544915,33.441279398871046,37.77085782656086,22.857591267544915,37.77085782656086,50.26786927784119,33.441279398871046,-10,-0.33,0.33,10,32,22,31.67,32.33,42,10,10,10,10
7,9,0.04264349996810779,p,27.6,Unlimited Time,h,31.051457773320184,28.437490758013702,21.888967381462077,27.562291892577996,28.437490758013702,27.562291892577996,31.051457773320184,21.888967381462077,-10,-0.33,0.33,10,32,22,31.67,32.33,42,10,10,10,10
7,10,0.13980149995768443,w,19.6,Unlimited Time,h,2.720501154232565,19.556347317480856,34.981095352293195,30.478377589872995,19.556347317480856,30.478377589872995,2.720501154232565,34.981095352293195,-10,-0.33,0.33,10,32,22,31.67,32.33,42,10,10,10,10
7,11,0.17687979998299852,p,25.0,Unlimited Time,h,27.637331982713654,18.50827209433327,42.94451844364766,24.995685303806724,18.50827209433327,24.995685303806724,27.637331982713654,42.94451844364766,-10,-0.33,0.33,10,32,22,31.67,32.33,42,10,10,10,10
7,12,0.0696919999900274,q,16.0,Unlimited Time,h,16.02612464972662,21.444557612937764,49.4601182862052,45.312738970657605,21.444557612937764,45.312738970657605,16.02612464972662,49.4601182862052,-10,-0.33,0.33,10,32,22,31.67,32.33,42,10,10,10,10
7,13,0.31908829999156296,w,26.8,Unlimited Time,h,27.313226132840782,26.837464010592512,36.71414500878775,32.86457684792816,26.837464010592512,32.86457684792816,27.313226132840782,36.71414500878775,-10,-0.33,0.33,10,32,22,31.67,32.33,42,10,10,10,10
7,14,0.10855619999347255,q,19.6,Unlimited Time,h,19.63045334284252,10.031581518954248,38.93969084170767,32.796282271618445,10.031581518954248,32.796282271618445,19.63045334284252,38.93969084170767,-10,-0.33,0.33,10,32,22,31.67,32.33,42,10,10,10,10
7,15,0.09060140000656247,q,15.6,Unlimited Time,h,15.613799906746966,16.824350551767324,24.500227438536957,56.605547213788206,16.824350551767324,56.605547213788206,15.613799906746966,24.500227438536957,-10,-0.33,0.33,10,32,22,31.67,32.33,42,10,10,10,10
7,16,0.018242100020870566,o,35.2,Unlimited Time,h,36.47415589691221,31.752228403763844,35.21384378708714,18.059221260019513,31.752228403763844,18.059221260019513,36.47415589691221,35.21384378708714,-10,-0.33,0.33,10,32,22,31.67,32.33,42,10,10,10,10
7,17,0.017854100035037845,p,26.1,Unlimited Time,h,17.9668489660816,25.029881874106763,34.04216320520159,26.05477205441344,25.029881874106763,26.05477205441344,17.9668489660816,34.04216320520159,-10,-0.33,0.33,10,32,22,31.67,32.33,42,10,10,10,10
7,18,0.2446273000095971,o,47.8,Unlimited Time,h,25.65603749993749,33.400337764206256,47.79082543106972,33.32352114587328,33.400337764206256,33.32352114587328,25.65603749993749,47.79082543106972,-10,-0.33,0.33,10,32,22,31.67,32.33,42,10,10,10,10
7,19,0.22000660002231598,o,58.9,Unlimited Time,h,36.28956320447571,23.875353357005405,58.941070229148586,41.39895826370935,23.875353357005405,41.39895826370935,36.28956320447571,58.941070229148586,-10,-0.33,0.33,10,32,22,31.67,32.33,42,10,10,10,10
7,20,0.1754944000276737,o,33.1,Unlimited Time,h,22.329099048306084,23.87331680824241,33.050912115276425,18.985804635578496,23.87331680824241,18.985804635578496,22.329099048306084,33.050912115276425,-10,-0.33,0.33,10,32,22,31.67,32.33,42,10,10,10,10
8,1,0.24051389994565398,o,27.2,Limited Time - 400ms,l,20.12936946897718,31.842078936014165,27.15167253464084,40.96926314559595,20.12936946897718,27.15167253464084,31.842078936014165,40.96926314559595,-10,-0.33,0.33,10,32,22,31.67,32.33,42,3.1622776601683795,3.1622776601683795,3.1622776601683795,3.1622776601683795
8,2,0.010753799986559898,w,30.6,Limited Time - 400ms,l,19.692654424116395,30.642297624450794,31.442143486869636,47.06175827428266,19.692654424116395,31.442143486869636,30.642297624450794,47.06175827428266,-10,-0.33,0.33,10,32,22,31.67,32.33,42,3.1622776601683795,3.1622776601683795,3.1622776601683795,3.1622776601683795
8,3,0.10734269995009527,p,42.1,Limited Time - 400ms,l,25.808722081966696,37.19139733900977,31.81792474784392,42.14933122576187,25.808722081966696,31.81792474784392,37.19139733900977,42.14933122576187,-10,-0.33,0.33,10,32,22,31.67,32.33,42,3.1622776601683795,3.1622776601683795,3.1622776601683795,3.1622776601683795
8,4,0.07517560000997037,p,38.6,Limited Time - 400ms,l,19.110313650835277,39.437983992402344,31.367287018829543,38.62998865062274,19.110313650835277,31.367287018829543,39.437983992402344,38.62998865062274,-10,-0.33,0.33,10,32,22,31.67,32.33,42,3.1622776601683795,3.1622776601683795,3.1622776601683795,3.1622776601683795
8,5,0.053885200002696365,o,31.2,Limited Time - 400ms,l,23.239362074927875,30.977043421797916,31.242502566221322,43.55148767021989,23.239362074927875,31.242502566221322,30.977043421797916,43.55148767021989,-10,-0.33,0.33,10,32,22,31.67,32.33,42,3.1622776601683795,3.1622776601683795,3.1622776601683795,3.1622776601683795
8,6,0.03472870000405237,p,48.7,Limited Time - 400ms,l,19.572046041855266,30.686585673733813,28.55986454261333,48.73972771895741,19.572046041855266,28.55986454261333,30.686585673733813,48.73972771895741,-10,-0.33,0.33,10,32,22,31.67,32.33,42,3.1622776601683795,3.1622776601683795,3.1622776601683795,3.1622776601683795
8,7,0.015248600044287741,o,36.1,Limited Time - 400ms,l,30.31894814966416,30.177850187241525,36.13479593310244,39.63628320031411,30.31894814966416,36.13479593310244,30.177850187241525,39.63628320031411,-10,-0.33,0.33,10,32,22,31.67,32.33,42,3.1622776601683795,3.1622776601683795,3.1622776601683795,3.1622776601683795
8,8,0.19798050000099465,p,46.4,Limited Time - 400ms,l,19.31993996025526,27.575318894753316,36.107994056453016,46.35626800358972,19.31993996025526,36.107994056453016,27.575318894753316,46.35626800358972,-10,-0.33,0.33,10,32,22,31.67,32.33,42,3.1622776601683795,3.1622776601683795,3.1622776601683795,3.1622776601683795
8,9,0.03809370001545176,q,21.1,Limited Time - 400ms,l,21.0505239506921,36.58922144079768,31.533790469135287,43.58975379375641,21.0505239506921,31.533790469135287,36.58922144079768,43.58975379375641,-10,-0.33,0.33,10,32,22,31.67,32.33,42,3.1622776601683795,3.1622776601683795,3.1622776601683795,3.1622776601683795
8,10,0.03626790002454072,q,21.1,Limited Time - 400ms,l,21.107653514224875,30.616181445385685,35.78761299668815,40.96618970422933,21.107653514224875,35.78761299668815,30.616181445385685,40.96618970422933,-10,-0.33,0.33,10,32,22,31.67,32.33,42,3.1622776601683795,3.1622776601683795,3.1622776601683795,3.1622776601683795
8,11,0.10322019999148324,p,38.5,Limited Time - 400ms,l,21.437793484872024,27.32370586053133,33.51089612248001,38.455031289550284,21.437793484872024,33.51089612248001,27.32370586053133,38.455031289550284,-10,-0.33,0.33,10,32,22,31.67,32.33,42,3.1622776601683795,3.1622776601683795,3.1622776601683795,3.1622776601683795
8,12,0.05274820001795888,o,30.0,Limited Time - 400ms,l,19.38771226393914,33.19936500083936,30.00593343682619,38.32369091736818,19.38771226393914,30.00593343682619,33.19936500083936,38.32369091736818,-10,-0.33,0.33,10,32,22,31.67,32.33,42,3.1622776601683795,3.1622776601683795,3.1622776601683795,3.1622776601683795
8,13,0.12895869999192655,o,33.0,Limited Time - 400ms,l,20.385655718783934,33.509029839628454,32.993189639615444,41.54584977983197,20.385655718783934,32.993189639615444,33.509029839628454,41.54584977983197,-10,-0.33,0.33,10,32,22,31.67,32.33,42,3.1622776601683795,3.1622776601683795,3.1622776601683795,3.1622776601683795
8,14,0.09826309996424243,p,42.6,Limited Time - 400ms,l,26.300280528724606,33.76992930677969,29.897879010304734,42.57700299519398,26.300280528724606,29.897879010304734,33.76992930677969,42.57700299519398,-10,-0.33,0.33,10,32,22,31.67,32.33,42,3.1622776601683795,3.1622776601683795,3.1622776601683795,3.1622776601683795
8,15,0.1057629999704659,p,44.9,Limited Time - 400ms,l,15.073871977915292,34.70027861785811,24.80556901847678,44.90596306187662,15.073871977915292,24.80556901847678,34.70027861785811,44.90596306187662,-10,-0.33,0.33,10,32,22,31.67,32.33,42,3.1622776601683795,3.1622776601683795,3.1622776601683795,3.1622776601683795
8,16,0.053254099970217794,p,42.2,Limited Time - 400ms,l,23.79042922001977,36.101646032821215,32.58420627082747,42.19743700589659,23.79042922001977,32.58420627082747,36.101646032821215,42.19743700589659,-10,-0.33,0.33,10,32,22,31.67,32.33,42,3.1622776601683795,3.1622776601683795,3.1622776601683795,3.1622776601683795
8,17,0.034938199969474226,p,40.8,Limited Time - 400ms,l,21.705921148748946,30.047147076304473,35.40262744921186,40.83783726287945,21.705921148748946,35.40262744921186,30.047147076304473,40.83783726287945,-10,-0.33,0.33,10,32,22,31.67,32.33,42,3.1622776601683795,3.1622776601683795,3.1622776601683795,3.1622776601683795
8,18,0.09604379994561896,p,42.1,Limited Time - 400ms,l,20.079013108243085,30.203546828572012,34.41048890585922,42.11490793803244,20.079013108243085,34.41048890585922,30.203546828572012,42.11490793803244,-10,-0.33,0.33,10,32,22,31.67,32.33,42,3.1622776601683795,3.1622776601683795,3.1622776601683795,3.1622776601683795
8,19,0.008488700026646256,p,36.9,Limited Time - 400ms,l,21.739579938456515,34.59500418670153,34.42050929586463,36.89406247032996,21.739579938456515,34.42050929586463,34.59500418670153,36.89406247032996,-10,-0.33,0.33,10,32,22,31.67,32.33,42,3.1622776601683795,3.1622776601683795,3.1622776601683795,3.1622776601683795
8,20,0.0067322999821044505,p,43.7,Limited Time - 400ms,l,18.791321038793633,34.8079211761969,30.787654549169627,43.729477680356474,18.791321038793633,30.787654549169627,34.8079211761969,43.729477680356474,-10,-0.33,0.33,10,32,22,31.67,32.33,42,3.1622776601683795,3.1622776601683795,3.1622776601683795,3.1622776601683795
9,1,0.3201116999844089,o,25.4,Limited Time - 800ms,e,34.982868452758964,39.74845107290068,25.426287778779745,34.53314158658766,34.53314158658766,34.982868452758964,39.74845107290068,25.426287778779745,0,0,0,0,32,32,32,32,32,3.1622776601683795,6.324555320336759,8.366600265340756,10
9,2,0.295819399994798,p,28.6,Limited Time - 800ms,e,34.87978111454932,32.145047234604,39.197383577428845,28.59256204739316,28.59256204739316,34.87978111454932,32.145047234604,39.197383577428845,0,0,0,0,32,32,32,32,32,3.1622776601683795,6.324555320336759,8.366600265340756,10
9,3,0.1011339999968186,w,38.6,Limited Time - 800ms,e,30.00426843364903,38.634567991128975,23.22597395194778,31.30647437062099,31.30647437062099,30.00426843364903,38.634567991128975,23.22597395194778,0,0,0,0,32,32,32,32,32,3.1622776601683795,6.324555320336759,8.366600265340756,10
9,4,0.18309860001318157,p,34.6,Limited Time - 800ms,e,35.26861196469343,30.652721022956314,27.35974686693274,34.62164216301397,34.62164216301397,35.26861196469343,30.652721022956314,27.35974686693274,0,0,0,0,32,32,32,32,32,3.1622776601683795,6.324555320336759,8.366600265340756,10
9,5,0.18241919996216893,p,35.1,Limited Time - 800ms,e,27.106794622486202,23.629649391196715,15.206138899506858,35.09641633472412,35.09641633472412,27.106794622486202,23.629649391196715,15.206138899506858,0,0,0,0,32,32,32,32,32,3.1622776601683795,6.324555320336759,8.366600265340756,10
9,6,0.09679320000577718,q,30.9,Limited Time - 800ms,e,30.878235055224476,24.702418166032967,36.92352133253901,33.64822572920612,33.64822572920612,30.878235055224476,24.702418166032967,36.92352133253901,0,0,0,0,32,32,32,32,32,3.1622776601683795,6.324555320336759,8.366600265340756,10
9,7,0.07650879997527227,w,28.9,Limited Time - 800ms,e,35.73248948356561,28.894786913896663,39.502188895284554,31.750492303972678,31.750492303972678,35.73248948356561,28.894786913896663,39.502188895284554,0,0,0,0,32,32,32,32,32,3.1622776601683795,6.324555320336759,8.366600265340756,10
9,8,0.24018369999248534,o,50.4,Limited Time - 800ms,e,34.81341912167814,31.379460075505413,50.433608025591305,28.400081299357925,28.400081299357925,34.81341912167814,31.379460075505413,50.433608025591305,0,0,0,0,32,32,32,32,32,3.1622776601683795,6.324555320336759,8.366600265340756,10
9,9,0.21267159999115393,p,33.9,Limited Time - 800ms,e,29.481800514308397,38.05270166776876,37.340418458056504,33.91103600298347,33.91103600298347,29.481800514308397,38.05270166776876,37.340418458056504,0,0,0,0,32,32,32,32,32,3.1622776601683795,6.324555320336759,8.366600265340756,10
9,10,0.15157720004208386,o,31.1,Limited Time - 800ms,e,24.590294019362833,33.38758976361941,31.07387070863445,27.145859634195933,27.145859634195933,24.590294019362833,33.38758976361941,31.07387070863445,0,0,0,0,32,32,32,32,32,3.1622776601683795,6.324555320336759,8.366600265340756,10
9,11,0.07606039999518543,o,26.1,Limited Time - 800ms,e,37.68797009186778,23.269276491407012,26.078917850064965,31.07575660695861,31.07575660695861,37.68797009186778,23.269276491407012,26.078917850064965,0,0,0,0,32,32,32,32,32,3.1622776601683795,6.324555320336759,8.366600265340756,10
9,12,0.01768719998653978,o,39.4,Limited Time - 800ms,e,25.620899408920934,26.161458163363108,39.36246761136085,31.90461494707426,31.90461494707426,25.620899408920934,26.161458163363108,39.36246761136085,0,0,0,0,32,32,32,32,32,3.1622776601683795,6.324555320336759,8.366600265340756,10
9,13,0.07518449996132404,o,29.0,Limited Time - 800ms,e,33.005715521557136,36.171219743198776,29.03059728825166,32.71402265150371,32.71402265150371,33.005715521557136,36.171219743198776,29.03059728825166,0,0,0,0,32,32,32,32,32,3.1622776601683795,6.324555320336759,8.366600265340756,10
9,14,0.17710450000595301,o,17.9,Limited Time - 800ms,e,34.481530618556384,39.24794377246806,17.92925731485682,29.527731744811277,29.527731744811277,34.481530618556384,39.24794377246806,17.92925731485682,0,0,0,0,32,32,32,32,32,3.1622776601683795,6.324555320336759,8.366600265340756,10
9,15,0.06310369999846444,p,29.4,Limited Time - 800ms,e,22.001570153209315,33.597452825714846,30.770415502114403,29.364382327096294,29.364382327096294,22.001570153209315,33.597452825714846,30.770415502114403,0,0,0,0,32,32,32,32,32,3.1622776601683795,6.324555320336759,8.366600265340756,10
9,16,0.06058729998767376,w,42.1,Limited Time - 800ms,e,38.40878889910181,42.1124040820768,30.7154641984289,28.911763085180013,28.911763085180013,38.40878889910181,42.1124040820768,30.7154641984289,0,0,0,0,32,32,32,32,32,3.1622776601683795,6.324555320336759,8.366600265340756,10
9,17,0.026925899961497635,q,31.3,Limited Time - 800ms,e,31.30831109446751,33.94444984473784,25.06891403905914,29.479046401559945,29.479046401559945,31.30831109446751,33.94444984473784,25.06891403905914,0,0,0,0,32,32,32,32,32,3.1622776601683795,6.324555320336759,8.366600265340756,10
9,18,0.28393839998170733,q,31.6,Limited Time - 800ms,e,31.617855625110572,28.0498592380404,24.924336300007962,34.29270930465349,34.29270930465349,31.617855625110572,28.0498592380404,24.924336300007962,0,0,0,0,32,32,32,32,32,3.1622776601683795,6.324555320336759,8.366600265340756,10
9,19,0.2025842000148259,w,21.6,Limited Time - 800ms,e,38.57674969101083,21.56784954296115,4.385581080354289,31.379687307862874,31.379687307862874,38.57674969101083,21.56784954296115,4.385581080354289,0,0,0,0,32,32,32,32,32,3.1622776601683795,6.324555320336759,8.366600265340756,10
9,20,0.12411830003838986,w,14.2,Limited Time - 800ms,e,38.780643051480666,14.223726175666222,9.178720748152983,32.80498606868168,32.80498606868168,38.780643051480666,14.223726175666222,9.178720748152983,0,0,0,0,32,32,32,32,32,3.1622776601683795,6.324555320336759,8.366600265340756,10
10,1,0.26493740000296384,q,25.4,Unlimited Time,e,25.426287778779745,34.53314158658766,39.74845107290068,34.982868452758964,34.53314158658766,34.982868452758964,39.74845107290068,25.426287778779745,0,0,0,0,32,32,32,32,32,3.1622776601683795,6.324555320336759,8.366600265340756,10
10,2,0.0013487000251188874,p,34.9,Unlimited Time,e,39.197383577428845,28.59256204739316,32.145047234604,34.87978111454932,28.59256204739316,34.87978111454932,32.145047234604,39.197383577428845,0,0,0,0,32,32,32,32,32,3.1622776601683795,6.324555320336759,8.366600265340756,10
10,3,0.023119199962820858,p,30.0,Unlimited Time,e,23.22597395194778,31.30647437062099,38.634567991128975,30.00426843364903,31.30647437062099,30.00426843364903,38.634567991128975,23.22597395194778,0,0,0,0,32,32,32,32,32,3.1622776601683795,6.324555320336759,8.366600265340756,10
10,4,0.3105066000134684,p,35.3,Unlimited Time,e,27.35974686693274,34.62164216301397,30.652721022956314,35.26861196469343,34.62164216301397,35.26861196469343,30.652721022956314,27.35974686693274,0,0,0,0,32,32,32,32,32,3.1622776601683795,6.324555320336759,8.366600265340756,10
10,5,0.035637699998915195,p,27.1,Unlimited Time,e,15.206138899506858,35.09641633472412,23.629649391196715,27.106794622486202,35.09641633472412,27.106794622486202,23.629649391196715,15.206138899506858,0,0,0,0,32,32,32,32,32,3.1622776601683795,6.324555320336759,8.366600265340756,10
10,6,1.2180536999949254,p,30.9,Unlimited Time,e,36.92352133253901,33.64822572920612,24.702418166032967,30.878235055224476,33.64822572920612,30.878235055224476,24.702418166032967,36.92352133253901,0,0,0,0,32,32,32,32,32,3.1622776601683795,6.324555320336759,8.366600265340756,10
10,7,0.011358699994161725,p,35.7,Unlimited Time,e,39.502188895284554,31.750492303972678,28.894786913896663,35.73248948356561,31.750492303972678,35.73248948356561,28.894786913896663,39.502188895284554,0,0,0,0,32,32,32,32,32,3.1622776601683795,6.324555320336759,8.366600265340756,10
10,8,0.19150070002069697,o,31.4,Unlimited Time,e,50.433608025591305,28.400081299357925,31.379460075505413,34.81341912167814,28.400081299357925,34.81341912167814,31.379460075505413,50.433608025591305,0,0,0,0,32,32,32,32,32,3.1622776601683795,6.324555320336759,8.366600265340756,10
10,9,0.026531999988947064,o,38.1,Unlimited Time,e,37.340418458056504,33.91103600298347,38.05270166776876,29.481800514308397,33.91103600298347,29.481800514308397,38.05270166776876,37.340418458056504,0,0,0,0,32,32,32,32,32,3.1622776601683795,6.324555320336759,8.366600265340756,10
10,10,0.09009460004745051,p,24.6,Unlimited Time,e,31.07387070863445,27.145859634195933,33.38758976361941,24.590294019362833,27.145859634195933,24.590294019362833,33.38758976361941,31.07387070863445,0,0,0,0,32,32,32,32,32,3.1622776601683795,6.324555320336759,8.366600265340756,10
10,11,0.06345539999892935,o,23.3,Unlimited Time,e,26.078917850064965,31.07575660695861,23.269276491407012,37.68797009186778,31.07575660695861,37.68797009186778,23.269276491407012,26.078917850064965,0,0,0,0,32,32,32,32,32,3.1622776601683795,6.324555320336759,8.366600265340756,10
10,12,0.06873620004625991,o,26.2,Unlimited Time,e,39.36246761136085,31.90461494707426,26.161458163363108,25.620899408920934,31.90461494707426,25.620899408920934,26.161458163363108,39.36246761136085,0,0,0,0,32,32,32,32,32,3.1622776601683795,6.324555320336759,8.366600265340756,10
10,13,0.13319049996789545,w,32.7,Unlimited Time,e,29.03059728825166,32.71402265150371,36.171219743198776,33.005715521557136,32.71402265150371,33.005715521557136,36.171219743198776,29.03059728825166,0,0,0,0,32,32,32,32,32,3.1622776601683795,6.324555320336759,8.366600265340756,10
10,14,0.19748029997572303,w,29.5,Unlimited Time,e,17.92925731485682,29.527731744811277,39.24794377246806,34.481530618556384,29.527731744811277,34.481530618556384,39.24794377246806,17.92925731485682,0,0,0,0,32,32,32,32,32,3.1622776601683795,6.324555320336759,8.366600265340756,10
10,15,0.0011393000022508204,q,30.8,Unlimited Time,e,30.770415502114403,29.364382327096294,33.597452825714846,22.001570153209315,29.364382327096294,22.001570153209315,33.597452825714846,30.770415502114403,0,0,0,0,32,32,32,32,32,3.1622776601683795,6.324555320336759,8.366600265340756,10
10,16,0.10263430001214147,p,38.4,Unlimited Time,e,30.7154641984289,28.911763085180013,42.1124040820768,38.40878889910181,28.911763085180013,38.40878889910181,42.1124040820768,30.7154641984289,0,0,0,0,32,32,32,32,32,3.1622776601683795,6.324555320336759,8.366600265340756,10
10,17,0.03610560001106933,o,33.9,Unlimited Time,e,25.06891403905914,29.479046401559945,33.94444984473784,31.30831109446751,29.479046401559945,31.30831109446751,33.94444984473784,25.06891403905914,0,0,0,0,32,32,32,32,32,3.1622776601683795,6.324555320336759,8.366600265340756,10
10,18,0.04492820001905784,p,31.6,Unlimited Time,e,24.924336300007962,34.29270930465349,28.0498592380404,31.617855625110572,34.29270930465349,31.617855625110572,28.0498592380404,24.924336300007962,0,0,0,0,32,32,32,32,32,3.1622776601683795,6.324555320336759,8.366600265340756,10
10,19,0.10002630000235513,o,21.6,Unlimited Time,e,4.385581080354289,31.379687307862874,21.56784954296115,38.57674969101083,31.379687307862874,38.57674969101083,21.56784954296115,4.385581080354289,0,0,0,0,32,32,32,32,32,3.1622776601683795,6.324555320336759,8.366600265340756,10
10,20,0.1798416000092402,o,14.2,Unlimited Time,e,9.178720748152983,32.80498606868168,14.223726175666222,38.780643051480666,32.80498606868168,38.780643051480666,14.223726175666222,9.178720748152983,0,0,0,0,32,32,32,32,32,3.1622776601683795,6.324555320336759,8.366600265340756,10
11,1,0.1709691999712959,p,35.0,Limited Time - 400ms,e,34.53314158658766,39.74845107290068,25.426287778779745,34.982868452758964,34.53314158658766,34.982868452758964,39.74845107290068,25.426287778779745,0,0,0,0,32,32,32,32,32,3.1622776601683795,6.324555320336759,8.366600265340756,10
11,2,0.16565330000594258,p,34.9,Limited Time - 400ms,e,28.59256204739316,32.145047234604,39.197383577428845,34.87978111454932,28.59256204739316,34.87978111454932,32.145047234604,39.197383577428845,0,0,0,0,32,32,32,32,32,3.1622776601683795,6.324555320336759,8.366600265340756,10
11,3,0.08775780000723898,o,23.2,Limited Time - 400ms,e,31.30647437062099,38.634567991128975,23.22597395194778,30.00426843364903,31.30647437062099,30.00426843364903,38.634567991128975,23.22597395194778,0,0,0,0,32,32,32,32,32,3.1622776601683795,6.324555320336759,8.366600265340756,10
11,4,0.05361620004987344,p,35.3,Limited Time - 400ms,e,34.62164216301397,30.652721022956314,27.35974686693274,35.26861196469343,34.62164216301397,35.26861196469343,30.652721022956314,27.35974686693274,0,0,0,0,32,32,32,32,32,3.1622776601683795,6.324555320336759,8.366600265340756,10
11,5,0.1051974999718368,p,27.1,Limited Time - 400ms,e,35.09641633472412,23.629649391196715,15.206138899506858,27.106794622486202,35.09641633472412,27.106794622486202,23.629649391196715,15.206138899506858,0,0,0,0,32,32,32,32,32,3.1622776601683795,6.324555320336759,8.366600265340756,10
11,6,0.1217047999962233,q,33.6,Limited Time - 400ms,e,33.64822572920612,24.702418166032967,36.92352133253901,30.878235055224476,33.64822572920612,30.878235055224476,24.702418166032967,36.92352133253901,0,0,0,0,32,32,32,32,32,3.1622776601683795,6.324555320336759,8.366600265340756,10
11,7,0.16033889999380335,w,28.9,Limited Time - 400ms,e,31.750492303972678,28.894786913896663,39.502188895284554,35.73248948356561,31.750492303972678,35.73248948356561,28.894786913896663,39.502188895284554,0,0,0,0,32,32,32,32,32,3.1622776601683795,6.324555320336759,8.366600265340756,10
11,8,0.18603430001530796,q,28.4,Limited Time - 400ms,e,28.400081299357925,31.379460075505413,50.433608025591305,34.81341912167814,28.400081299357925,34.81341912167814,31.379460075505413,50.433608025591305,0,0,0,0,32,32,32,32,32,3.1622776601683795,6.324555320336759,8.366600265340756,10
11,9,0.29955120000522584,q,33.9,Limited Time - 400ms,e,33.91103600298347,38.05270166776876,37.340418458056504,29.481800514308397,33.91103600298347,29.481800514308397,38.05270166776876,37.340418458056504,0,0,0,0,32,32,32,32,32,3.1622776601683795,6.324555320336759,8.366600265340756,10
11,10,0.13785419997293502,p,24.6,Limited Time - 400ms,e,27.145859634195933,33.38758976361941,31.07387070863445,24.590294019362833,27.145859634195933,24.590294019362833,33.38758976361941,31.07387070863445,0,0,0,0,32,32,32,32,32,3.1622776601683795,6.324555320336759,8.366600265340756,10
11,11,0.11906900000758469,p,37.7,Limited Time - 400ms,e,31.07575660695861,23.269276491407012,26.078917850064965,37.68797009186778,31.07575660695861,37.68797009186778,23.269276491407012,26.078917850064965,0,0,0,0,32,32,32,32,32,3.1622776601683795,6.324555320336759,8.366600265340756,10
11,12,0.191669300023932,p,25.6,Limited Time - 400ms,e,31.90461494707426,26.161458163363108,39.36246761136085,25.620899408920934,31.90461494707426,25.620899408920934,26.161458163363108,39.36246761136085,0,0,0,0,32,32,32,32,32,3.1622776601683795,6.324555320336759,8.366600265340756,10
11,13,0.17747329996200278,p,33.0,Limited Time - 400ms,e,32.71402265150371,36.171219743198776,29.03059728825166,33.005715521557136,32.71402265150371,33.005715521557136,36.171219743198776,29.03059728825166,0,0,0,0,32,32,32,32,32,3.1622776601683795,6.324555320336759,8.366600265340756,10
11,14,0.06586439994862303,p,34.5,Limited Time - 400ms,e,29.527731744811277,39.24794377246806,17.92925731485682,34.481530618556384,29.527731744811277,34.481530618556384,39.24794377246806,17.92925731485682,0,0,0,0,32,32,32,32,32,3.1622776601683795,6.324555320336759,8.366600265340756,10
11,15,0.05548029998317361,p,22.0,Limited Time - 400ms,e,29.364382327096294,33.597452825714846,30.770415502114403,22.001570153209315,29.364382327096294,22.001570153209315,33.597452825714846,30.770415502114403,0,0,0,0,32,32,32,32,32,3.1622776601683795,6.324555320336759,8.366600265340756,10
11,16,0.15337020001607016,p,38.4,Limited Time - 400ms,e,28.911763085180013,42.1124040820768,30.7154641984289,38.40878889910181,28.911763085180013,38.40878889910181,42.1124040820768,30.7154641984289,0,0,0,0,32,32,32,32,32,3.1622776601683795,6.324555320336759,8.366600265340756,10
11,17,0.010441399994306266,o,25.1,Limited Time - 400ms,e,29.479046401559945,33.94444984473784,25.06891403905914,31.30831109446751,29.479046401559945,31.30831109446751,33.94444984473784,25.06891403905914,0,0,0,0,32,32,32,32,32,3.1622776601683795,6.324555320336759,8.366600265340756,10
11,18,0.0514485000167042,p,31.6,Limited Time - 400ms,e,34.29270930465349,28.0498592380404,24.924336300007962,31.617855625110572,34.29270930465349,31.617855625110572,28.0498592380404,24.924336300007962,0,0,0,0,32,32,32,32,32,3.1622776601683795,6.324555320336759,8.366600265340756,10
11,19,0.313043000001926,o,4.4,Limited Time - 400ms,e,31.379687307862874,21.56784954296115,4.385581080354289,38.57674969101083,31.379687307862874,38.57674969101083,21.56784954296115,4.385581080354289,0,0,0,0,32,32,32,32,32,3.1622776601683795,6.324555320336759,8.366600265340756,10
11,20,0.15959130000555888,p,38.8,Limited Time - 400ms,e,32.80498606868168,14.223726175666222,9.178720748152983,38.780643051480666,32.80498606868168,38.780643051480666,14.223726175666222,9.178720748152983,0,0,0,0,32,32,32,32,32,3.1622776601683795,6.324555320336759,8.366600265340756,10
12,1,0.1762289999751374,p,23.4,Limited Time - 800ms,h,46.41183456329426,32.71750757525165,54.503833447335204,23.358018799787764,23.358018799787764,32.71750757525165,46.41183456329426,54.503833447335204,-10,-0.33,0.33,10,32,22,31.67,32.33,42,10,10,10,10
12,2,0.07502719998592511,o,37.1,Limited Time - 800ms,h,9.964622335272331,46.50234893174693,37.0565385247423,31.287900251530274,31.287900251530274,46.50234893174693,9.964622335272331,37.0565385247423,-10,-0.33,0.33,10,32,22,31.67,32.33,42,10,10,10,10
12,3,0.14017540001077577,o,50.2,Limited Time - 800ms,h,27.626110941085365,29.519496855565738,50.201768810551485,23.378529090522985,23.378529090522985,29.519496855565738,27.626110941085365,50.201768810551485,-10,-0.33,0.33,10,32,22,31.67,32.33,42,10,10,10,10
12,4,0.12409250001655892,q,24.0,Limited Time - 800ms,h,24.005474594677608,50.557698609871224,43.6756152481333,16.027147535751226,16.027147535751226,50.557698609871224,24.005474594677608,43.6756152481333,-10,-0.33,0.33,10,32,22,31.67,32.33,42,10,10,10,10
12,5,0.009322000027168542,p,19.6,Limited Time - 800ms,h,32.77102680382256,38.137011346208055,44.359199370487836,19.621799198128613,19.621799198128613,38.137011346208055,32.77102680382256,44.359199370487836,-10,-0.33,0.33,10,32,22,31.67,32.33,42,10,10,10,10
12,6,0.09763199998997152,o,38.7,Limited Time - 800ms,h,51.36222371934206,33.59127630468143,38.71959595174971,24.798529101660357,24.798529101660357,33.59127630468143,51.36222371934206,38.71959595174971,-10,-0.33,0.33,10,32,22,31.67,32.33,42,10,10,10,10
12,7,0.13794560002861544,q,29.3,Limited Time - 800ms,h,29.30830672427526,36.040819537799635,46.32336802526352,21.252809479525364,21.252809479525364,36.040819537799635,29.30830672427526,46.32336802526352,-10,-0.33,0.33,10,32,22,31.67,32.33,42,10,10,10,10
12,8,0.10587579995626584,q,50.3,Limited Time - 800ms,h,50.26786927784119,37.77085782656086,33.441279398871046,22.857591267544915,22.857591267544915,37.77085782656086,50.26786927784119,33.441279398871046,-10,-0.33,0.33,10,32,22,31.67,32.33,42,10,10,10,10
12,9,0.01709329994628206,w,27.6,Limited Time - 800ms,h,31.051457773320184,27.562291892577996,21.888967381462077,28.437490758013702,28.437490758013702,27.562291892577996,31.051457773320184,21.888967381462077,-10,-0.33,0.33,10,32,22,31.67,32.33,42,10,10,10,10
12,10,0.005365599994547665,q,2.7,Limited Time - 800ms,h,2.720501154232565,30.478377589872995,34.981095352293195,19.556347317480856,19.556347317480856,30.478377589872995,2.720501154232565,34.981095352293195,-10,-0.33,0.33,10,32,22,31.67,32.33,42,10,10,10,10
12,11,0.11287789995549247,o,42.9,Limited Time - 800ms,h,27.637331982713654,24.995685303806724,42.94451844364766,18.50827209433327,18.50827209433327,24.995685303806724,27.637331982713654,42.94451844364766,-10,-0.33,0.33,10,32,22,31.67,32.33,42,10,10,10,10
12,12,0.11977260001003742,o,49.5,Limited Time - 800ms,h,16.02612464972662,45.312738970657605,49.4601182862052,21.444557612937764,21.444557612937764,45.312738970657605,16.02612464972662,49.4601182862052,-10,-0.33,0.33,10,32,22,31.67,32.33,42,10,10,10,10
12,13,0.03484679997200146,p,26.8,Limited Time - 800ms,h,27.313226132840782,32.86457684792816,36.71414500878775,26.837464010592512,26.837464010592512,32.86457684792816,27.313226132840782,36.71414500878775,-10,-0.33,0.33,10,32,22,31.67,32.33,42,10,10,10,10
12,14,0.11527770000975579,o,38.9,Limited Time - 800ms,h,19.63045334284252,32.796282271618445,38.93969084170767,10.031581518954248,10.031581518954248,32.796282271618445,19.63045334284252,38.93969084170767,-10,-0.33,0.33,10,32,22,31.67,32.33,42,10,10,10,10
12,15,0.1295599999721162,o,24.5,Limited Time - 800ms,h,15.613799906746966,56.605547213788206,24.500227438536957,16.824350551767324,16.824350551767324,56.605547213788206,15.613799906746966,24.500227438536957,-10,-0.33,0.33,10,32,22,31.67,32.33,42,10,10,10,10
12,16,0.006544600008055568,p,31.8,Limited Time - 800ms,h,36.47415589691221,18.059221260019513,35.21384378708714,31.752228403763844,31.752228403763844,18.059221260019513,36.47415589691221,35.21384378708714,-10,-0.33,0.33,10,32,22,31.67,32.33,42,10,10,10,10
12,17,0.16813140001613647,w,26.1,Limited Time - 800ms,h,17.9668489660816,26.05477205441344,34.04216320520159,25.029881874106763,25.029881874106763,26.05477205441344,17.9668489660816,34.04216320520159,-10,-0.33,0.33,10,32,22,31.67,32.33,42,10,10,10,10
12,18,0.016137200000230223,w,33.3,Limited Time - 800ms,h,25.65603749993749,33.32352114587328,47.79082543106972,33.400337764206256,33.400337764206256,33.32352114587328,25.65603749993749,47.79082543106972,-10,-0.33,0.33,10,32,22,31.67,32.33,42,10,10,10,10
12,19,0.09633269999176264,o,58.9,Limited Time - 800ms,h,36.28956320447571,41.39895826370935,58.941070229148586,23.875353357005405,23.875353357005405,41.39895826370935,36.28956320447571,58.941070229148586,-10,-0.33,0.33,10,32,22,31.67,32.33,42,10,10,10,10
12,20,0.027689899958204478,o,33.1,Limited Time - 800ms,h,22.329099048306084,18.985804635578496,33.050912115276425,23.87331680824241,23.87331680824241,18.985804635578496,22.329099048306084,33.050912115276425,-10,-0.33,0.33,10,32,22,31.67,32.33,42,10,10,10,10
13,1,0.5449356999597512,p,34.5,Unlimited Time,e,34.982868452758964,25.426287778779745,39.74845107290068,34.53314158658766,34.53314158658766,34.982868452758964,39.74845107290068,25.426287778779745,0,0,0,0,32,32,32,32,32,3.1622776601683795,6.324555320336759,8.366600265340756,10
13,2,0.06353400001535192,p,28.6,Unlimited Time,e,34.87978111454932,39.197383577428845,32.145047234604,28.59256204739316,28.59256204739316,34.87978111454932,32.145047234604,39.197383577428845,0,0,0,0,32,32,32,32,32,3.1622776601683795,6.324555320336759,8.366600265340756,10
13,3,0.26722529996186495,q,30.0,Unlimited Time,e,30.00426843364903,23.22597395194778,38.634567991128975,31.30647437062099,31.30647437062099,30.00426843364903,38.634567991128975,23.22597395194778,0,0,0,0,32,32,32,32,32,3.1622776601683795,6.324555320336759,8.366600265340756,10
13,4,0.13164590002270415,w,27.4,Unlimited Time,e,35.26861196469343,27.35974686693274,30.652721022956314,34.62164216301397,34.62164216301397,35.26861196469343,30.652721022956314,27.35974686693274,0,0,0,0,32,32,32,32,32,3.1622776601683795,6.324555320336759,8.366600265340756,10
13,5,0.20417470001848415,w,15.2,Unlimited Time,e,27.106794622486202,15.206138899506858,23.629649391196715,35.09641633472412,35.09641633472412,27.106794622486202,23.629649391196715,15.206138899506858,0,0,0,0,32,32,32,32,32,3.1622776601683795,6.324555320336759,8.366600265340756,10
13,6,0.14520529995206743,o,24.7,Unlimited Time,e,30.878235055224476,36.92352133253901,24.702418166032967,33.64822572920612,33.64822572920612,30.878235055224476,24.702418166032967,36.92352133253901,0,0,0,0,32,32,32,32,32,3.1622776601683795,6.324555320336759,8.366600265340756,10
13,7,0.22172809997573495,o,28.9,Unlimited Time,e,35.73248948356561,39.502188895284554,28.894786913896663,31.750492303972678,31.750492303972678,35.73248948356561,28.894786913896663,39.502188895284554,0,0,0,0,32,32,32,32,32,3.1622776601683795,6.324555320336759,8.366600265340756,10
13,8,0.21768030000384897,w,50.4,Unlimited Time,e,34.81341912167814,50.433608025591305,31.379460075505413,28.400081299357925,28.400081299357925,34.81341912167814,31.379460075505413,50.433608025591305,0,0,0,0,32,32,32,32,32,3.1622776601683795,6.324555320336759,8.366600265340756,10
13,9,0.22475029999623075,w,37.3,Unlimited Time,e,29.481800514308397,37.340418458056504,38.05270166776876,33.91103600298347,33.91103600298347,29.481800514308397,38.05270166776876,37.340418458056504,0,0,0,0,32,32,32,32,32,3.1622776601683795,6.324555320336759,8.366600265340756,10
13,10,0.01321010000538081,w,31.1,Unlimited Time,e,24.590294019362833,31.07387070863445,33.38758976361941,27.145859634195933,27.145859634195933,24.590294019362833,33.38758976361941,31.07387070863445,0,0,0,0,32,32,32,32,32,3.1622776601683795,6.324555320336759,8.366600265340756,10
13,11,0.0021288000280037522,q,37.7,Unlimited Time,e,37.68797009186778,26.078917850064965,23.269276491407012,31.07575660695861,31.07575660695861,37.68797009186778,23.269276491407012,26.078917850064965,0,0,0,0,32,32,32,32,32,3.1622776601683795,6.324555320336759,8.366600265340756,10
13,12,0.05267589999129996,q,25.6,Unlimited Time,e,25.620899408920934,39.36246761136085,26.161458163363108,31.90461494707426,31.90461494707426,25.620899408920934,26.161458163363108,39.36246761136085,0,0,0,0,32,32,32,32,32,3.1622776601683795,6.324555320336759,8.366600265340756,10
13,13,0.1858677000273019,q,33.0,Unlimited Time,e,33.005715521557136,29.03059728825166,36.171219743198776,32.71402265150371,32.71402265150371,33.005715521557136,36.171219743198776,29.03059728825166,0,0,0,0,32,32,32,32,32,3.1622776601683795,6.324555320336759,8.366600265340756,10
13,14,0.18484990001888946,w,17.9,Unlimited Time,e,34.481530618556384,17.92925731485682,39.24794377246806,29.527731744811277,29.527731744811277,34.481530618556384,39.24794377246806,17.92925731485682,0,0,0,0,32,32,32,32,32,3.1622776601683795,6.324555320336759,8.366600265340756,10
13,15,0.01994249998824671,o,33.6,Unlimited Time,e,22.001570153209315,30.770415502114403,33.597452825714846,29.364382327096294,29.364382327096294,22.001570153209315,33.597452825714846,30.770415502114403,0,0,0,0,32,32,32,32,32,3.1622776601683795,6.324555320336759,8.366600265340756,10
13,16,0.16901079996023327,p,28.9,Unlimited Time,e,38.40878889910181,30.7154641984289,42.1124040820768,28.911763085180013,28.911763085180013,38.40878889910181,42.1124040820768,30.7154641984289,0,0,0,0,32,32,32,32,32,3.1622776601683795,6.324555320336759,8.366600265340756,10
13,17,0.005447899980936199,p,29.5,Unlimited Time,e,31.30831109446751,25.06891403905914,33.94444984473784,29.479046401559945,29.479046401559945,31.30831109446751,33.94444984473784,25.06891403905914,0,0,0,0,32,32,32,32,32,3.1622776601683795,6.324555320336759,8.366600265340756,10
13,18,0.061239800008479506,o,28.0,Unlimited Time,e,31.617855625110572,24.924336300007962,28.0498592380404,34.29270930465349,34.29270930465349,31.617855625110572,28.0498592380404,24.924336300007962,0,0,0,0,32,32,32,32,32,3.1622776601683795,6.324555320336759,8.366600265340756,10
13,19,0.04486590001033619,p,31.4,Unlimited Time,e,38.57674969101083,4.385581080354289,21.56784954296115,31.379687307862874,31.379687307862874,38.57674969101083,21.56784954296115,4.385581080354289,0,0,0,0,32,32,32,32,32,3.1622776601683795,6.324555320336759,8.366600265340756,10
13,20,0.024207499984186143,p,32.8,Unlimited Time,e,38.780643051480666,9.178720748152983,14.223726175666222,32.80498606868168,32.80498606868168,38.780643051480666,14.223726175666222,9.178720748152983,0,0,0,0,32,32,32,32,32,3.1622776601683795,6.324555320336759,8.366600265340756,10
14,1,0.1417974999640137,p,20.1,Limited Time - 400ms,l,31.842078936014165,40.96926314559595,27.15167253464084,20.12936946897718,20.12936946897718,27.15167253464084,31.842078936014165,40.96926314559595,-10,-0.33,0.33,10,32,22,31.67,32.33,42,3.1622776601683795,3.1622776601683795,3.1622776601683795,3.1622776601683795
14,2,0.06435070000588894,o,31.4,Limited Time - 400ms,l,30.642297624450794,47.06175827428266,31.442143486869636,19.692654424116395,19.692654424116395,31.442143486869636,30.642297624450794,47.06175827428266,-10,-0.33,0.33,10,32,22,31.67,32.33,42,3.1622776601683795,3.1622776601683795,3.1622776601683795,3.1622776601683795
14,3,0.009699399990495294,p,25.8,Limited Time - 400ms,l,37.19139733900977,42.14933122576187,31.81792474784392,25.808722081966696,25.808722081966696,31.81792474784392,37.19139733900977,42.14933122576187,-10,-0.33,0.33,10,32,22,31.67,32.33,42,3.1622776601683795,3.1622776601683795,3.1622776601683795,3.1622776601683795
14,4,0.13161009998293594,q,39.4,Limited Time - 400ms,l,39.437983992402344,38.62998865062274,31.367287018829543,19.110313650835277,19.110313650835277,31.367287018829543,39.437983992402344,38.62998865062274,-10,-0.33,0.33,10,32,22,31.67,32.33,42,3.1622776601683795,3.1622776601683795,3.1622776601683795,3.1622776601683795
14,5,0.007368799997493625,w,43.6,Limited Time - 400ms,l,30.977043421797916,43.55148767021989,31.242502566221322,23.239362074927875,23.239362074927875,31.242502566221322,30.977043421797916,43.55148767021989,-10,-0.33,0.33,10,32,22,31.67,32.33,42,3.1622776601683795,3.1622776601683795,3.1622776601683795,3.1622776601683795
14,6,0.1441447000252083,o,28.6,Limited Time - 400ms,l,30.686585673733813,48.73972771895741,28.55986454261333,19.572046041855266,19.572046041855266,28.55986454261333,30.686585673733813,48.73972771895741,-10,-0.33,0.33,10,32,22,31.67,32.33,42,3.1622776601683795,3.1622776601683795,3.1622776601683795,3.1622776601683795
14,7,0.050764799991156906,w,39.6,Limited Time - 400ms,l,30.177850187241525,39.63628320031411,36.13479593310244,30.31894814966416,30.31894814966416,36.13479593310244,30.177850187241525,39.63628320031411,-10,-0.33,0.33,10,32,22,31.67,32.33,42,3.1622776601683795,3.1622776601683795,3.1622776601683795,3.1622776601683795
14,8,,,0.0,Limited Time - 400ms,l,27.575318894753316,46.35626800358972,36.107994056453016,19.31993996025526,19.31993996025526,36.107994056453016,27.575318894753316,46.35626800358972,-10,-0.33,0.33,10,32,22,31.67,32.33,42,3.1622776601683795,3.1622776601683795,3.1622776601683795,3.1622776601683795
14,9,0.0870658999774605,w,43.6,Limited Time - 400ms,l,36.58922144079768,43.58975379375641,31.533790469135287,21.0505239506921,21.0505239506921,31.533790469135287,36.58922144079768,43.58975379375641,-10,-0.33,0.33,10,32,22,31.67,32.33,42,3.1622776601683795,3.1622776601683795,3.1622776601683795,3.1622776601683795
14,10,0.12039230001391843,o,35.8,Limited Time - 400ms,l,30.616181445385685,40.96618970422933,35.78761299668815,21.107653514224875,21.107653514224875,35.78761299668815,30.616181445385685,40.96618970422933,-10,-0.33,0.33,10,32,22,31.67,32.33,42,3.1622776601683795,3.1622776601683795,3.1622776601683795,3.1622776601683795
14,11,0.05944749998161569,w,38.5,Limited Time - 400ms,l,27.32370586053133,38.455031289550284,33.51089612248001,21.437793484872024,21.437793484872024,33.51089612248001,27.32370586053133,38.455031289550284,-10,-0.33,0.33,10,32,22,31.67,32.33,42,3.1622776601683795,3.1622776601683795,3.1622776601683795,3.1622776601683795
14,12,0.049676200025714934,o,30.0,Limited Time - 400ms,l,33.19936500083936,38.32369091736818,30.00593343682619,19.38771226393914,19.38771226393914,30.00593343682619,33.19936500083936,38.32369091736818,-10,-0.33,0.33,10,32,22,31.67,32.33,42,3.1622776601683795,3.1622776601683795,3.1622776601683795,3.1622776601683795
14,13,0.015090800006873906,p,20.4,Limited Time - 400ms,l,33.509029839628454,41.54584977983197,32.993189639615444,20.385655718783934,20.385655718783934,32.993189639615444,33.509029839628454,41.54584977983197,-10,-0.33,0.33,10,32,22,31.67,32.33,42,3.1622776601683795,3.1622776601683795,3.1622776601683795,3.1622776601683795
14,14,0.10152759996708483,p,26.3,Limited Time - 400ms,l,33.76992930677969,42.57700299519398,29.897879010304734,26.300280528724606,26.300280528724606,29.897879010304734,33.76992930677969,42.57700299519398,-10,-0.33,0.33,10,32,22,31.67,32.33,42,3.1622776601683795,3.1622776601683795,3.1622776601683795,3.1622776601683795
14,15,0.051416700007393956,p,15.1,Limited Time - 400ms,l,34.70027861785811,44.90596306187662,24.80556901847678,15.073871977915292,15.073871977915292,24.80556901847678,34.70027861785811,44.90596306187662,-10,-0.33,0.33,10,32,22,31.67,32.33,42,3.1622776601683795,3.1622776601683795,3.1622776601683795,3.1622776601683795
14,16,0.15570020000450313,w,42.2,Limited Time - 400ms,l,36.101646032821215,42.19743700589659,32.58420627082747,23.79042922001977,23.79042922001977,32.58420627082747,36.101646032821215,42.19743700589659,-10,-0.33,0.33,10,32,22,31.67,32.33,42,3.1622776601683795,3.1622776601683795,3.1622776601683795,3.1622776601683795
14,17,0.09424100001342595,o,35.4,Limited Time - 400ms,l,30.047147076304473,40.83783726287945,35.40262744921186,21.705921148748946,21.705921148748946,35.40262744921186,30.047147076304473,40.83783726287945,-10,-0.33,0.33,10,32,22,31.67,32.33,42,3.1622776601683795,3.1622776601683795,3.1622776601683795,3.1622776601683795
14,18,0.08539620001101866,w,42.1,Limited Time - 400ms,l,30.203546828572012,42.11490793803244,34.41048890585922,20.079013108243085,20.079013108243085,34.41048890585922,30.203546828572012,42.11490793803244,-10,-0.33,0.33,10,32,22,31.67,32.33,42,3.1622776601683795,3.1622776601683795,3.1622776601683795,3.1622776601683795
14,19,0.16265460004797205,o,34.4,Limited Time - 400ms,l,34.59500418670153,36.89406247032996,34.42050929586463,21.739579938456515,21.739579938456515,34.42050929586463,34.59500418670153,36.89406247032996,-10,-0.33,0.33,10,32,22,31.67,32.33,42,3.1622776601683795,3.1622776601683795,3.1622776601683795,3.1622776601683795
14,20,0.05383959994651377,o,30.8,Limited Time - 400ms,l,34.8079211761969,43.729477680356474,30.787654549169627,18.791321038793633,18.791321038793633,30.787654549169627,34.8079211761969,43.729477680356474,-10,-0.33,0.33,10,32,22,31.67,32.33,42,3.1622776601683795,3.1622776601683795,3.1622776601683795,3.1622776601683795
15,1,0.215938700013794,o,27.2,Limited Time - 800ms,l,40.96926314559595,31.842078936014165,27.15167253464084,20.12936946897718,20.12936946897718,27.15167253464084,31.842078936014165,40.96926314559595,-10,-0.33,0.33,10,32,22,31.67,32.33,42,3.1622776601683795,3.1622776601683795,3.1622776601683795,3.1622776601683795
15,2,0.17648849997203797,w,30.6,Limited Time - 800ms,l,47.06175827428266,30.642297624450794,31.442143486869636,19.692654424116395,19.692654424116395,31.442143486869636,30.642297624450794,47.06175827428266,-10,-0.33,0.33,10,32,22,31.67,32.33,42,3.1622776601683795,3.1622776601683795,3.1622776601683795,3.1622776601683795
15,3,0.02648649999173358,o,31.8,Limited Time - 800ms,l,42.14933122576187,37.19139733900977,31.81792474784392,25.808722081966696,25.808722081966696,31.81792474784392,37.19139733900977,42.14933122576187,-10,-0.33,0.33,10,32,22,31.67,32.33,42,3.1622776601683795,3.1622776601683795,3.1622776601683795,3.1622776601683795
15,4,0.08771229995181784,q,38.6,Limited Time - 800ms,l,38.62998865062274,39.437983992402344,31.367287018829543,19.110313650835277,19.110313650835277,31.367287018829543,39.437983992402344,38.62998865062274,-10,-0.33,0.33,10,32,22,31.67,32.33,42,3.1622776601683795,3.1622776601683795,3.1622776601683795,3.1622776601683795
15,5,0.0682910000323318,p,23.2,Limited Time - 800ms,l,43.55148767021989,30.977043421797916,31.242502566221322,23.239362074927875,23.239362074927875,31.242502566221322,30.977043421797916,43.55148767021989,-10,-0.33,0.33,10,32,22,31.67,32.33,42,3.1622776601683795,3.1622776601683795,3.1622776601683795,3.1622776601683795
15,6,0.2196305999532342,q,48.7,Limited Time - 800ms,l,48.73972771895741,30.686585673733813,28.55986454261333,19.572046041855266,19.572046041855266,28.55986454261333,30.686585673733813,48.73972771895741,-10,-0.33,0.33,10,32,22,31.67,32.33,42,3.1622776601683795,3.1622776601683795,3.1622776601683795,3.1622776601683795
15,7,0.0438214999740012,q,39.6,Limited Time - 800ms,l,39.63628320031411,30.177850187241525,36.13479593310244,30.31894814966416,30.31894814966416,36.13479593310244,30.177850187241525,39.63628320031411,-10,-0.33,0.33,10,32,22,31.67,32.33,42,3.1622776601683795,3.1622776601683795,3.1622776601683795,3.1622776601683795
15,8,0.10264579998329282,q,46.4,Limited Time - 800ms,l,46.35626800358972,27.575318894753316,36.107994056453016,19.31993996025526,19.31993996025526,36.107994056453016,27.575318894753316,46.35626800358972,-10,-0.33,0.33,10,32,22,31.67,32.33,42,3.1622776601683795,3.1622776601683795,3.1622776601683795,3.1622776601683795
15,9,0.11892969999462366,q,43.6,Limited Time - 800ms,l,43.58975379375641,36.58922144079768,31.533790469135287,21.0505239506921,21.0505239506921,31.533790469135287,36.58922144079768,43.58975379375641,-10,-0.33,0.33,10,32,22,31.67,32.33,42,3.1622776601683795,3.1622776601683795,3.1622776601683795,3.1622776601683795
15,10,0.18218010000418872,p,21.1,Limited Time - 800ms,l,40.96618970422933,30.616181445385685,35.78761299668815,21.107653514224875,21.107653514224875,35.78761299668815,30.616181445385685,40.96618970422933,-10,-0.33,0.33,10,32,22,31.67,32.33,42,3.1622776601683795,3.1622776601683795,3.1622776601683795,3.1622776601683795
15,11,0.0010296000400558114,o,33.5,Limited Time - 800ms,l,38.455031289550284,27.32370586053133,33.51089612248001,21.437793484872024,21.437793484872024,33.51089612248001,27.32370586053133,38.455031289550284,-10,-0.33,0.33,10,32,22,31.67,32.33,42,3.1622776601683795,3.1622776601683795,3.1622776601683795,3.1622776601683795
15,12,0.04973859997699037,o,30.0,Limited Time - 800ms,l,38.32369091736818,33.19936500083936,30.00593343682619,19.38771226393914,19.38771226393914,30.00593343682619,33.19936500083936,38.32369091736818,-10,-0.33,0.33,10,32,22,31.67,32.33,42,3.1622776601683795,3.1622776601683795,3.1622776601683795,3.1622776601683795
15,13,0.029193800000939518,q,41.5,Limited Time - 800ms,l,41.54584977983197,33.509029839628454,32.993189639615444,20.385655718783934,20.385655718783934,32.993189639615444,33.509029839628454,41.54584977983197,-10,-0.33,0.33,10,32,22,31.67,32.33,42,3.1622776601683795,3.1622776601683795,3.1622776601683795,3.1622776601683795
15,14,0.16438289999496192,o,29.9,Limited Time - 800ms,l,42.57700299519398,33.76992930677969,29.897879010304734,26.300280528724606,26.300280528724606,29.897879010304734,33.76992930677969,42.57700299519398,-10,-0.33,0.33,10,32,22,31.67,32.33,42,3.1622776601683795,3.1622776601683795,3.1622776601683795,3.1622776601683795
15,15,0.0006567999953404069,p,15.1,Limited Time - 800ms,l,44.90596306187662,34.70027861785811,24.80556901847678,15.073871977915292,15.073871977915292,24.80556901847678,34.70027861785811,44.90596306187662,-10,-0.33,0.33,10,32,22,31.67,32.33,42,3.1622776601683795,3.1622776601683795,3.1622776601683795,3.1622776601683795
15,16,0.044086000008974224,o,32.6,Limited Time - 800ms,l,42.19743700589659,36.101646032821215,32.58420627082747,23.79042922001977,23.79042922001977,32.58420627082747,36.101646032821215,42.19743700589659,-10,-0.33,0.33,10,32,22,31.67,32.33,42,3.1622776601683795,3.1622776601683795,3.1622776601683795,3.1622776601683795
15,17,0.05499169998802245,o,35.4,Limited Time - 800ms,l,40.83783726287945,30.047147076304473,35.40262744921186,21.705921148748946,21.705921148748946,35.40262744921186,30.047147076304473,40.83783726287945,-10,-0.33,0.33,10,32,22,31.67,32.33,42,3.1622776601683795,3.1622776601683795,3.1622776601683795,3.1622776601683795
15,18,0.08406289998674765,o,34.4,Limited Time - 800ms,l,42.11490793803244,30.203546828572012,34.41048890585922,20.079013108243085,20.079013108243085,34.41048890585922,30.203546828572012,42.11490793803244,-10,-0.33,0.33,10,32,22,31.67,32.33,42,3.1622776601683795,3.1622776601683795,3.1622776601683795,3.1622776601683795
15,19,0.2164424000075087,o,34.4,Limited Time - 800ms,l,36.89406247032996,34.59500418670153,34.42050929586463,21.739579938456515,21.739579938456515,34.42050929586463,34.59500418670153,36.89406247032996,-10,-0.33,0.33,10,32,22,31.67,32.33,42,3.1622776601683795,3.1622776601683795,3.1622776601683795,3.1622776601683795
15,20,0.16923310002312064,p,18.8,Limited Time - 800ms,l,43.729477680356474,34.8079211761969,30.787654549169627,18.791321038793633,18.791321038793633,30.787654549169627,34.8079211761969,43.729477680356474,-10,-0.33,0.33,10,32,22,31.67,32.33,42,3.1622776601683795,3.1622776601683795,3.1622776601683795,3.1622776601683795
16,1,0.34605749999172986,o,31.8,Unlimited Time,l,20.12936946897718,27.15167253464084,31.842078936014165,40.96926314559595,20.12936946897718,27.15167253464084,31.842078936014165,40.96926314559595,-10,-0.33,0.33,10,32,22,31.67,32.33,42,3.1622776601683795,3.1622776601683795,3.1622776601683795,3.1622776601683795
16,2,0.06637130002491176,p,47.1,Unlimited Time,l,19.692654424116395,31.442143486869636,30.642297624450794,47.06175827428266,19.692654424116395,31.442143486869636,30.642297624450794,47.06175827428266,-10,-0.33,0.33,10,32,22,31.67,32.33,42,3.1622776601683795,3.1622776601683795,3.1622776601683795,3.1622776601683795
16,3,0.17087530001299456,w,31.8,Unlimited Time,l,25.808722081966696,31.81792474784392,37.19139733900977,42.14933122576187,25.808722081966696,31.81792474784392,37.19139733900977,42.14933122576187,-10,-0.33,0.33,10,32,22,31.67,32.33,42,3.1622776601683795,3.1622776601683795,3.1622776601683795,3.1622776601683795
16,4,0.12816140003269538,q,19.1,Unlimited Time,l,19.110313650835277,31.367287018829543,39.437983992402344,38.62998865062274,19.110313650835277,31.367287018829543,39.437983992402344,38.62998865062274,-10,-0.33,0.33,10,32,22,31.67,32.33,42,3.1622776601683795,3.1622776601683795,3.1622776601683795,3.1622776601683795
16,5,0.08055989997228608,q,23.2,Unlimited Time,l,23.239362074927875,31.242502566221322,30.977043421797916,43.55148767021989,23.239362074927875,31.242502566221322,30.977043421797916,43.55148767021989,-10,-0.33,0.33,10,32,22,31.67,32.33,42,3.1622776601683795,3.1622776601683795,3.1622776601683795,3.1622776601683795
16,6,0.25037850002991036,w,28.6,Unlimited Time,l,19.572046041855266,28.55986454261333,30.686585673733813,48.73972771895741,19.572046041855266,28.55986454261333,30.686585673733813,48.73972771895741,-10,-0.33,0.33,10,32,22,31.67,32.33,42,3.1622776601683795,3.1622776601683795,3.1622776601683795,3.1622776601683795
16,7,0.012345499999355525,o,30.2,Unlimited Time,l,30.31894814966416,36.13479593310244,30.177850187241525,39.63628320031411,30.31894814966416,36.13479593310244,30.177850187241525,39.63628320031411,-10,-0.33,0.33,10,32,22,31.67,32.33,42,3.1622776601683795,3.1622776601683795,3.1622776601683795,3.1622776601683795
16,8,0.04168169997865334,p,46.4,Unlimited Time,l,19.31993996025526,36.107994056453016,27.575318894753316,46.35626800358972,19.31993996025526,36.107994056453016,27.575318894753316,46.35626800358972,-10,-0.33,0.33,10,32,22,31.67,32.33,42,3.1622776601683795,3.1622776601683795,3.1622776601683795,3.1622776601683795
16,9,0.03161150001687929,o,36.6,Unlimited Time,l,21.0505239506921,31.533790469135287,36.58922144079768,43.58975379375641,21.0505239506921,31.533790469135287,36.58922144079768,43.58975379375641,-10,-0.33,0.33,10,32,22,31.67,32.33,42,3.1622776601683795,3.1622776601683795,3.1622776601683795,3.1622776601683795
16,10,0.03128550003748387,o,30.6,Unlimited Time,l,21.107653514224875,35.78761299668815,30.616181445385685,40.96618970422933,21.107653514224875,35.78761299668815,30.616181445385685,40.96618970422933,-10,-0.33,0.33,10,32,22,31.67,32.33,42,3.1622776601683795,3.1622776601683795,3.1622776601683795,3.1622776601683795
16,11,0.06358259997796267,p,38.5,Unlimited Time,l,21.437793484872024,33.51089612248001,27.32370586053133,38.455031289550284,21.437793484872024,33.51089612248001,27.32370586053133,38.455031289550284,-10,-0.33,0.33,10,32,22,31.67,32.33,42,3.1622776601683795,3.1622776601683795,3.1622776601683795,3.1622776601683795
16,12,0.0772374999942258,o,33.2,Unlimited Time,l,19.38771226393914,30.00593343682619,33.19936500083936,38.32369091736818,19.38771226393914,30.00593343682619,33.19936500083936,38.32369091736818,-10,-0.33,0.33,10,32,22,31.67,32.33,42,3.1622776601683795,3.1622776601683795,3.1622776601683795,3.1622776601683795
16,13,0.02041200001258403,p,41.5,Unlimited Time,l,20.385655718783934,32.993189639615444,33.509029839628454,41.54584977983197,20.385655718783934,32.993189639615444,33.509029839628454,41.54584977983197,-10,-0.33,0.33,10,32,22,31.67,32.33,42,3.1622776601683795,3.1622776601683795,3.1622776601683795,3.1622776601683795
16,14,0.1902293000021018,w,29.9,Unlimited Time,l,26.300280528724606,29.897879010304734,33.76992930677969,42.57700299519398,26.300280528724606,29.897879010304734,33.76992930677969,42.57700299519398,-10,-0.33,0.33,10,32,22,31.67,32.33,42,3.1622776601683795,3.1622776601683795,3.1622776601683795,3.1622776601683795
16,15,0.22144550003577024,w,24.8,Unlimited Time,l,15.073871977915292,24.80556901847678,34.70027861785811,44.90596306187662,15.073871977915292,24.80556901847678,34.70027861785811,44.90596306187662,-10,-0.33,0.33,10,32,22,31.67,32.33,42,3.1622776601683795,3.1622776601683795,3.1622776601683795,3.1622776601683795
16,16,0.0028376999543979764,w,32.6,Unlimited Time,l,23.79042922001977,32.58420627082747,36.101646032821215,42.19743700589659,23.79042922001977,32.58420627082747,36.101646032821215,42.19743700589659,-10,-0.33,0.33,10,32,22,31.67,32.33,42,3.1622776601683795,3.1622776601683795,3.1622776601683795,3.1622776601683795
16,17,0.05569830001331866,o,30.0,Unlimited Time,l,21.705921148748946,35.40262744921186,30.047147076304473,40.83783726287945,21.705921148748946,35.40262744921186,30.047147076304473,40.83783726287945,-10,-0.33,0.33,10,32,22,31.67,32.33,42,3.1622776601683795,3.1622776601683795,3.1622776601683795,3.1622776601683795
16,18,0.1544442999875173,p,42.1,Unlimited Time,l,20.079013108243085,34.41048890585922,30.203546828572012,42.11490793803244,20.079013108243085,34.41048890585922,30.203546828572012,42.11490793803244,-10,-0.33,0.33,10,32,22,31.67,32.33,42,3.1622776601683795,3.1622776601683795,3.1622776601683795,3.1622776601683795
16,19,0.18521319999126717,o,34.6,Unlimited Time,l,21.739579938456515,34.42050929586463,34.59500418670153,36.89406247032996,21.739579938456515,34.42050929586463,34.59500418670153,36.89406247032996,-10,-0.33,0.33,10,32,22,31.67,32.33,42,3.1622776601683795,3.1622776601683795,3.1622776601683795,3.1622776601683795
16,20,0.028057999967131764,p,43.7,Unlimited Time,l,18.791321038793633,30.787654549169627,34.8079211761969,43.729477680356474,18.791321038793633,30.787654549169627,34.8079211761969,43.729477680356474,-10,-0.33,0.33,10,32,22,31.67,32.33,42,3.1622776601683795,3.1622776601683795,3.1622776601683795,3.1622776601683795
17,1,0.18653499998617917,o,25.4,Limited Time - 400ms,e,34.982868452758964,39.74845107290068,25.426287778779745,34.53314158658766,34.53314158658766,34.982868452758964,39.74845107290068,25.426287778779745,0,0,0,0,32,32,32,32,32,3.1622776601683795,6.324555320336759,8.366600265340756,10
17,2,0.02624809998087585,p,28.6,Limited Time - 400ms,e,34.87978111454932,32.145047234604,39.197383577428845,28.59256204739316,28.59256204739316,34.87978111454932,32.145047234604,39.197383577428845,0,0,0,0,32,32,32,32,32,3.1622776601683795,6.324555320336759,8.366600265340756,10
17,3,0.14772020000964403,o,23.2,Limited Time - 400ms,e,30.00426843364903,38.634567991128975,23.22597395194778,31.30647437062099,31.30647437062099,30.00426843364903,38.634567991128975,23.22597395194778,0,0,0,0,32,32,32,32,32,3.1622776601683795,6.324555320336759,8.366600265340756,10
17,4,0.003388600016478449,p,34.6,Limited Time - 400ms,e,35.26861196469343,30.652721022956314,27.35974686693274,34.62164216301397,34.62164216301397,35.26861196469343,30.652721022956314,27.35974686693274,0,0,0,0,32,32,32,32,32,3.1622776601683795,6.324555320336759,8.366600265340756,10
17,5,0.0704229999682866,p,35.1,Limited Time - 400ms,e,27.106794622486202,23.629649391196715,15.206138899506858,35.09641633472412,35.09641633472412,27.106794622486202,23.629649391196715,15.206138899506858,0,0,0,0,32,32,32,32,32,3.1622776601683795,6.324555320336759,8.366600265340756,10
17,6,0.17829220002749935,q,30.9,Limited Time - 400ms,e,30.878235055224476,24.702418166032967,36.92352133253901,33.64822572920612,33.64822572920612,30.878235055224476,24.702418166032967,36.92352133253901,0,0,0,0,32,32,32,32,32,3.1622776601683795,6.324555320336759,8.366600265340756,10
17,7,0.08541290002176538,o,39.5,Limited Time - 400ms,e,35.73248948356561,28.894786913896663,39.502188895284554,31.750492303972678,31.750492303972678,35.73248948356561,28.894786913896663,39.502188895284554,0,0,0,0,32,32,32,32,32,3.1622776601683795,6.324555320336759,8.366600265340756,10
17,8,0.006526300043333322,w,31.4,Limited Time - 400ms,e,34.81341912167814,31.379460075505413,50.433608025591305,28.400081299357925,28.400081299357925,34.81341912167814,31.379460075505413,50.433608025591305,0,0,0,0,32,32,32,32,32,3.1622776601683795,6.324555320336759,8.366600265340756,10
17,9,0.03248859994346276,p,33.9,Limited Time - 400ms,e,29.481800514308397,38.05270166776876,37.340418458056504,33.91103600298347,33.91103600298347,29.481800514308397,38.05270166776876,37.340418458056504,0,0,0,0,32,32,32,32,32,3.1622776601683795,6.324555320336759,8.366600265340756,10
17,10,0.17676400003256276,o,31.1,Limited Time - 400ms,e,24.590294019362833,33.38758976361941,31.07387070863445,27.145859634195933,27.145859634195933,24.590294019362833,33.38758976361941,31.07387070863445,0,0,0,0,32,32,32,32,32,3.1622776601683795,6.324555320336759,8.366600265340756,10
17,11,0.017777300032321364,o,26.1,Limited Time - 400ms,e,37.68797009186778,23.269276491407012,26.078917850064965,31.07575660695861,31.07575660695861,37.68797009186778,23.269276491407012,26.078917850064965,0,0,0,0,32,32,32,32,32,3.1622776601683795,6.324555320336759,8.366600265340756,10
17,12,0.2007352000218816,w,26.2,Limited Time - 400ms,e,25.620899408920934,26.161458163363108,39.36246761136085,31.90461494707426,31.90461494707426,25.620899408920934,26.161458163363108,39.36246761136085,0,0,0,0,32,32,32,32,32,3.1622776601683795,6.324555320336759,8.366600265340756,10
17,13,0.002418200019747019,w,36.2,Limited Time - 400ms,e,33.005715521557136,36.171219743198776,29.03059728825166,32.71402265150371,32.71402265150371,33.005715521557136,36.171219743198776,29.03059728825166,0,0,0,0,32,32,32,32,32,3.1622776601683795,6.324555320336759,8.366600265340756,10
17,14,0.14173849998041987,w,39.2,Limited Time - 400ms,e,34.481530618556384,39.24794377246806,17.92925731485682,29.527731744811277,29.527731744811277,34.481530618556384,39.24794377246806,17.92925731485682,0,0,0,0,32,32,32,32,32,3.1622776601683795,6.324555320336759,8.366600265340756,10
17,15,0.008868099946994334,w,33.6,Limited Time - 400ms,e,22.001570153209315,33.597452825714846,30.770415502114403,29.364382327096294,29.364382327096294,22.001570153209315,33.597452825714846,30.770415502114403,0,0,0,0,32,32,32,32,32,3.1622776601683795,6.324555320336759,8.366600265340756,10
17,16,0.18282669998006895,w,42.1,Limited Time - 400ms,e,38.40878889910181,42.1124040820768,30.7154641984289,28.911763085180013,28.911763085180013,38.40878889910181,42.1124040820768,30.7154641984289,0,0,0,0,32,32,32,32,32,3.1622776601683795,6.324555320336759,8.366600265340756,10
17,17,0.0645306000369601,w,33.9,Limited Time - 400ms,e,31.30831109446751,33.94444984473784,25.06891403905914,29.479046401559945,29.479046401559945,31.30831109446751,33.94444984473784,25.06891403905914,0,0,0,0,32,32,32,32,32,3.1622776601683795,6.324555320336759,8.366600265340756,10
17,18,0.1464871999924071,w,28.0,Limited Time - 400ms,e,31.617855625110572,28.0498592380404,24.924336300007962,34.29270930465349,34.29270930465349,31.617855625110572,28.0498592380404,24.924336300007962,0,0,0,0,32,32,32,32,32,3.1622776601683795,6.324555320336759,8.366600265340756,10
17,19,0.0751847000210546,w,21.6,Limited Time - 400ms,e,38.57674969101083,21.56784954296115,4.385581080354289,31.379687307862874,31.379687307862874,38.57674969101083,21.56784954296115,4.385581080354289,0,0,0,0,32,32,32,32,32,3.1622776601683795,6.324555320336759,8.366600265340756,10
17,20,0.05363729997770861,p,32.8,Limited Time - 400ms,e,38.780643051480666,14.223726175666222,9.178720748152983,32.80498606868168,32.80498606868168,38.780643051480666,14.223726175666222,9.178720748152983,0,0,0,0,32,32,32,32,32,3.1622776601683795,6.324555320336759,8.366600265340756,10
18,1,0.16101280000293627,p,54.5,Limited Time - 800ms,h,46.41183456329426,23.358018799787764,32.71750757525165,54.503833447335204,23.358018799787764,32.71750757525165,46.41183456329426,54.503833447335204,-10,-0.33,0.33,10,32,22,31.67,32.33,42,10,10,10,10
18,2,0.06770810001762584,o,46.5,Limited Time - 800ms,h,9.964622335272331,31.287900251530274,46.50234893174693,37.0565385247423,31.287900251530274,46.50234893174693,9.964622335272331,37.0565385247423,-10,-0.33,0.33,10,32,22,31.67,32.33,42,10,10,10,10
18,3,0.16974350000964478,q,27.6,Limited Time - 800ms,h,27.626110941085365,23.378529090522985,29.519496855565738,50.201768810551485,23.378529090522985,29.519496855565738,27.626110941085365,50.201768810551485,-10,-0.33,0.33,10,32,22,31.67,32.33,42,10,10,10,10
18,4,0.041971699974965304,q,24.0,Limited Time - 800ms,h,24.005474594677608,16.027147535751226,50.557698609871224,43.6756152481333,16.027147535751226,50.557698609871224,24.005474594677608,43.6756152481333,-10,-0.33,0.33,10,32,22,31.67,32.33,42,10,10,10,10
18,5,0.04558999999426305,w,19.6,Limited Time - 800ms,h,32.77102680382256,19.621799198128613,38.137011346208055,44.359199370487836,19.621799198128613,38.137011346208055,32.77102680382256,44.359199370487836,-10,-0.33,0.33,10,32,22,31.67,32.33,42,10,10,10,10
18,6,0.05502870003692806,o,33.6,Limited Time - 800ms,h,51.36222371934206,24.798529101660357,33.59127630468143,38.71959595174971,24.798529101660357,33.59127630468143,51.36222371934206,38.71959595174971,-10,-0.33,0.33,10,32,22,31.67,32.33,42,10,10,10,10
18,7,0.08025780000025406,p,46.3,Limited Time - 800ms,h,29.30830672427526,21.252809479525364,36.040819537799635,46.32336802526352,21.252809479525364,36.040819537799635,29.30830672427526,46.32336802526352,-10,-0.33,0.33,10,32,22,31.67,32.33,42,10,10,10,10
18,8,0.1522836000076495,p,33.4,Limited Time - 800ms,h,50.26786927784119,22.857591267544915,37.77085782656086,33.441279398871046,22.857591267544915,37.77085782656086,50.26786927784119,33.441279398871046,-10,-0.33,0.33,10,32,22,31.67,32.33,42,10,10,10,10
18,9,0.10453069995855913,o,27.6,Limited Time - 800ms,h,31.051457773320184,28.437490758013702,27.562291892577996,21.888967381462077,28.437490758013702,27.562291892577996,31.051457773320184,21.888967381462077,-10,-0.33,0.33,10,32,22,31.67,32.33,42,10,10,10,10
